"subject","trial","magnitude","direction","n_stimuli","present_or_absent","colors","choice_rt","search_rt","error","ssd"
"07iuiut1t9rh",7,"Moderate","Easier than Reference",4,"present","With Colors",1001,846,0,0
"07iuiut1t9rh",9,"Moderate","Harder than Reference",39,"absent","With Colors",969,6181,0,1
"07iuiut1t9rh",10,"Moderate","Easier than Reference",4,"present","With Colors",891,829,0,0
"07iuiut1t9rh",11,"Extreme","Easier than Reference",18,"present","With Colors",808,1358,0,0
"07iuiut1t9rh",12,"Extreme","Harder than Reference",32,"present","With Colors",877,1395,0,0
"07iuiut1t9rh",13,"Moderate","Easier than Reference",4,"absent","With Colors",701,1336,0,0
"07iuiut1t9rh",14,"Extreme","Easier than Reference",32,"present","With Colors",605,1132,0,0
"07iuiut1t9rh",15,"Extreme","Harder than Reference",60,"absent","With Colors",1146,4724,0,0
"07iuiut1t9rh",16,"Moderate","Harder than Reference",46,"absent","With Colors",793,7789,0,0
"07iuiut1t9rh",17,"Moderate","Harder than Reference",32,"present","With Colors",638,3332,0,0
"07iuiut1t9rh",18,"Extreme","Easier than Reference",32,"absent","With Colors",538,4650,0,0
"07iuiut1t9rh",19,"Extreme","Harder than Reference",60,"present","With Colors",751,7460,0,0
"07iuiut1t9rh",20,"Moderate","Easier than Reference",4,"present","With Colors",925,831,0,0
"07iuiut1t9rh",21,"Moderate","Harder than Reference",46,"absent","With Colors",765,7405,0,0
"07iuiut1t9rh",22,"Extreme","Harder than Reference",46,"absent","With Colors",814,6906,0,1
"07iuiut1t9rh",23,"Extreme","Easier than Reference",18,"present","With Colors",637,1135,0,0
"07iuiut1t9rh",24,"Moderate","Easier than Reference",4,"present","With Colors",504,671,0,0
"07iuiut1t9rh",25,"Moderate","Harder than Reference",39,"present","With Colors",661,1837,0,1
"07iuiut1t9rh",26,"Extreme","Harder than Reference",60,"present","With Colors",672,8257,1,0
"07iuiut1t9rh",27,"Extreme","Easier than Reference",18,"present","With Colors",740,2471,0,0
"07iuiut1t9rh",28,"Moderate","Easier than Reference",4,"absent","With Colors",859,1049,0,0
"07iuiut1t9rh",29,"Moderate","Harder than Reference",32,"present","With Colors",952,2696,0,0
"07iuiut1t9rh",30,"Extreme","Harder than Reference",60,"present","With Colors",726,1291,0,0
"07iuiut1t9rh",31,"Extreme","Easier than Reference",32,"present","With Colors",536,2314,0,0
"07iuiut1t9rh",32,"Moderate","Easier than Reference",4,"absent","With Colors",833,903,0,0
"07iuiut1t9rh",33,"Extreme","Harder than Reference",32,"present","With Colors",726,890,0,0
"07iuiut1t9rh",34,"Extreme","Easier than Reference",32,"absent","With Colors",542,2884,0,0
"07iuiut1t9rh",35,"Moderate","Easier than Reference",4,"present","With Colors",581,606,0,0
"07iuiut1t9rh",36,"Moderate","Harder than Reference",46,"absent","With Colors",699,5180,0,0
"07iuiut1t9rh",37,"Moderate","Easier than Reference",32,"present","With Colors",689,2501,0,0
"07iuiut1t9rh",38,"Extreme","Harder than Reference",60,"present","With Colors",664,2989,0,0
"07iuiut1t9rh",39,"Moderate","Harder than Reference",32,"absent","With Colors",891,4866,0,0
"07iuiut1t9rh",40,"Extreme","Easier than Reference",32,"absent","With Colors",581,4534,0,0
"07iuiut1t9rh",41,"Moderate","Harder than Reference",32,"present","With Colors",488,1803,1,0
"07iuiut1t9rh",42,"Extreme","Easier than Reference",32,"absent","With Colors",429,3326,0,0
"07iuiut1t9rh",43,"Extreme","Harder than Reference",60,"absent","With Colors",584,7077,0,0
"07iuiut1t9rh",46,"Moderate","Easier than Reference",4,"present","With Colors",583,890,0,0
"07iuiut1t9rh",47,"Moderate","Harder than Reference",46,"present","With Colors",701,2697,1,0
"07iuiut1t9rh",48,"Extreme","Harder than Reference",60,"present","With Colors",644,3420,0,0
"07iuiut1t9rh",49,"Moderate","Harder than Reference",46,"present","With Colors",501,2358,0,0
"07iuiut1t9rh",50,"Extreme","Harder than Reference",32,"present","With Colors",617,3325,0,0
"07iuiut1t9rh",51,"Extreme","Easier than Reference",18,"absent","With Colors",832,4655,0,0
"07iuiut1t9rh",52,"Moderate","Easier than Reference",4,"present","With Colors",447,773,0,0
"07iuiut1t9rh",53,"Extreme","Easier than Reference",18,"absent","With Colors",541,2433,0,0
"07iuiut1t9rh",54,"Moderate","Harder than Reference",32,"absent","With Colors",582,2447,0,0
"07iuiut1t9rh",55,"Extreme","Harder than Reference",60,"absent","With Colors",564,6826,0,0
"07iuiut1t9rh",56,"Moderate","Easier than Reference",32,"present","With Colors",677,2032,0,0
"07iuiut1t9rh",57,"Moderate","Easier than Reference",32,"absent","With Colors",462,2253,0,0
"07iuiut1t9rh",58,"Extreme","Harder than Reference",32,"present","With Colors",666,865,0,0
"07iuiut1t9rh",59,"Extreme","Easier than Reference",32,"absent","With Colors",537,2679,0,0
"07iuiut1t9rh",60,"Moderate","Harder than Reference",32,"absent","With Colors",696,3490,0,0
"07iuiut1t9rh",61,"Moderate","Harder than Reference",32,"present","With Colors",632,1027,0,0
"07iuiut1t9rh",62,"Extreme","Harder than Reference",60,"present","With Colors",538,1046,0,0
"07iuiut1t9rh",63,"Moderate","Easier than Reference",32,"present","With Colors",478,943,0,0
"07iuiut1t9rh",64,"Extreme","Easier than Reference",32,"present","With Colors",465,2975,1,0
"07iuiut1t9rh",65,"Extreme","Easier than Reference",32,"present","With Colors",677,2861,0,0
"07iuiut1t9rh",66,"Moderate","Harder than Reference",46,"present","With Colors",461,1697,0,0
"07iuiut1t9rh",67,"Moderate","Easier than Reference",32,"absent","With Colors",403,4358,0,0
"07iuiut1t9rh",68,"Extreme","Harder than Reference",60,"present","With Colors",696,2022,0,0
"07iuiut1t9rh",69,"Moderate","Easier than Reference",4,"absent","With Colors",720,786,0,0
"07iuiut1t9rh",70,"Moderate","Harder than Reference",32,"absent","With Colors",502,2323,0,0
"07iuiut1t9rh",71,"Extreme","Harder than Reference",60,"present","With Colors",627,1962,0,0
"07iuiut1t9rh",72,"Extreme","Easier than Reference",32,"present","With Colors",710,1146,0,0
"07iuiut1t9rh",73,"Extreme","Harder than Reference",60,"absent","With Colors",814,6288,0,0
"07iuiut1t9rh",74,"Moderate","Easier than Reference",4,"absent","With Colors",546,872,0,0
"07iuiut1t9rh",75,"Moderate","Harder than Reference",32,"present","With Colors",569,1773,0,0
"07iuiut1t9rh",76,"Extreme","Easier than Reference",32,"absent","With Colors",683,3154,0,0
"07iuiut1t9rh",77,"Extreme","Easier than Reference",32,"absent","With Colors",537,2030,0,0
"07iuiut1t9rh",78,"Moderate","Easier than Reference",32,"present","With Colors",501,1530,0,0
"07iuiut1t9rh",79,"Moderate","Harder than Reference",32,"absent","With Colors",638,2717,0,0
"07iuiut1t9rh",80,"Extreme","Harder than Reference",60,"absent","With Colors",589,6920,0,0
"07iuiut1t9rh",81,"Extreme","Easier than Reference",32,"absent","With Colors",511,2057,0,0
"07iuiut1t9rh",82,"Moderate","Harder than Reference",46,"present","With Colors",575,3771,1,0
"07iuiut1t9rh",83,"Moderate","Easier than Reference",4,"present","With Colors",329,891,0,0
"07iuiut1t9rh",84,"Extreme","Harder than Reference",60,"absent","With Colors",569,5159,0,0
"07iuiut1t9rh",85,"Moderate","Harder than Reference",32,"present","With Colors",480,2069,0,0
"07iuiut1t9rh",86,"Moderate","Easier than Reference",4,"present","With Colors",550,704,0,0
"07iuiut1t9rh",87,"Extreme","Easier than Reference",18,"absent","With Colors",647,1331,0,0
"07iuiut1t9rh",88,"Extreme","Harder than Reference",46,"present","With Colors",815,1570,0,1
"07iuiut1t9rh",89,"Moderate","Harder than Reference",46,"present","With Colors",743,937,0,0
"07iuiut1t9rh",90,"Extreme","Easier than Reference",32,"absent","With Colors",365,2016,0,0
"07iuiut1t9rh",91,"Extreme","Harder than Reference",32,"present","With Colors",481,792,0,0
"07iuiut1t9rh",92,"Moderate","Easier than Reference",32,"present","With Colors",438,869,0,0
"07iuiut1t9rh",93,"Moderate","Easier than Reference",4,"present","With Colors",416,632,0,0
"07iuiut1t9rh",94,"Extreme","Harder than Reference",60,"present","With Colors",897,740,0,0
"07iuiut1t9rh",95,"Extreme","Easier than Reference",32,"present","With Colors",479,2264,1,0
"07iuiut1t9rh",96,"Moderate","Harder than Reference",46,"present","With Colors",341,2698,0,0
"07iuiut1t9rh",97,"Extreme","Harder than Reference",46,"present","With Colors",332,5143,1,1
"07iuiut1t9rh",98,"Moderate","Easier than Reference",32,"present","With Colors",419,1915,0,0
"07iuiut1t9rh",99,"Moderate","Harder than Reference",39,"present","With Colors",554,1240,0,1
"07iuiut1t9rh",100,"Extreme","Easier than Reference",18,"absent","With Colors",613,2299,0,0
"07iuiut1t9rh",101,"Moderate","Harder than Reference",32,"absent","With Colors",326,3502,0,0
"07iuiut1t9rh",102,"Moderate","Easier than Reference",4,"absent","With Colors",494,1068,0,0
"07iuiut1t9rh",103,"Extreme","Harder than Reference",32,"present","With Colors",666,887,0,0
"07iuiut1t9rh",104,"Extreme","Easier than Reference",18,"present","With Colors",521,1235,0,0
"07iuiut1t9rh",105,"Extreme","Harder than Reference",32,"present","With Colors",473,1002,0,0
"07iuiut1t9rh",106,"Moderate","Easier than Reference",4,"absent","With Colors",961,752,0,0
"07iuiut1t9rh",107,"Moderate","Harder than Reference",46,"absent","With Colors",585,5971,0,0
"07iuiut1t9rh",108,"Extreme","Easier than Reference",18,"present","With Colors",514,1175,0,0
"07iuiut1t9rh",109,"Moderate","Harder than Reference",32,"present","With Colors",301,711,0,0
"07iuiut1t9rh",110,"Moderate","Easier than Reference",32,"present","With Colors",598,2389,1,0
"07iuiut1t9rh",112,"Extreme","Easier than Reference",25,"present","With Colors",327,991,0,1
"07iuiut1t9rh",113,"Extreme","Easier than Reference",32,"absent","With Colors",488,2645,0,0
"07iuiut1t9rh",114,"Moderate","Easier than Reference",4,"present","With Colors",379,924,0,0
"07iuiut1t9rh",115,"Moderate","Harder than Reference",46,"absent","With Colors",400,5879,0,0
"07iuiut1t9rh",116,"Extreme","Harder than Reference",60,"absent","With Colors",477,3740,0,0
"07iuiut1t9rh",117,"Extreme","Harder than Reference",32,"absent","With Colors",326,2631,0,0
"07iuiut1t9rh",118,"Moderate","Easier than Reference",4,"present","With Colors",517,593,0,0
"07iuiut1t9rh",119,"Moderate","Harder than Reference",32,"present","With Colors",360,965,0,0
"07iuiut1t9rh",120,"Extreme","Easier than Reference",18,"absent","With Colors",702,1571,0,0
"07iuiut1t9rh",122,"Moderate","Harder than Reference",46,"absent","With Colors",593,4811,0,0
"07iuiut1t9rh",123,"Extreme","Harder than Reference",32,"present","With Colors",503,1111,0,0
"07iuiut1t9rh",124,"Extreme","Easier than Reference",32,"present","With Colors",417,1126,0,0
"07iuiut1t9rh",128,"Moderate","Harder than Reference",46,"present","With Colors",775,3190,0,0
"07iuiut1t9rh",130,"Extreme","Easier than Reference",25,"absent","With Colors",349,3652,0,1
"07iuiut1t9rh",131,"Moderate","Harder than Reference",46,"absent","With Colors",492,6948,0,0
"07iuiut1t9rh",132,"Extreme","Harder than Reference",46,"present","With Colors",380,1830,0,1
"07iuiut1t9rh",135,"Extreme","Harder than Reference",46,"absent","With Colors",347,5440,0,1
"07iuiut1t9rh",136,"Moderate","Easier than Reference",4,"present","With Colors",710,952,0,0
"07iuiut1t9rh",137,"Moderate","Easier than Reference",18,"present","With Colors",340,919,1,1
"07iuiut1t9rh",139,"Extreme","Easier than Reference",32,"present","With Colors",327,2962,0,0
"07iuiut1t9rh",140,"Moderate","Harder than Reference",46,"present","With Colors",521,3319,0,0
"07iuiut1t9rh",141,"Extreme","Harder than Reference",32,"absent","With Colors",487,4620,0,0
"07iuiut1t9rh",142,"Extreme","Easier than Reference",18,"absent","With Colors",451,1668,0,0
"07iuiut1t9rh",143,"Moderate","Easier than Reference",4,"present","With Colors",464,761,0,0
"07iuiut1t9rh",144,"Moderate","Harder than Reference",32,"absent","With Colors",619,3059,0,0
"07iuiut1t9rh",145,"Moderate","Easier than Reference",32,"absent","With Colors",923,4140,0,0
"07iuiut1t9rh",146,"Extreme","Easier than Reference",18,"present","With Colors",435,1184,0,0
"07iuiut1t9rh",147,"Extreme","Harder than Reference",60,"absent","With Colors",481,6596,1,0
"07iuiut1t9rh",148,"Moderate","Harder than Reference",39,"present","With Colors",574,899,0,1
"07iuiut1t9rh",149,"Moderate","Easier than Reference",18,"absent","With Colors",956,1682,0,1
"07iuiut1t9rh",150,"Extreme","Harder than Reference",32,"present","With Colors",512,842,0,0
"07iuiut1t9rh",151,"Extreme","Easier than Reference",18,"absent","With Colors",503,1387,0,0
"07iuiut1t9rh",152,"Moderate","Harder than Reference",39,"absent","With Colors",575,1621,0,1
"07iuiut1t9rh",155,"Extreme","Harder than Reference",46,"absent","With Colors",573,2628,0,1
"07iuiut1t9rh",160,"Moderate","Easier than Reference",4,"absent","With Colors",364,694,0,0
"07iuiut1t9rh",161,"Extreme","Harder than Reference",46,"absent","With Colors",340,3610,0,1
"07iuiut1t9rh",174,"Moderate","Harder than Reference",32,"absent","With Colors",319,3651,0,0
"07iuiut1t9rh",185,"Extreme","Easier than Reference",32,"present","With Colors",463,1014,0,0
"07iuiut1t9rh",189,"Extreme","Harder than Reference",32,"absent","With Colors",487,2677,0,0
"07iuiut1t9rh",198,"Moderate","Harder than Reference",32,"absent","With Colors",377,1713,0,0
"07iuiut1t9rh",202,"Extreme","Harder than Reference",46,"absent","With Colors",417,5742,0,1
"07iuiut1t9rh",208,"Extreme","Harder than Reference",60,"present","With Colors",461,4862,0,0
"07iuiut1t9rh",210,"Extreme","Harder than Reference",46,"absent","With Colors",338,3274,0,1
"07iuiut1t9rh",211,"Extreme","Easier than Reference",32,"present","With Colors",466,1646,0,0
"07iuiut1t9rh",212,"Moderate","Easier than Reference",18,"absent","With Colors",442,1779,0,1
"07iuiut1t9rh",213,"Moderate","Easier than Reference",4,"present","With Colors",513,640,0,0
"07iuiut1t9rh",214,"Extreme","Easier than Reference",32,"present","With Colors",596,1222,0,0
"07iuiut1t9rh",215,"Moderate","Harder than Reference",46,"absent","With Colors",753,6109,0,0
"07iuiut1t9rh",216,"Extreme","Harder than Reference",46,"present","With Colors",869,2920,0,1
"07iuiut1t9rh",217,"Extreme","Harder than Reference",60,"present","With Colors",602,4086,1,0
"07iuiut1t9rh",220,"Moderate","Harder than Reference",39,"present","With Colors",564,1938,1,1
"07iuiut1t9rh",222,"Extreme","Harder than Reference",46,"present","With Colors",538,1136,0,1
"07iuiut1t9rh",223,"Extreme","Easier than Reference",18,"present","With Colors",333,691,0,0
"07iuiut1t9rh",224,"Moderate","Easier than Reference",18,"present","With Colors",512,930,0,1
"07iuiut1t9rh",226,"Extreme","Easier than Reference",25,"present","With Colors",562,1051,0,1
"07iuiut1t9rh",227,"Extreme","Harder than Reference",46,"present","With Colors",532,3225,1,1
"07iuiut1t9rh",229,"Extreme","Easier than Reference",25,"present","With Colors",424,1512,0,1
"07iuiut1t9rh",230,"Moderate","Easier than Reference",4,"present","With Colors",583,995,0,0
"07iuiut1t9rh",231,"Extreme","Harder than Reference",32,"absent","With Colors",826,2269,0,0
"07iuiut1t9rh",232,"Moderate","Harder than Reference",46,"absent","With Colors",528,2629,0,0
"07iuiut1t9rh",233,"Extreme","Easier than Reference",18,"present","With Colors",759,1298,0,0
"07iuiut1t9rh",234,"Moderate","Harder than Reference",46,"absent","With Colors",712,3150,0,0
"07iuiut1t9rh",235,"Extreme","Harder than Reference",32,"absent","With Colors",532,2094,0,0
"07iuiut1t9rh",236,"Moderate","Easier than Reference",32,"present","With Colors",696,1569,0,0
"07iuiut1t9rh",237,"Extreme","Harder than Reference",32,"absent","With Colors",643,1576,0,0
"07iuiut1t9rh",238,"Moderate","Easier than Reference",4,"absent","With Colors",453,717,0,0
"07iuiut1t9rh",239,"Extreme","Easier than Reference",18,"present","With Colors",515,900,0,0
"07iuiut1t9rh",240,"Moderate","Harder than Reference",32,"absent","With Colors",621,1517,0,0
"07iuiut1t9rh",241,"Extreme","Easier than Reference",32,"absent","With Colors",437,1881,0,0
"07iuiut1t9rh",242,"Moderate","Easier than Reference",4,"present","With Colors",399,721,0,0
"07iuiut1t9rh",243,"Extreme","Harder than Reference",32,"present","With Colors",690,982,0,0
"07iuiut1t9rh",244,"Moderate","Harder than Reference",32,"absent","With Colors",449,2112,0,0
"07iuiut1t9rh",245,"Moderate","Harder than Reference",32,"absent","With Colors",740,2717,0,0
"07iuiut1t9rh",246,"Moderate","Easier than Reference",32,"present","With Colors",614,1074,0,0
"07iuiut1t9rh",247,"Extreme","Easier than Reference",32,"absent","With Colors",510,2264,0,0
"07iuiut1t9rh",248,"Extreme","Harder than Reference",60,"absent","With Colors",628,4225,0,0
"07iuiut1t9rh",249,"Extreme","Harder than Reference",60,"present","With Colors",722,1892,0,0
"07iuiut1t9rh",250,"Moderate","Harder than Reference",46,"absent","With Colors",472,3804,0,0
"07iuiut1t9rh",251,"Extreme","Easier than Reference",32,"absent","With Colors",415,1971,0,0
"07iuiut1t9rh",252,"Moderate","Easier than Reference",32,"present","With Colors",359,863,0,0
"07iuiut1t9rh",253,"Extreme","Easier than Reference",18,"present","With Colors",627,856,0,0
"07iuiut1t9rh",254,"Moderate","Harder than Reference",32,"absent","With Colors",669,1726,0,0
"07iuiut1t9rh",255,"Extreme","Harder than Reference",60,"present","With Colors",436,2252,0,0
"07iuiut1t9rh",256,"Moderate","Easier than Reference",4,"absent","With Colors",509,726,0,0
"07iuiut1t9rh",257,"Extreme","Harder than Reference",60,"absent","With Colors",461,3226,0,0
"07iuiut1t9rh",258,"Extreme","Easier than Reference",18,"present","With Colors",471,1033,0,0
"07iuiut1t9rh",259,"Moderate","Easier than Reference",4,"absent","With Colors",569,952,0,0
"07iuiut1t9rh",260,"Moderate","Harder than Reference",32,"present","With Colors",660,1062,0,0
"07iuiut1t9rh",261,"Extreme","Harder than Reference",32,"absent","With Colors",684,1170,0,0
"07iuiut1t9rh",262,"Extreme","Easier than Reference",32,"absent","With Colors",525,1338,0,0
"07iuiut1t9rh",263,"Moderate","Harder than Reference",32,"present","With Colors",432,1582,0,0
"07iuiut1t9rh",264,"Moderate","Easier than Reference",32,"absent","With Colors",401,1476,0,0
"07iuiut1t9rh",266,"Moderate","Harder than Reference",32,"present","With Colors",583,1593,1,0
"07iuiut1t9rh",267,"Extreme","Harder than Reference",32,"present","With Colors",569,1141,0,0
"07iuiut1t9rh",271,"Extreme","Harder than Reference",32,"present","With Colors",873,1312,0,0
"07iuiut1t9rh",272,"Extreme","Easier than Reference",32,"absent","With Colors",730,2109,0,0
"07iuiut1t9rh",273,"Extreme","Harder than Reference",32,"present","With Colors",433,1068,0,0
"07iuiut1t9rh",274,"Moderate","Easier than Reference",4,"absent","With Colors",420,661,0,0
"07iuiut1t9rh",275,"Moderate","Harder than Reference",46,"absent","With Colors",642,2762,0,0
"07iuiut1t9rh",278,"Moderate","Easier than Reference",32,"present","With Colors",302,1716,0,0
"07iuiut1t9rh",279,"Moderate","Harder than Reference",39,"absent","With Colors",496,2325,0,1
"07iuiut1t9rh",283,"Extreme","Easier than Reference",18,"present","With Colors",367,1227,0,0
"07iuiut1t9rh",284,"Moderate","Easier than Reference",32,"absent","With Colors",515,1662,0,0
"07iuiut1t9rh",286,"Extreme","Harder than Reference",60,"absent","With Colors",720,3337,0,0
"07iuiut1t9rh",287,"Extreme","Easier than Reference",32,"absent","With Colors",801,1904,0,0
"07iuiut1t9rh",288,"Moderate","Harder than Reference",32,"present","With Colors",575,1474,0,0
"07iuiut1t9rh",291,"Extreme","Easier than Reference",18,"absent","With Colors",460,812,0,0
"07iuiut1t9rh",292,"Extreme","Harder than Reference",60,"present","With Colors",494,3516,1,0
"07iuiut1t9rh",294,"Moderate","Easier than Reference",32,"present","With Colors",623,1576,0,0
"07iuiut1t9rh",295,"Extreme","Easier than Reference",18,"absent","With Colors",502,1534,0,0
"07iuiut1t9rh",296,"Extreme","Harder than Reference",60,"present","With Colors",631,5364,1,0
"07iuiut1t9rh",301,"Moderate","Easier than Reference",32,"present","With Colors",484,1914,0,0
"07iuiut1t9rh",302,"Extreme","Easier than Reference",25,"present","With Colors",305,871,0,1
"07iuiut1t9rh",303,"Extreme","Harder than Reference",32,"present","With Colors",541,1107,0,0
"07iuiut1t9rh",304,"Moderate","Harder than Reference",32,"absent","With Colors",687,2724,0,0
"07iuiut1t9rh",305,"Moderate","Easier than Reference",4,"absent","With Colors",417,898,0,0
"07iuiut1t9rh",306,"Moderate","Harder than Reference",46,"present","With Colors",651,2244,0,0
"07iuiut1t9rh",307,"Extreme","Easier than Reference",18,"present","With Colors",526,1461,0,0
"07iuiut1t9rh",308,"Extreme","Harder than Reference",46,"present","With Colors",612,3019,0,1
"0d478aphxuc7",7,"Extreme","Easier than Reference",18,"absent","Without Colors",1300,2077,0,0
"0d478aphxuc7",11,"Extreme","Easier than Reference",32,"present","Without Colors",1108,1422,0,0
"0d478aphxuc7",13,"Moderate","Easier than Reference",4,"absent","Without Colors",771,1079,0,0
"0d478aphxuc7",14,"Extreme","Easier than Reference",25,"present","Without Colors",1281,1666,0,1
"0d478aphxuc7",15,"Extreme","Harder than Reference",46,"absent","Without Colors",1384,3031,0,1
"0d478aphxuc7",16,"Moderate","Harder than Reference",39,"absent","Without Colors",1122,4662,1,1
"0d478aphxuc7",17,"Extreme","Easier than Reference",25,"absent","Without Colors",1036,4064,0,1
"0d478aphxuc7",18,"Extreme","Harder than Reference",46,"present","Without Colors",852,1836,0,1
"0d478aphxuc7",19,"Moderate","Harder than Reference",39,"present","Without Colors",1183,4089,0,1
"0d478aphxuc7",21,"Extreme","Harder than Reference",46,"absent","Without Colors",912,6076,0,1
"0d478aphxuc7",22,"Moderate","Easier than Reference",4,"present","Without Colors",1153,1080,0,0
"0d478aphxuc7",23,"Moderate","Harder than Reference",32,"present","Without Colors",1084,1430,0,0
"0d478aphxuc7",24,"Extreme","Easier than Reference",32,"absent","Without Colors",1402,2200,0,0
"0d478aphxuc7",25,"Extreme","Harder than Reference",46,"absent","Without Colors",1048,3595,0,1
"0d478aphxuc7",26,"Extreme","Easier than Reference",32,"absent","Without Colors",737,1895,0,0
"0d478aphxuc7",27,"Moderate","Harder than Reference",39,"absent","Without Colors",914,2451,0,1
"0d478aphxuc7",28,"Moderate","Easier than Reference",4,"present","Without Colors",651,787,0,0
"0d478aphxuc7",29,"Extreme","Easier than Reference",25,"present","Without Colors",822,1176,0,1
"0d478aphxuc7",30,"Moderate","Harder than Reference",39,"absent","Without Colors",820,3433,0,1
"0d478aphxuc7",31,"Extreme","Harder than Reference",32,"absent","Without Colors",574,1901,0,0
"0d478aphxuc7",32,"Moderate","Easier than Reference",18,"present","Without Colors",635,976,0,1
"0d478aphxuc7",33,"Extreme","Harder than Reference",32,"present","Without Colors",571,2097,0,0
"0d478aphxuc7",34,"Moderate","Harder than Reference",39,"absent","Without Colors",484,4087,0,1
"0d478aphxuc7",35,"Moderate","Easier than Reference",32,"absent","Without Colors",708,1867,0,0
"0d478aphxuc7",36,"Extreme","Easier than Reference",18,"present","Without Colors",815,895,0,0
"0d478aphxuc7",37,"Moderate","Harder than Reference",46,"absent","Without Colors",1180,3068,0,0
"0d478aphxuc7",38,"Moderate","Easier than Reference",18,"absent","Without Colors",378,1539,0,1
"0d478aphxuc7",39,"Extreme","Harder than Reference",32,"absent","Without Colors",826,2129,0,0
"0d478aphxuc7",40,"Extreme","Easier than Reference",18,"present","Without Colors",647,1193,0,0
"0d478aphxuc7",41,"Moderate","Easier than Reference",4,"present","Without Colors",498,1224,0,0
"0d478aphxuc7",42,"Extreme","Easier than Reference",18,"present","Without Colors",500,1107,0,0
"0d478aphxuc7",43,"Moderate","Harder than Reference",32,"present","Without Colors",529,1857,1,0
"0d478aphxuc7",44,"Extreme","Harder than Reference",46,"absent","Without Colors",806,2424,0,1
"0d478aphxuc7",45,"Moderate","Harder than Reference",32,"present","Without Colors",770,2722,1,0
"0d478aphxuc7",46,"Moderate","Easier than Reference",32,"absent","Without Colors",568,1648,0,0
"0d478aphxuc7",47,"Extreme","Harder than Reference",60,"present","Without Colors",710,1045,0,0
"0d478aphxuc7",48,"Extreme","Easier than Reference",18,"absent","Without Colors",549,1127,0,0
"0d478aphxuc7",49,"Extreme","Harder than Reference",60,"absent","Without Colors",741,1589,0,0
"0d478aphxuc7",50,"Extreme","Easier than Reference",25,"absent","Without Colors",557,1645,0,1
"0d478aphxuc7",51,"Moderate","Harder than Reference",32,"absent","Without Colors",745,1177,0,0
"0d478aphxuc7",52,"Moderate","Easier than Reference",18,"absent","Without Colors",506,1153,0,1
"0d478aphxuc7",53,"Extreme","Easier than Reference",32,"present","Without Colors",611,1498,0,0
"0d478aphxuc7",54,"Moderate","Easier than Reference",18,"absent","Without Colors",513,1609,0,1
"0d478aphxuc7",55,"Extreme","Harder than Reference",32,"absent","Without Colors",844,1487,0,0
"0d478aphxuc7",56,"Moderate","Harder than Reference",32,"absent","Without Colors",877,1073,0,0
"0d478aphxuc7",57,"Moderate","Harder than Reference",32,"present","Without Colors",877,1516,0,0
"0d478aphxuc7",58,"Moderate","Easier than Reference",18,"present","Without Colors",942,1265,0,1
"0d478aphxuc7",59,"Extreme","Easier than Reference",18,"absent","Without Colors",739,1156,0,0
"0d478aphxuc7",60,"Extreme","Harder than Reference",46,"absent","Without Colors",799,1359,0,1
"0d478aphxuc7",61,"Extreme","Easier than Reference",32,"present","Without Colors",656,1527,0,0
"0d478aphxuc7",62,"Moderate","Easier than Reference",18,"absent","Without Colors",531,1066,0,1
"0d478aphxuc7",63,"Moderate","Harder than Reference",46,"present","Without Colors",1123,1892,0,0
"0d478aphxuc7",64,"Extreme","Harder than Reference",46,"present","Without Colors",497,977,0,1
"0d478aphxuc7",65,"Extreme","Harder than Reference",32,"present","Without Colors",939,2027,0,0
"0d478aphxuc7",66,"Moderate","Easier than Reference",32,"absent","Without Colors",561,2376,0,0
"0d478aphxuc7",67,"Moderate","Harder than Reference",39,"present","Without Colors",464,1371,0,1
"0d478aphxuc7",68,"Extreme","Easier than Reference",25,"absent","Without Colors",677,1748,0,1
"0d478aphxuc7",69,"Moderate","Harder than Reference",39,"absent","Without Colors",857,1786,0,1
"0d478aphxuc7",70,"Extreme","Harder than Reference",46,"present","Without Colors",1041,1598,0,1
"0d478aphxuc7",71,"Moderate","Easier than Reference",4,"present","Without Colors",831,810,0,0
"0d478aphxuc7",72,"Extreme","Easier than Reference",32,"absent","Without Colors",584,2014,0,0
"0d478aphxuc7",73,"Extreme","Harder than Reference",60,"absent","Without Colors",865,3060,0,0
"0d478aphxuc7",74,"Extreme","Easier than Reference",25,"absent","Without Colors",668,1140,0,1
"0d478aphxuc7",75,"Moderate","Easier than Reference",18,"absent","Without Colors",498,1808,0,1
"0d478aphxuc7",76,"Moderate","Harder than Reference",32,"present","Without Colors",664,1005,0,0
"0d478aphxuc7",77,"Extreme","Harder than Reference",60,"present","Without Colors",908,1416,0,0
"0d478aphxuc7",78,"Extreme","Easier than Reference",32,"absent","Without Colors",563,2112,0,0
"0d478aphxuc7",79,"Moderate","Harder than Reference",39,"present","Without Colors",497,885,0,1
"0d478aphxuc7",80,"Moderate","Easier than Reference",32,"present","Without Colors",514,1502,0,0
"0d478aphxuc7",81,"Extreme","Harder than Reference",32,"present","Without Colors",487,1492,0,0
"0d478aphxuc7",82,"Moderate","Harder than Reference",39,"absent","Without Colors",742,2513,0,1
"0d478aphxuc7",83,"Extreme","Easier than Reference",25,"absent","Without Colors",412,1230,0,1
"0d478aphxuc7",84,"Moderate","Easier than Reference",4,"present","Without Colors",681,609,0,0
"0d478aphxuc7",85,"Moderate","Easier than Reference",18,"present","Without Colors",457,1576,0,1
"0d478aphxuc7",86,"Moderate","Harder than Reference",39,"present","Without Colors",667,1006,0,1
"0d478aphxuc7",87,"Extreme","Easier than Reference",25,"absent","Without Colors",580,1119,0,1
"0d478aphxuc7",88,"Extreme","Harder than Reference",32,"absent","Without Colors",1080,3290,0,0
"0d478aphxuc7",89,"Moderate","Harder than Reference",39,"present","Without Colors",1237,930,0,1
"0d478aphxuc7",90,"Extreme","Harder than Reference",46,"absent","Without Colors",944,1820,0,1
"0d478aphxuc7",91,"Extreme","Easier than Reference",25,"absent","Without Colors",418,1659,0,1
"0d478aphxuc7",92,"Moderate","Easier than Reference",4,"present","Without Colors",421,709,0,0
"0d478aphxuc7",93,"Extreme","Harder than Reference",32,"absent","Without Colors",740,1399,0,0
"0d478aphxuc7",94,"Extreme","Easier than Reference",25,"present","Without Colors",490,941,0,1
"0d478aphxuc7",95,"Moderate","Harder than Reference",39,"present","Without Colors",960,1182,1,1
"0d478aphxuc7",96,"Moderate","Easier than Reference",18,"present","Without Colors",719,649,0,1
"0d478aphxuc7",97,"Moderate","Harder than Reference",39,"present","Without Colors",769,1501,1,1
"0d478aphxuc7",98,"Extreme","Harder than Reference",60,"present","Without Colors",680,2085,1,0
"0d478aphxuc7",99,"Extreme","Easier than Reference",18,"present","Without Colors",567,793,0,0
"0d478aphxuc7",100,"Moderate","Easier than Reference",18,"present","Without Colors",654,1575,0,1
"0d478aphxuc7",101,"Moderate","Easier than Reference",18,"absent","Without Colors",516,1491,0,1
"0d478aphxuc7",102,"Extreme","Harder than Reference",60,"absent","Without Colors",943,4150,0,0
"0d478aphxuc7",103,"Extreme","Easier than Reference",25,"absent","Without Colors",543,1702,0,1
"0d478aphxuc7",104,"Moderate","Harder than Reference",39,"present","Without Colors",812,1308,1,1
"0d478aphxuc7",105,"Moderate","Easier than Reference",18,"present","Without Colors",636,899,0,1
"0d478aphxuc7",106,"Moderate","Harder than Reference",32,"absent","Without Colors",915,1111,0,0
"0d478aphxuc7",107,"Extreme","Harder than Reference",32,"absent","Without Colors",734,1900,0,0
"0d478aphxuc7",108,"Extreme","Easier than Reference",25,"present","Without Colors",572,793,0,1
"0d478aphxuc7",109,"Extreme","Harder than Reference",60,"absent","Without Colors",877,3379,0,0
"0d478aphxuc7",110,"Moderate","Harder than Reference",39,"present","Without Colors",863,1955,1,1
"0d478aphxuc7",111,"Extreme","Easier than Reference",18,"absent","Without Colors",533,1256,0,0
"0d478aphxuc7",112,"Moderate","Easier than Reference",18,"absent","Without Colors",602,982,0,1
"0d478aphxuc7",113,"Moderate","Easier than Reference",4,"absent","Without Colors",543,802,0,0
"0d478aphxuc7",114,"Moderate","Harder than Reference",46,"present","Without Colors",687,2978,0,0
"0d478aphxuc7",115,"Extreme","Easier than Reference",32,"absent","Without Colors",504,1735,0,0
"0d478aphxuc7",116,"Extreme","Harder than Reference",32,"absent","Without Colors",873,2207,0,0
"0d478aphxuc7",117,"Moderate","Harder than Reference",32,"absent","Without Colors",414,1244,0,0
"0d478aphxuc7",118,"Extreme","Harder than Reference",60,"absent","Without Colors",822,6253,0,0
"0d478aphxuc7",119,"Moderate","Easier than Reference",32,"present","Without Colors",494,920,0,0
"0d478aphxuc7",120,"Extreme","Easier than Reference",25,"absent","Without Colors",535,1428,0,1
"0d478aphxuc7",121,"Extreme","Harder than Reference",32,"absent","Without Colors",802,1571,0,0
"0d478aphxuc7",122,"Extreme","Easier than Reference",32,"absent","Without Colors",1358,1101,0,0
"0d478aphxuc7",123,"Moderate","Easier than Reference",18,"absent","Without Colors",550,862,0,1
"0d478aphxuc7",124,"Moderate","Harder than Reference",32,"present","Without Colors",950,1890,1,0
"0d478aphxuc7",125,"Extreme","Harder than Reference",60,"absent","Without Colors",745,2878,0,0
"0d478aphxuc7",126,"Moderate","Harder than Reference",46,"absent","Without Colors",769,3379,0,0
"0d478aphxuc7",127,"Moderate","Easier than Reference",18,"present","Without Colors",531,945,0,1
"0d478aphxuc7",128,"Extreme","Easier than Reference",18,"present","Without Colors",579,1079,0,0
"0d478aphxuc7",129,"Extreme","Easier than Reference",18,"absent","Without Colors",651,1881,0,0
"0d478aphxuc7",130,"Moderate","Easier than Reference",32,"present","Without Colors",766,1081,0,0
"0d478aphxuc7",131,"Moderate","Harder than Reference",46,"present","Without Colors",813,1679,1,0
"0d478aphxuc7",132,"Extreme","Harder than Reference",60,"absent","Without Colors",782,4164,0,0
"0d478aphxuc7",133,"Moderate","Easier than Reference",18,"present","Without Colors",1433,1221,0,1
"0d478aphxuc7",134,"Extreme","Harder than Reference",60,"present","Without Colors",696,1354,1,0
"0d478aphxuc7",135,"Moderate","Harder than Reference",46,"present","Without Colors",638,2342,1,0
"0d478aphxuc7",136,"Extreme","Easier than Reference",25,"present","Without Colors",838,942,0,1
"0d478aphxuc7",137,"Moderate","Easier than Reference",4,"absent","Without Colors",790,673,0,0
"0d478aphxuc7",138,"Moderate","Harder than Reference",39,"present","Without Colors",860,1366,0,1
"0d478aphxuc7",139,"Extreme","Harder than Reference",32,"absent","Without Colors",745,1703,0,0
"0d478aphxuc7",140,"Extreme","Easier than Reference",32,"absent","Without Colors",539,1593,0,0
"0d478aphxuc7",141,"Extreme","Easier than Reference",32,"present","Without Colors",680,1360,0,0
"0d478aphxuc7",142,"Extreme","Harder than Reference",46,"absent","Without Colors",845,2092,0,1
"0d478aphxuc7",143,"Moderate","Harder than Reference",32,"present","Without Colors",778,2150,0,0
"0d478aphxuc7",144,"Moderate","Easier than Reference",4,"absent","Without Colors",559,545,0,0
"0d478aphxuc7",145,"Extreme","Harder than Reference",32,"present","Without Colors",690,1401,0,0
"0d478aphxuc7",146,"Moderate","Easier than Reference",18,"present","Without Colors",591,861,0,1
"0d478aphxuc7",147,"Moderate","Harder than Reference",46,"absent","Without Colors",867,2631,0,0
"0d478aphxuc7",148,"Extreme","Easier than Reference",18,"present","Without Colors",469,786,0,0
"0d478aphxuc7",149,"Moderate","Harder than Reference",32,"present","Without Colors",671,1659,0,0
"0d478aphxuc7",150,"Extreme","Harder than Reference",60,"absent","Without Colors",803,1814,0,0
"0d478aphxuc7",151,"Moderate","Easier than Reference",32,"absent","Without Colors",385,1470,0,0
"0d478aphxuc7",152,"Extreme","Easier than Reference",32,"present","Without Colors",473,1514,0,0
"0d478aphxuc7",153,"Moderate","Harder than Reference",39,"absent","Without Colors",762,2613,0,1
"0d478aphxuc7",154,"Moderate","Easier than Reference",4,"absent","Without Colors",422,735,0,0
"0d478aphxuc7",156,"Extreme","Easier than Reference",32,"absent","Without Colors",1020,1229,0,0
"0d478aphxuc7",157,"Moderate","Harder than Reference",32,"absent","Without Colors",1367,1017,0,0
"0d478aphxuc7",158,"Extreme","Harder than Reference",32,"absent","Without Colors",728,2065,0,0
"0d478aphxuc7",159,"Moderate","Easier than Reference",4,"absent","Without Colors",559,645,0,0
"0d478aphxuc7",160,"Extreme","Easier than Reference",32,"absent","Without Colors",662,908,0,0
"0d478aphxuc7",161,"Moderate","Harder than Reference",39,"absent","Without Colors",799,1365,0,1
"0d478aphxuc7",162,"Extreme","Easier than Reference",18,"absent","Without Colors",896,955,0,0
"0d478aphxuc7",163,"Moderate","Easier than Reference",4,"present","Without Colors",742,677,0,0
"0d478aphxuc7",164,"Extreme","Harder than Reference",32,"absent","Without Colors",629,1048,0,0
"0d478aphxuc7",165,"Moderate","Harder than Reference",39,"present","Without Colors",1175,1477,0,1
"0d478aphxuc7",166,"Extreme","Harder than Reference",32,"present","Without Colors",565,1188,0,0
"0d478aphxuc7",167,"Moderate","Easier than Reference",4,"present","Without Colors",467,672,0,0
"0d478aphxuc7",168,"Extreme","Easier than Reference",25,"absent","Without Colors",786,1153,0,1
"0d478aphxuc7",169,"Moderate","Harder than Reference",32,"absent","Without Colors",639,1106,0,0
"0d478aphxuc7",170,"Moderate","Easier than Reference",18,"absent","Without Colors",454,1514,0,1
"0d478aphxuc7",171,"Extreme","Harder than Reference",60,"absent","Without Colors",600,2764,0,0
"0d478aphxuc7",172,"Extreme","Easier than Reference",18,"present","Without Colors",440,843,0,0
"0d478aphxuc7",173,"Moderate","Harder than Reference",46,"absent","Without Colors",508,1684,0,0
"0d478aphxuc7",174,"Extreme","Easier than Reference",25,"absent","Without Colors",303,1506,0,1
"0d478aphxuc7",175,"Moderate","Easier than Reference",32,"absent","Without Colors",856,1546,0,0
"0d478aphxuc7",176,"Extreme","Harder than Reference",46,"absent","Without Colors",334,1301,0,1
"0d478aphxuc7",177,"Moderate","Harder than Reference",46,"absent","Without Colors",643,1603,0,0
"0d478aphxuc7",178,"Extreme","Easier than Reference",18,"present","Without Colors",636,929,0,0
"0d478aphxuc7",179,"Extreme","Harder than Reference",46,"absent","Without Colors",583,734,0,1
"0d478aphxuc7",180,"Moderate","Easier than Reference",18,"present","Without Colors",451,596,0,1
"0d478aphxuc7",181,"Moderate","Easier than Reference",4,"absent","Without Colors",567,547,0,0
"0d478aphxuc7",182,"Moderate","Harder than Reference",46,"present","Without Colors",497,1504,0,0
"0d478aphxuc7",183,"Extreme","Easier than Reference",25,"absent","Without Colors",499,1461,0,1
"0d478aphxuc7",184,"Extreme","Harder than Reference",46,"absent","Without Colors",438,1351,0,1
"0d478aphxuc7",185,"Extreme","Harder than Reference",46,"present","Without Colors",389,1365,0,1
"0d478aphxuc7",186,"Extreme","Easier than Reference",18,"absent","Without Colors",866,666,0,0
"0d478aphxuc7",187,"Moderate","Easier than Reference",18,"absent","Without Colors",399,1002,0,1
"0d478aphxuc7",188,"Moderate","Harder than Reference",46,"absent","Without Colors",652,769,0,0
"0d478aphxuc7",189,"Moderate","Harder than Reference",46,"present","Without Colors",650,2135,1,0
"0d478aphxuc7",191,"Moderate","Easier than Reference",18,"absent","Without Colors",517,730,0,1
"0d478aphxuc7",192,"Extreme","Harder than Reference",46,"present","Without Colors",569,794,0,1
"0d478aphxuc7",193,"Moderate","Harder than Reference",32,"present","Without Colors",414,933,0,0
"0d478aphxuc7",194,"Moderate","Easier than Reference",18,"absent","Without Colors",460,1085,0,1
"0d478aphxuc7",195,"Extreme","Harder than Reference",32,"present","Without Colors",726,815,0,0
"0d478aphxuc7",196,"Extreme","Easier than Reference",18,"absent","Without Colors",472,818,0,0
"0d478aphxuc7",197,"Extreme","Easier than Reference",25,"present","Without Colors",501,1039,0,1
"0d478aphxuc7",198,"Extreme","Harder than Reference",46,"absent","Without Colors",350,978,0,1
"0d478aphxuc7",199,"Moderate","Easier than Reference",32,"absent","Without Colors",678,843,0,0
"0d478aphxuc7",200,"Moderate","Harder than Reference",39,"present","Without Colors",630,1578,0,1
"0d478aphxuc7",201,"Extreme","Easier than Reference",25,"absent","Without Colors",508,1151,1,1
"0d478aphxuc7",202,"Moderate","Easier than Reference",4,"present","Without Colors",798,816,0,0
"0d478aphxuc7",203,"Extreme","Harder than Reference",46,"absent","Without Colors",519,1295,0,1
"0d478aphxuc7",204,"Moderate","Harder than Reference",32,"absent","Without Colors",684,969,0,0
"0d478aphxuc7",205,"Moderate","Easier than Reference",18,"present","Without Colors",592,1031,0,1
"0d478aphxuc7",206,"Extreme","Harder than Reference",60,"present","Without Colors",908,1622,1,0
"0d478aphxuc7",207,"Moderate","Harder than Reference",39,"absent","Without Colors",405,1528,0,1
"0d478aphxuc7",208,"Extreme","Easier than Reference",25,"absent","Without Colors",344,814,0,1
"0d478aphxuc7",209,"Extreme","Easier than Reference",25,"absent","Without Colors",378,936,0,1
"0d478aphxuc7",210,"Moderate","Easier than Reference",18,"absent","Without Colors",504,1218,0,1
"0d478aphxuc7",211,"Extreme","Harder than Reference",46,"present","Without Colors",361,873,1,1
"0d478aphxuc7",212,"Moderate","Harder than Reference",46,"absent","Without Colors",530,1620,0,0
"0d478aphxuc7",214,"Moderate","Easier than Reference",18,"absent","Without Colors",350,1183,0,1
"0d478aphxuc7",215,"Extreme","Easier than Reference",18,"present","Without Colors",351,818,0,0
"0d478aphxuc7",216,"Extreme","Harder than Reference",60,"absent","Without Colors",806,1597,0,0
"0d478aphxuc7",217,"Moderate","Harder than Reference",32,"absent","Without Colors",352,1015,0,0
"0d478aphxuc7",218,"Moderate","Easier than Reference",18,"absent","Without Colors",356,929,0,1
"0d478aphxuc7",219,"Extreme","Easier than Reference",25,"present","Without Colors",419,735,0,1
"0d478aphxuc7",220,"Extreme","Harder than Reference",46,"absent","Without Colors",309,1414,0,1
"0d478aphxuc7",222,"Extreme","Easier than Reference",18,"present","Without Colors",346,1276,0,0
"0d478aphxuc7",223,"Moderate","Easier than Reference",4,"present","Without Colors",310,689,0,0
"0d478aphxuc7",224,"Moderate","Harder than Reference",32,"present","Without Colors",421,1094,1,0
"0d478aphxuc7",225,"Moderate","Harder than Reference",46,"present","Without Colors",580,1421,0,0
"0d478aphxuc7",226,"Moderate","Easier than Reference",18,"present","Without Colors",554,808,0,1
"0d478aphxuc7",227,"Extreme","Easier than Reference",25,"present","Without Colors",391,730,0,1
"0d478aphxuc7",228,"Extreme","Harder than Reference",46,"absent","Without Colors",334,1017,0,1
"0d478aphxuc7",229,"Extreme","Easier than Reference",32,"absent","Without Colors",856,1056,0,0
"0d478aphxuc7",230,"Extreme","Harder than Reference",32,"absent","Without Colors",436,1133,0,0
"0d478aphxuc7",231,"Moderate","Harder than Reference",32,"present","Without Colors",475,702,0,0
"0d478aphxuc7",232,"Moderate","Easier than Reference",18,"present","Without Colors",446,588,0,1
"0d478aphxuc7",233,"Moderate","Harder than Reference",32,"absent","Without Colors",725,1070,0,0
"0d478aphxuc7",234,"Extreme","Harder than Reference",46,"present","Without Colors",645,816,0,1
"0d478aphxuc7",235,"Extreme","Easier than Reference",25,"present","Without Colors",432,669,0,1
"0d478aphxuc7",236,"Moderate","Easier than Reference",32,"present","Without Colors",474,796,0,0
"0d478aphxuc7",237,"Extreme","Easier than Reference",32,"absent","Without Colors",517,1045,0,0
"0d478aphxuc7",238,"Extreme","Harder than Reference",60,"present","Without Colors",616,1024,1,0
"0d478aphxuc7",239,"Moderate","Easier than Reference",4,"absent","Without Colors",569,627,0,0
"0d478aphxuc7",240,"Moderate","Harder than Reference",39,"absent","Without Colors",624,799,0,1
"0d478aphxuc7",241,"Moderate","Harder than Reference",46,"present","Without Colors",653,892,1,0
"0d478aphxuc7",242,"Moderate","Easier than Reference",4,"present","Without Colors",462,691,0,0
"0d478aphxuc7",243,"Extreme","Harder than Reference",32,"absent","Without Colors",875,804,0,0
"0d478aphxuc7",244,"Extreme","Easier than Reference",25,"present","Without Colors",715,786,0,1
"0d478aphxuc7",245,"Extreme","Harder than Reference",60,"present","Without Colors",631,1278,0,0
"0d478aphxuc7",246,"Moderate","Harder than Reference",46,"present","Without Colors",611,1263,0,0
"0d478aphxuc7",247,"Moderate","Easier than Reference",32,"present","Without Colors",783,1301,0,0
"0d478aphxuc7",248,"Extreme","Easier than Reference",32,"absent","Without Colors",541,1629,0,0
"0d478aphxuc7",249,"Extreme","Easier than Reference",32,"absent","Without Colors",531,1184,0,0
"0d478aphxuc7",250,"Moderate","Harder than Reference",32,"absent","Without Colors",389,1035,0,0
"0d478aphxuc7",251,"Extreme","Harder than Reference",60,"absent","Without Colors",717,902,0,0
"0d478aphxuc7",252,"Moderate","Easier than Reference",4,"present","Without Colors",459,548,0,0
"0d478aphxuc7",253,"Moderate","Harder than Reference",32,"present","Without Colors",716,1298,0,0
"0d478aphxuc7",254,"Moderate","Easier than Reference",18,"absent","Without Colors",539,1427,0,1
"0d478aphxuc7",255,"Extreme","Harder than Reference",32,"absent","Without Colors",645,996,0,0
"0d478aphxuc7",256,"Extreme","Easier than Reference",18,"absent","Without Colors",455,825,0,0
"0d478aphxuc7",257,"Moderate","Harder than Reference",32,"absent","Without Colors",592,990,0,0
"0d478aphxuc7",258,"Extreme","Harder than Reference",60,"present","Without Colors",695,1340,1,0
"0d478aphxuc7",259,"Moderate","Easier than Reference",18,"present","Without Colors",430,742,0,1
"0d478aphxuc7",260,"Extreme","Easier than Reference",18,"present","Without Colors",496,647,0,0
"0d478aphxuc7",261,"Moderate","Easier than Reference",4,"present","Without Colors",374,572,0,0
"0d478aphxuc7",262,"Extreme","Harder than Reference",32,"absent","Without Colors",432,769,0,0
"0d478aphxuc7",263,"Moderate","Harder than Reference",39,"present","Without Colors",354,938,0,1
"0d478aphxuc7",264,"Extreme","Easier than Reference",25,"present","Without Colors",372,675,0,1
"0d478aphxuc7",265,"Extreme","Harder than Reference",60,"present","Without Colors",595,1378,0,0
"0d478aphxuc7",266,"Moderate","Harder than Reference",39,"present","Without Colors",404,1706,0,1
"0d478aphxuc7",267,"Extreme","Easier than Reference",25,"absent","Without Colors",474,1328,0,1
"0d478aphxuc7",268,"Moderate","Easier than Reference",4,"present","Without Colors",627,484,0,0
"0d478aphxuc7",269,"Moderate","Easier than Reference",18,"present","Without Colors",512,961,0,1
"0d478aphxuc7",270,"Extreme","Easier than Reference",25,"present","Without Colors",314,1516,0,1
"0d478aphxuc7",271,"Moderate","Harder than Reference",32,"absent","Without Colors",448,1536,0,0
"0d478aphxuc7",272,"Extreme","Harder than Reference",60,"present","Without Colors",348,696,0,0
"0d478aphxuc7",273,"Extreme","Harder than Reference",60,"absent","Without Colors",331,1851,0,0
"0d478aphxuc7",274,"Moderate","Easier than Reference",18,"present","Without Colors",302,772,0,1
"0d478aphxuc7",275,"Moderate","Harder than Reference",46,"present","Without Colors",458,1216,1,0
"0d478aphxuc7",276,"Extreme","Easier than Reference",18,"absent","Without Colors",470,1368,0,0
"0d478aphxuc7",277,"Extreme","Easier than Reference",32,"absent","Without Colors",636,683,0,0
"0d478aphxuc7",278,"Extreme","Harder than Reference",46,"absent","Without Colors",399,1117,0,1
"0d478aphxuc7",279,"Moderate","Easier than Reference",18,"absent","Without Colors",415,863,0,1
"0d478aphxuc7",280,"Moderate","Harder than Reference",39,"present","Without Colors",480,1690,0,1
"0d478aphxuc7",281,"Extreme","Easier than Reference",32,"present","Without Colors",1296,990,0,0
"0d478aphxuc7",282,"Moderate","Easier than Reference",18,"present","Without Colors",749,705,0,1
"0d478aphxuc7",283,"Moderate","Harder than Reference",46,"absent","Without Colors",392,1105,0,0
"0d478aphxuc7",284,"Extreme","Harder than Reference",60,"absent","Without Colors",348,1042,0,0
"0d478aphxuc7",285,"Moderate","Easier than Reference",18,"present","Without Colors",511,1333,1,1
"0d478aphxuc7",286,"Extreme","Harder than Reference",60,"absent","Without Colors",506,1008,0,0
"0d478aphxuc7",287,"Extreme","Easier than Reference",25,"present","Without Colors",516,765,0,1
"0d478aphxuc7",288,"Moderate","Harder than Reference",39,"present","Without Colors",492,980,1,1
"0d478aphxuc7",289,"Extreme","Easier than Reference",25,"present","Without Colors",376,1283,0,1
"0d478aphxuc7",290,"Moderate","Harder than Reference",46,"present","Without Colors",963,1075,0,0
"0d478aphxuc7",291,"Moderate","Easier than Reference",32,"absent","Without Colors",737,1370,0,0
"0d478aphxuc7",292,"Extreme","Harder than Reference",46,"absent","Without Colors",707,1100,0,1
"0d478aphxuc7",293,"Moderate","Easier than Reference",18,"present","Without Colors",381,895,0,1
"0d478aphxuc7",294,"Extreme","Harder than Reference",32,"absent","Without Colors",394,995,0,0
"0d478aphxuc7",295,"Moderate","Harder than Reference",39,"present","Without Colors",342,678,0,1
"0d478aphxuc7",296,"Extreme","Easier than Reference",32,"absent","Without Colors",360,1062,0,0
"0d478aphxuc7",299,"Extreme","Harder than Reference",32,"absent","Without Colors",346,823,0,0
"0d478aphxuc7",306,"Moderate","Easier than Reference",18,"present","Without Colors",365,721,0,1
"0d478aphxuc7",307,"Moderate","Harder than Reference",39,"present","Without Colors",480,994,0,1
"0t2cabu4h4y",4,"Extreme","Easier than Reference",25,"present","With Colors",1507,3766,0,1
"0t2cabu4h4y",6,"Extreme","Harder than Reference",32,"absent","With Colors",1246,4369,0,0
"0t2cabu4h4y",7,"Moderate","Easier than Reference",4,"absent","With Colors",1496,1478,0,0
"0t2cabu4h4y",9,"Moderate","Easier than Reference",18,"present","With Colors",1365,1612,0,1
"0t2cabu4h4y",11,"Extreme","Easier than Reference",25,"absent","With Colors",1085,3304,0,1
"0t2cabu4h4y",12,"Extreme","Harder than Reference",32,"present","With Colors",1572,2887,0,0
"0t2cabu4h4y",13,"Moderate","Harder than Reference",32,"absent","With Colors",889,5598,0,0
"0t2cabu4h4y",15,"Extreme","Easier than Reference",25,"present","With Colors",1383,2658,0,1
"0t2cabu4h4y",16,"Moderate","Easier than Reference",18,"present","With Colors",1224,870,0,1
"0t2cabu4h4y",17,"Extreme","Easier than Reference",25,"present","With Colors",899,2302,0,1
"0t2cabu4h4y",19,"Extreme","Harder than Reference",60,"present","With Colors",1109,890,0,0
"0t2cabu4h4y",20,"Moderate","Easier than Reference",32,"present","With Colors",1456,1059,0,0
"0t2cabu4h4y",21,"Extreme","Harder than Reference",32,"absent","With Colors",1229,4666,0,0
"0t2cabu4h4y",22,"Extreme","Easier than Reference",32,"present","With Colors",1147,4321,1,0
"0t2cabu4h4y",24,"Moderate","Easier than Reference",18,"absent","With Colors",671,2395,0,1
"0t2cabu4h4y",25,"Extreme","Easier than Reference",32,"present","With Colors",1330,2576,0,0
"0t2cabu4h4y",26,"Extreme","Harder than Reference",32,"absent","With Colors",1507,3411,0,0
"0t2cabu4h4y",27,"Moderate","Easier than Reference",18,"absent","With Colors",1319,2498,0,1
"0t2cabu4h4y",28,"Moderate","Harder than Reference",39,"present","With Colors",1171,1325,0,1
"0t2cabu4h4y",29,"Extreme","Easier than Reference",25,"absent","With Colors",1226,3918,0,1
"0t2cabu4h4y",30,"Extreme","Harder than Reference",32,"absent","With Colors",1286,3431,0,0
"0t2cabu4h4y",31,"Moderate","Easier than Reference",18,"present","With Colors",1400,1132,0,1
"0t2cabu4h4y",32,"Moderate","Harder than Reference",32,"absent","With Colors",913,3879,0,0
"0t2cabu4h4y",33,"Extreme","Harder than Reference",32,"present","With Colors",1296,3069,0,0
"0t2cabu4h4y",34,"Moderate","Harder than Reference",32,"present","With Colors",1368,1695,0,0
"0t2cabu4h4y",35,"Extreme","Easier than Reference",25,"absent","With Colors",1029,3192,0,1
"0t2cabu4h4y",36,"Moderate","Easier than Reference",18,"absent","With Colors",1135,2063,0,1
"0t2cabu4h4y",37,"Moderate","Harder than Reference",32,"present","With Colors",858,2500,0,0
"0t2cabu4h4y",38,"Moderate","Easier than Reference",18,"present","With Colors",723,572,0,1
"0t2cabu4h4y",39,"Extreme","Easier than Reference",18,"present","With Colors",1101,1056,0,0
"0t2cabu4h4y",40,"Extreme","Harder than Reference",60,"absent","With Colors",1095,5265,0,0
"0t2cabu4h4y",41,"Moderate","Harder than Reference",46,"absent","With Colors",1159,4506,0,0
"0t2cabu4h4y",42,"Extreme","Harder than Reference",32,"absent","With Colors",1207,3492,0,0
"0t2cabu4h4y",43,"Moderate","Easier than Reference",18,"present","With Colors",946,1150,0,1
"0t2cabu4h4y",44,"Extreme","Easier than Reference",25,"present","With Colors",1194,1308,0,1
"0t2cabu4h4y",45,"Extreme","Harder than Reference",32,"absent","With Colors",1212,3232,0,0
"0t2cabu4h4y",46,"Extreme","Easier than Reference",25,"absent","With Colors",854,3153,0,1
"0t2cabu4h4y",47,"Moderate","Harder than Reference",46,"absent","With Colors",705,2734,0,0
"0t2cabu4h4y",48,"Moderate","Easier than Reference",18,"present","With Colors",580,1096,0,1
"0t2cabu4h4y",50,"Extreme","Easier than Reference",25,"absent","With Colors",1218,2177,0,1
"0t2cabu4h4y",51,"Extreme","Harder than Reference",60,"absent","With Colors",992,3700,0,0
"0t2cabu4h4y",52,"Moderate","Harder than Reference",46,"present","With Colors",1076,2585,0,0
"0t2cabu4h4y",53,"Moderate","Easier than Reference",18,"absent","With Colors",695,2018,0,1
"0t2cabu4h4y",54,"Extreme","Harder than Reference",60,"absent","With Colors",981,4050,0,0
"0t2cabu4h4y",55,"Moderate","Harder than Reference",46,"absent","With Colors",1381,4211,0,0
"0t2cabu4h4y",56,"Extreme","Easier than Reference",25,"present","With Colors",599,1097,0,1
"0t2cabu4h4y",57,"Moderate","Easier than Reference",18,"present","With Colors",456,990,0,1
"0t2cabu4h4y",58,"Moderate","Harder than Reference",46,"present","With Colors",950,2789,0,0
"0t2cabu4h4y",59,"Extreme","Harder than Reference",32,"absent","With Colors",819,4658,0,0
"0t2cabu4h4y",60,"Extreme","Easier than Reference",25,"absent","With Colors",472,2480,0,1
"0t2cabu4h4y",61,"Moderate","Easier than Reference",32,"present","With Colors",477,880,0,0
"0t2cabu4h4y",62,"Moderate","Harder than Reference",32,"present","With Colors",801,3425,1,0
"0t2cabu4h4y",63,"Extreme","Easier than Reference",18,"absent","With Colors",778,2968,0,0
"0t2cabu4h4y",64,"Extreme","Harder than Reference",32,"absent","With Colors",896,5288,0,0
"0t2cabu4h4y",65,"Moderate","Easier than Reference",18,"present","With Colors",814,1206,0,1
"0t2cabu4h4y",66,"Extreme","Harder than Reference",32,"present","With Colors",635,1391,1,0
"0t2cabu4h4y",67,"Moderate","Harder than Reference",32,"present","With Colors",751,975,0,0
"0t2cabu4h4y",68,"Extreme","Easier than Reference",32,"absent","With Colors",441,2821,0,0
"0t2cabu4h4y",69,"Extreme","Harder than Reference",60,"present","With Colors",959,5149,1,0
"0t2cabu4h4y",70,"Moderate","Easier than Reference",18,"present","With Colors",999,2018,0,1
"0t2cabu4h4y",71,"Extreme","Easier than Reference",25,"present","With Colors",1143,2611,0,1
"0t2cabu4h4y",72,"Moderate","Harder than Reference",46,"absent","With Colors",1226,3384,0,0
"0t2cabu4h4y",73,"Extreme","Easier than Reference",25,"present","With Colors",1015,703,0,1
"0t2cabu4h4y",74,"Moderate","Harder than Reference",39,"present","With Colors",1041,1508,0,1
"0t2cabu4h4y",75,"Extreme","Harder than Reference",60,"absent","With Colors",926,3956,0,0
"0t2cabu4h4y",76,"Moderate","Easier than Reference",18,"absent","With Colors",708,3517,0,1
"0t2cabu4h4y",77,"Moderate","Harder than Reference",32,"absent","With Colors",995,3748,0,0
"0t2cabu4h4y",78,"Moderate","Easier than Reference",4,"absent","With Colors",892,1000,0,0
"0t2cabu4h4y",79,"Extreme","Easier than Reference",18,"absent","With Colors",1338,2806,0,0
"0t2cabu4h4y",80,"Extreme","Harder than Reference",32,"absent","With Colors",812,3290,0,0
"0t2cabu4h4y",81,"Moderate","Harder than Reference",39,"present","With Colors",866,2655,0,1
"0t2cabu4h4y",82,"Moderate","Easier than Reference",18,"present","With Colors",703,1020,0,1
"0t2cabu4h4y",83,"Extreme","Easier than Reference",32,"absent","With Colors",887,3342,0,0
"0t2cabu4h4y",84,"Extreme","Harder than Reference",32,"present","With Colors",634,2564,1,0
"0t2cabu4h4y",85,"Moderate","Easier than Reference",18,"present","With Colors",812,922,0,1
"0t2cabu4h4y",86,"Extreme","Harder than Reference",60,"absent","With Colors",1057,6748,0,0
"0t2cabu4h4y",87,"Extreme","Easier than Reference",32,"absent","With Colors",781,3525,0,0
"0t2cabu4h4y",88,"Moderate","Harder than Reference",39,"present","With Colors",663,3437,0,1
"0t2cabu4h4y",89,"Moderate","Easier than Reference",18,"absent","With Colors",1359,1717,0,1
"0t2cabu4h4y",90,"Extreme","Harder than Reference",32,"absent","With Colors",635,5527,0,0
"0t2cabu4h4y",91,"Extreme","Easier than Reference",18,"absent","With Colors",665,2352,0,0
"0t2cabu4h4y",92,"Moderate","Harder than Reference",32,"absent","With Colors",863,4214,0,0
"0t2cabu4h4y",93,"Moderate","Harder than Reference",32,"present","With Colors",748,2462,0,0
"0t2cabu4h4y",94,"Moderate","Easier than Reference",32,"absent","With Colors",457,4224,0,0
"0t2cabu4h4y",95,"Extreme","Harder than Reference",60,"absent","With Colors",540,7233,0,0
"0t2cabu4h4y",96,"Extreme","Easier than Reference",32,"absent","With Colors",882,4840,0,0
"0t2cabu4h4y",97,"Extreme","Easier than Reference",18,"present","With Colors",587,899,0,0
"0t2cabu4h4y",98,"Extreme","Harder than Reference",60,"present","With Colors",729,1913,0,0
"0t2cabu4h4y",99,"Moderate","Harder than Reference",46,"absent","With Colors",1122,5517,0,0
"0t2cabu4h4y",100,"Moderate","Easier than Reference",32,"absent","With Colors",554,3844,0,0
"0t2cabu4h4y",101,"Moderate","Easier than Reference",4,"absent","With Colors",679,1087,0,0
"0t2cabu4h4y",102,"Extreme","Easier than Reference",32,"present","With Colors",739,2345,0,0
"0t2cabu4h4y",103,"Extreme","Harder than Reference",60,"absent","With Colors",682,1475,0,0
"0t2cabu4h4y",104,"Moderate","Harder than Reference",32,"present","With Colors",836,1163,0,0
"0t2cabu4h4y",105,"Extreme","Harder than Reference",60,"absent","With Colors",506,4412,0,0
"0t2cabu4h4y",106,"Extreme","Easier than Reference",32,"present","With Colors",527,1585,0,0
"0t2cabu4h4y",107,"Moderate","Easier than Reference",4,"present","With Colors",433,1222,0,0
"0t2cabu4h4y",108,"Moderate","Harder than Reference",46,"present","With Colors",671,1980,0,0
"0t2cabu4h4y",109,"Moderate","Harder than Reference",46,"absent","With Colors",490,2733,0,0
"0t2cabu4h4y",110,"Extreme","Harder than Reference",32,"absent","With Colors",491,2510,0,0
"0t2cabu4h4y",111,"Extreme","Easier than Reference",32,"absent","With Colors",804,3079,0,0
"0t2cabu4h4y",112,"Moderate","Easier than Reference",4,"present","With Colors",505,627,0,0
"0t2cabu4h4y",113,"Moderate","Harder than Reference",46,"present","With Colors",473,4401,1,0
"0t2cabu4h4y",114,"Moderate","Easier than Reference",4,"present","With Colors",569,658,0,0
"0t2cabu4h4y",115,"Extreme","Harder than Reference",60,"present","With Colors",664,2391,0,0
"0t2cabu4h4y",116,"Extreme","Easier than Reference",18,"present","With Colors",656,1109,0,0
"0t2cabu4h4y",117,"Moderate","Harder than Reference",46,"absent","With Colors",413,3565,0,0
"0t2cabu4h4y",118,"Extreme","Harder than Reference",32,"absent","With Colors",603,3745,0,0
"0t2cabu4h4y",119,"Extreme","Easier than Reference",18,"present","With Colors",489,2234,0,0
"0t2cabu4h4y",120,"Moderate","Easier than Reference",4,"present","With Colors",1086,678,0,0
"0t2cabu4h4y",121,"Moderate","Easier than Reference",4,"absent","With Colors",721,857,0,0
"0t2cabu4h4y",122,"Extreme","Harder than Reference",32,"absent","With Colors",645,2284,0,0
"0t2cabu4h4y",123,"Extreme","Easier than Reference",18,"present","With Colors",651,2405,1,0
"0t2cabu4h4y",124,"Moderate","Harder than Reference",46,"absent","With Colors",1185,2903,0,0
"0t2cabu4h4y",125,"Extreme","Harder than Reference",60,"absent","With Colors",663,2969,0,0
"0t2cabu4h4y",126,"Moderate","Harder than Reference",32,"present","With Colors",451,919,0,0
"0t2cabu4h4y",127,"Moderate","Easier than Reference",32,"absent","With Colors",478,2465,0,0
"0t2cabu4h4y",128,"Extreme","Easier than Reference",18,"present","With Colors",556,2151,0,0
"0t2cabu4h4y",129,"Moderate","Easier than Reference",32,"present","With Colors",461,1636,0,0
"0t2cabu4h4y",130,"Extreme","Easier than Reference",18,"absent","With Colors",584,2604,0,0
"0t2cabu4h4y",131,"Moderate","Harder than Reference",32,"absent","With Colors",520,2279,0,0
"0t2cabu4h4y",132,"Extreme","Harder than Reference",60,"absent","With Colors",460,3376,0,0
"0t2cabu4h4y",133,"Moderate","Harder than Reference",32,"absent","With Colors",927,2591,0,0
"0t2cabu4h4y",134,"Moderate","Easier than Reference",4,"present","With Colors",574,554,0,0
"0t2cabu4h4y",135,"Extreme","Harder than Reference",60,"present","With Colors",504,4442,1,0
"0t2cabu4h4y",136,"Extreme","Easier than Reference",32,"present","With Colors",591,1063,0,0
"0t2cabu4h4y",137,"Extreme","Easier than Reference",32,"present","With Colors",515,2123,0,0
"0t2cabu4h4y",138,"Moderate","Easier than Reference",4,"absent","With Colors",624,1483,0,0
"0t2cabu4h4y",139,"Moderate","Harder than Reference",46,"absent","With Colors",611,3246,0,0
"0t2cabu4h4y",140,"Extreme","Harder than Reference",32,"present","With Colors",461,1316,0,0
"0t2cabu4h4y",141,"Extreme","Easier than Reference",18,"present","With Colors",301,1917,0,0
"0t2cabu4h4y",142,"Moderate","Harder than Reference",46,"absent","With Colors",582,3958,0,0
"0t2cabu4h4y",143,"Extreme","Harder than Reference",32,"absent","With Colors",430,2081,0,0
"0t2cabu4h4y",144,"Moderate","Easier than Reference",4,"present","With Colors",380,569,0,0
"0t2cabu4h4y",145,"Moderate","Harder than Reference",46,"present","With Colors",837,2008,0,0
"0t2cabu4h4y",147,"Extreme","Easier than Reference",18,"present","With Colors",611,1863,0,0
"0t2cabu4h4y",148,"Moderate","Easier than Reference",32,"absent","With Colors",539,3651,0,0
"0t2cabu4h4y",150,"Moderate","Easier than Reference",18,"absent","With Colors",1068,2216,0,1
"0t2cabu4h4y",151,"Extreme","Easier than Reference",25,"absent","With Colors",572,2654,0,1
"0t2cabu4h4y",152,"Moderate","Harder than Reference",46,"absent","With Colors",1053,1856,0,0
"0t2cabu4h4y",153,"Extreme","Harder than Reference",32,"present","With Colors",587,2058,0,0
"0t2cabu4h4y",154,"Moderate","Easier than Reference",4,"absent","With Colors",1361,856,0,0
"0t2cabu4h4y",155,"Extreme","Easier than Reference",32,"absent","With Colors",777,2326,0,0
"0t2cabu4h4y",156,"Moderate","Harder than Reference",39,"absent","With Colors",660,2146,0,1
"0t2cabu4h4y",157,"Extreme","Easier than Reference",32,"present","With Colors",598,2683,1,0
"0t2cabu4h4y",158,"Moderate","Easier than Reference",32,"present","With Colors",794,2576,0,0
"0t2cabu4h4y",159,"Extreme","Harder than Reference",32,"absent","With Colors",410,2721,0,0
"0t2cabu4h4y",160,"Moderate","Harder than Reference",39,"present","With Colors",918,1976,0,1
"0t2cabu4h4y",161,"Moderate","Easier than Reference",18,"absent","With Colors",573,1617,0,1
"0t2cabu4h4y",162,"Extreme","Easier than Reference",18,"present","With Colors",433,967,0,0
"0t2cabu4h4y",163,"Extreme","Harder than Reference",46,"absent","With Colors",744,2830,0,1
"0t2cabu4h4y",164,"Moderate","Harder than Reference",39,"absent","With Colors",1069,2046,0,1
"0t2cabu4h4y",165,"Extreme","Harder than Reference",46,"present","With Colors",799,2903,0,1
"0t2cabu4h4y",166,"Extreme","Easier than Reference",32,"present","With Colors",832,1229,0,0
"0t2cabu4h4y",167,"Moderate","Easier than Reference",32,"absent","With Colors",629,2426,0,0
"0t2cabu4h4y",168,"Moderate","Harder than Reference",32,"present","With Colors",1176,1942,0,0
"0t2cabu4h4y",169,"Moderate","Easier than Reference",32,"absent","With Colors",602,3436,0,0
"0t2cabu4h4y",170,"Moderate","Harder than Reference",39,"absent","With Colors",771,4918,0,1
"0t2cabu4h4y",171,"Extreme","Harder than Reference",32,"absent","With Colors",388,2631,0,0
"0t2cabu4h4y",172,"Extreme","Easier than Reference",18,"absent","With Colors",469,1669,0,0
"0t2cabu4h4y",173,"Moderate","Harder than Reference",46,"absent","With Colors",574,2892,0,0
"0t2cabu4h4y",174,"Extreme","Easier than Reference",32,"absent","With Colors",682,3256,0,0
"0t2cabu4h4y",175,"Extreme","Harder than Reference",32,"present","With Colors",1065,1216,0,0
"0t2cabu4h4y",176,"Moderate","Easier than Reference",4,"absent","With Colors",460,755,0,0
"0t2cabu4h4y",177,"Extreme","Easier than Reference",25,"absent","With Colors",1129,2054,0,1
"0t2cabu4h4y",178,"Moderate","Harder than Reference",46,"absent","With Colors",936,4373,0,0
"0t2cabu4h4y",179,"Extreme","Harder than Reference",60,"present","With Colors",588,1893,0,0
"0t2cabu4h4y",180,"Moderate","Easier than Reference",18,"absent","With Colors",506,3089,0,1
"0t2cabu4h4y",181,"Moderate","Easier than Reference",4,"absent","With Colors",553,745,0,0
"0t2cabu4h4y",182,"Moderate","Harder than Reference",32,"absent","With Colors",662,2342,0,0
"0t2cabu4h4y",183,"Extreme","Harder than Reference",32,"absent","With Colors",512,1501,0,0
"0t2cabu4h4y",184,"Extreme","Easier than Reference",18,"absent","With Colors",503,1515,0,0
"0t2cabu4h4y",185,"Moderate","Easier than Reference",32,"absent","With Colors",977,3031,0,0
"0t2cabu4h4y",186,"Moderate","Harder than Reference",32,"present","With Colors",699,770,0,0
"0t2cabu4h4y",187,"Extreme","Easier than Reference",32,"absent","With Colors",672,2135,0,0
"0t2cabu4h4y",188,"Extreme","Harder than Reference",32,"present","With Colors",527,1050,0,0
"0t2cabu4h4y",189,"Moderate","Easier than Reference",32,"absent","With Colors",396,2169,0,0
"0t2cabu4h4y",190,"Moderate","Harder than Reference",46,"present","With Colors",889,723,0,0
"0t2cabu4h4y",191,"Extreme","Harder than Reference",32,"absent","With Colors",777,1971,0,0
"0t2cabu4h4y",192,"Extreme","Easier than Reference",18,"absent","With Colors",708,2090,0,0
"0t2cabu4h4y",193,"Moderate","Easier than Reference",32,"absent","With Colors",658,2124,0,0
"0t2cabu4h4y",194,"Extreme","Easier than Reference",32,"absent","With Colors",617,3070,0,0
"0t2cabu4h4y",195,"Extreme","Harder than Reference",32,"absent","With Colors",353,1588,0,0
"0t2cabu4h4y",196,"Moderate","Harder than Reference",46,"present","With Colors",605,2713,1,0
"0t2cabu4h4y",197,"Moderate","Easier than Reference",18,"absent","With Colors",536,1597,0,1
"0t2cabu4h4y",198,"Extreme","Easier than Reference",18,"present","With Colors",465,1034,0,0
"0t2cabu4h4y",199,"Extreme","Harder than Reference",60,"present","With Colors",510,2444,0,0
"0t2cabu4h4y",200,"Moderate","Harder than Reference",32,"present","With Colors",986,2879,0,0
"0t2cabu4h4y",201,"Extreme","Easier than Reference",32,"present","With Colors",484,2081,0,0
"0t2cabu4h4y",202,"Moderate","Harder than Reference",32,"absent","With Colors",496,2854,0,0
"0t2cabu4h4y",203,"Extreme","Harder than Reference",60,"absent","With Colors",641,3523,0,0
"0t2cabu4h4y",204,"Moderate","Easier than Reference",18,"absent","With Colors",469,2005,0,1
"0t2cabu4h4y",205,"Extreme","Harder than Reference",46,"absent","With Colors",483,3167,0,1
"0t2cabu4h4y",206,"Moderate","Harder than Reference",32,"absent","With Colors",615,1951,0,0
"0t2cabu4h4y",207,"Extreme","Easier than Reference",32,"present","With Colors",607,1042,0,0
"0t2cabu4h4y",208,"Moderate","Easier than Reference",18,"absent","With Colors",659,1400,0,1
"0t2cabu4h4y",209,"Extreme","Harder than Reference",32,"absent","With Colors",585,2937,0,0
"0t2cabu4h4y",210,"Moderate","Easier than Reference",4,"present","With Colors",642,658,0,0
"0t2cabu4h4y",211,"Extreme","Easier than Reference",32,"present","With Colors",517,1572,0,0
"0t2cabu4h4y",212,"Moderate","Harder than Reference",46,"absent","With Colors",956,2886,0,0
"0t2cabu4h4y",213,"Extreme","Easier than Reference",18,"present","With Colors",484,991,0,0
"0t2cabu4h4y",214,"Extreme","Harder than Reference",60,"absent","With Colors",815,3352,0,0
"0t2cabu4h4y",215,"Moderate","Easier than Reference",4,"present","With Colors",873,535,0,0
"0t2cabu4h4y",216,"Moderate","Harder than Reference",32,"absent","With Colors",787,2525,0,0
"0t2cabu4h4y",217,"Moderate","Easier than Reference",32,"absent","With Colors",520,2874,0,0
"0t2cabu4h4y",218,"Moderate","Harder than Reference",32,"absent","With Colors",598,1811,0,0
"0t2cabu4h4y",219,"Extreme","Harder than Reference",60,"present","With Colors",561,3633,1,0
"0t2cabu4h4y",220,"Extreme","Easier than Reference",25,"present","With Colors",721,1719,1,1
"0t2cabu4h4y",221,"Extreme","Harder than Reference",60,"absent","With Colors",634,2563,0,0
"0t2cabu4h4y",222,"Extreme","Easier than Reference",18,"present","With Colors",542,709,0,0
"0t2cabu4h4y",223,"Moderate","Easier than Reference",4,"present","With Colors",427,825,0,0
"0t2cabu4h4y",224,"Moderate","Harder than Reference",46,"absent","With Colors",636,2669,0,0
"0t2cabu4h4y",225,"Moderate","Easier than Reference",32,"absent","With Colors",576,1956,0,0
"0t2cabu4h4y",226,"Moderate","Harder than Reference",32,"absent","With Colors",467,1683,0,0
"0t2cabu4h4y",227,"Extreme","Harder than Reference",32,"absent","With Colors",610,1598,0,0
"0t2cabu4h4y",228,"Extreme","Easier than Reference",18,"present","With Colors",690,774,0,0
"0t2cabu4h4y",229,"Moderate","Harder than Reference",46,"present","With Colors",790,781,0,0
"0t2cabu4h4y",230,"Extreme","Harder than Reference",32,"present","With Colors",682,2082,0,0
"0t2cabu4h4y",231,"Moderate","Easier than Reference",4,"absent","With Colors",426,1000,0,0
"0t2cabu4h4y",232,"Extreme","Easier than Reference",32,"absent","With Colors",466,1688,0,0
"0t2cabu4h4y",233,"Moderate","Harder than Reference",32,"absent","With Colors",489,3306,0,0
"0t2cabu4h4y",234,"Extreme","Harder than Reference",60,"absent","With Colors",989,3352,0,0
"0t2cabu4h4y",235,"Moderate","Easier than Reference",4,"present","With Colors",424,542,0,0
"0t2cabu4h4y",236,"Extreme","Easier than Reference",25,"absent","With Colors",635,1952,0,1
"0t2cabu4h4y",237,"Extreme","Easier than Reference",32,"present","With Colors",538,1535,0,0
"0t2cabu4h4y",238,"Moderate","Easier than Reference",4,"present","With Colors",501,643,0,0
"0t2cabu4h4y",239,"Moderate","Harder than Reference",32,"present","With Colors",542,1237,0,0
"0t2cabu4h4y",240,"Extreme","Harder than Reference",32,"absent","With Colors",600,1789,0,0
"0t2cabu4h4y",241,"Extreme","Easier than Reference",32,"absent","With Colors",565,2524,0,0
"0t2cabu4h4y",242,"Extreme","Harder than Reference",32,"absent","With Colors",751,2380,0,0
"0t2cabu4h4y",243,"Moderate","Easier than Reference",4,"absent","With Colors",625,810,0,0
"0t2cabu4h4y",244,"Moderate","Harder than Reference",32,"absent","With Colors",512,1898,0,0
"0t2cabu4h4y",245,"Extreme","Easier than Reference",18,"absent","With Colors",419,1679,0,0
"0t2cabu4h4y",246,"Extreme","Harder than Reference",32,"present","With Colors",630,2069,1,0
"0t2cabu4h4y",247,"Moderate","Easier than Reference",18,"present","With Colors",430,749,0,1
"0t2cabu4h4y",248,"Moderate","Harder than Reference",32,"present","With Colors",583,875,0,0
"0t2cabu4h4y",249,"Extreme","Harder than Reference",60,"absent","With Colors",458,4139,0,0
"0t2cabu4h4y",250,"Extreme","Easier than Reference",32,"absent","With Colors",591,2917,0,0
"0t2cabu4h4y",251,"Moderate","Harder than Reference",39,"present","With Colors",702,1523,0,1
"0t2cabu4h4y",252,"Moderate","Easier than Reference",4,"present","With Colors",648,704,0,0
"0t2cabu4h4y",253,"Moderate","Easier than Reference",32,"absent","With Colors",603,1723,0,0
"0t2cabu4h4y",254,"Extreme","Harder than Reference",60,"absent","With Colors",623,3272,0,0
"0t2cabu4h4y",255,"Moderate","Harder than Reference",32,"absent","With Colors",542,2432,0,0
"0t2cabu4h4y",256,"Extreme","Easier than Reference",32,"absent","With Colors",402,1901,0,0
"0t2cabu4h4y",257,"Extreme","Easier than Reference",32,"absent","With Colors",558,2572,0,0
"0t2cabu4h4y",258,"Extreme","Harder than Reference",32,"present","With Colors",416,1388,0,0
"0t2cabu4h4y",259,"Moderate","Easier than Reference",32,"absent","With Colors",646,2386,0,0
"0t2cabu4h4y",260,"Moderate","Harder than Reference",46,"absent","With Colors",465,2498,0,0
"0t2cabu4h4y",261,"Moderate","Harder than Reference",46,"present","With Colors",652,1631,0,0
"0t2cabu4h4y",262,"Moderate","Easier than Reference",4,"present","With Colors",522,986,0,0
"0t2cabu4h4y",263,"Extreme","Harder than Reference",32,"present","With Colors",550,1517,0,0
"0t2cabu4h4y",264,"Extreme","Easier than Reference",32,"present","With Colors",458,1490,0,0
"0t2cabu4h4y",265,"Extreme","Easier than Reference",32,"present","With Colors",1203,3382,0,0
"0t2cabu4h4y",266,"Moderate","Harder than Reference",46,"present","With Colors",695,3683,0,0
"0t2cabu4h4y",267,"Extreme","Harder than Reference",60,"absent","With Colors",602,1935,0,0
"0t2cabu4h4y",268,"Moderate","Easier than Reference",32,"absent","With Colors",668,2003,0,0
"0t2cabu4h4y",269,"Moderate","Harder than Reference",32,"present","With Colors",1141,2103,1,0
"0t2cabu4h4y",270,"Extreme","Harder than Reference",60,"present","With Colors",502,259,1,0
"0t2cabu4h4y",271,"Moderate","Easier than Reference",18,"present","With Colors",582,988,0,1
"0t2cabu4h4y",272,"Extreme","Easier than Reference",18,"present","With Colors",489,1339,0,0
"0t2cabu4h4y",273,"Moderate","Easier than Reference",32,"present","With Colors",358,622,0,0
"0t2cabu4h4y",275,"Extreme","Easier than Reference",32,"present","With Colors",302,1117,1,0
"0t2cabu4h4y",276,"Extreme","Harder than Reference",60,"present","With Colors",564,1895,1,0
"0t2cabu4h4y",277,"Extreme","Easier than Reference",18,"present","With Colors",632,1213,0,0
"0t2cabu4h4y",278,"Moderate","Harder than Reference",32,"absent","With Colors",558,2301,0,0
"0t2cabu4h4y",280,"Moderate","Easier than Reference",4,"present","With Colors",546,1068,0,0
"0t2cabu4h4y",281,"Extreme","Harder than Reference",60,"absent","With Colors",1074,2810,0,0
"0t2cabu4h4y",282,"Moderate","Easier than Reference",32,"absent","With Colors",573,2432,0,0
"0t2cabu4h4y",283,"Moderate","Harder than Reference",32,"absent","With Colors",667,3326,0,0
"0t2cabu4h4y",284,"Extreme","Easier than Reference",32,"present","With Colors",652,1075,0,0
"0t2cabu4h4y",285,"Moderate","Easier than Reference",32,"absent","With Colors",424,1647,0,0
"0t2cabu4h4y",286,"Moderate","Harder than Reference",46,"absent","With Colors",454,1901,0,0
"0t2cabu4h4y",287,"Extreme","Easier than Reference",18,"absent","With Colors",426,1447,0,0
"0t2cabu4h4y",288,"Extreme","Harder than Reference",32,"absent","With Colors",364,2787,0,0
"0t2cabu4h4y",289,"Extreme","Easier than Reference",32,"present","With Colors",500,1236,0,0
"0t2cabu4h4y",290,"Moderate","Easier than Reference",18,"present","With Colors",489,870,0,1
"0t2cabu4h4y",291,"Moderate","Harder than Reference",46,"absent","With Colors",862,2456,0,0
"0t2cabu4h4y",292,"Extreme","Harder than Reference",32,"absent","With Colors",532,935,1,0
"0t2cabu4h4y",294,"Extreme","Easier than Reference",32,"present","With Colors",588,1716,0,0
"0t2cabu4h4y",295,"Extreme","Harder than Reference",60,"absent","With Colors",551,3139,0,0
"0t2cabu4h4y",296,"Moderate","Harder than Reference",32,"present","With Colors",418,2314,0,0
"0t2cabu4h4y",297,"Moderate","Easier than Reference",32,"present","With Colors",375,1512,0,0
"0t2cabu4h4y",298,"Extreme","Easier than Reference",32,"absent","With Colors",394,3274,0,0
"0t2cabu4h4y",299,"Moderate","Harder than Reference",32,"present","With Colors",601,1206,0,0
"0t2cabu4h4y",300,"Extreme","Harder than Reference",32,"absent","With Colors",586,2869,0,0
"0t2cabu4h4y",301,"Moderate","Harder than Reference",39,"present","With Colors",385,1970,0,1
"0t2cabu4h4y",302,"Extreme","Easier than Reference",25,"present","With Colors",617,1257,0,1
"0t2cabu4h4y",303,"Moderate","Easier than Reference",18,"present","With Colors",441,794,0,1
"0t2cabu4h4y",304,"Extreme","Harder than Reference",46,"present","With Colors",463,3010,1,1
"0t2cabu4h4y",305,"Moderate","Easier than Reference",32,"absent","With Colors",670,2968,0,0
"0t2cabu4h4y",306,"Extreme","Easier than Reference",25,"absent","With Colors",995,1536,0,1
"0t2cabu4h4y",307,"Extreme","Harder than Reference",46,"present","With Colors",407,1968,0,1
"0t2cabu4h4y",308,"Moderate","Harder than Reference",39,"absent","With Colors",553,2160,0,1
"0x9wukaf1d4",3,"Moderate","Easier than Reference",18,"present","Without Colors",1530,1298,0,1
"0x9wukaf1d4",4,"Extreme","Easier than Reference",25,"present","Without Colors",1248,1592,0,1
"0x9wukaf1d4",5,"Extreme","Harder than Reference",46,"present","Without Colors",1172,3969,1,1
"0x9wukaf1d4",6,"Moderate","Easier than Reference",4,"present","Without Colors",1110,948,0,0
"0x9wukaf1d4",7,"Extreme","Easier than Reference",25,"absent","Without Colors",729,3065,0,1
"0x9wukaf1d4",8,"Moderate","Harder than Reference",39,"absent","Without Colors",1354,5581,0,1
"0x9wukaf1d4",10,"Moderate","Easier than Reference",18,"present","Without Colors",900,1205,0,1
"0x9wukaf1d4",11,"Moderate","Harder than Reference",46,"absent","Without Colors",1192,3152,0,0
"0x9wukaf1d4",12,"Extreme","Harder than Reference",46,"present","Without Colors",831,1669,0,1
"0x9wukaf1d4",13,"Moderate","Harder than Reference",39,"absent","Without Colors",954,2716,0,1
"0x9wukaf1d4",14,"Extreme","Harder than Reference",32,"present","Without Colors",684,2511,0,0
"0x9wukaf1d4",15,"Moderate","Easier than Reference",18,"absent","Without Colors",931,2162,0,1
"0x9wukaf1d4",16,"Extreme","Easier than Reference",32,"present","Without Colors",831,2129,1,0
"0x9wukaf1d4",17,"Extreme","Easier than Reference",25,"absent","Without Colors",548,2248,0,1
"0x9wukaf1d4",18,"Moderate","Harder than Reference",46,"present","Without Colors",950,1067,0,0
"0x9wukaf1d4",19,"Extreme","Harder than Reference",46,"present","Without Colors",1142,944,0,1
"0x9wukaf1d4",20,"Moderate","Easier than Reference",18,"present","Without Colors",612,953,0,1
"0x9wukaf1d4",21,"Moderate","Harder than Reference",46,"present","Without Colors",701,1127,0,0
"0x9wukaf1d4",22,"Moderate","Easier than Reference",18,"present","Without Colors",838,1234,0,1
"0x9wukaf1d4",23,"Extreme","Easier than Reference",32,"present","Without Colors",1021,1041,0,0
"0x9wukaf1d4",24,"Extreme","Harder than Reference",32,"absent","Without Colors",1283,2830,0,0
"0x9wukaf1d4",25,"Extreme","Harder than Reference",60,"absent","Without Colors",676,4060,0,0
"0x9wukaf1d4",26,"Extreme","Easier than Reference",25,"absent","Without Colors",777,1908,0,1
"0x9wukaf1d4",27,"Moderate","Easier than Reference",32,"present","Without Colors",1278,1177,0,0
"0x9wukaf1d4",28,"Moderate","Harder than Reference",46,"present","Without Colors",786,1885,0,0
"0x9wukaf1d4",29,"Moderate","Harder than Reference",46,"absent","Without Colors",912,2626,0,0
"0x9wukaf1d4",30,"Extreme","Harder than Reference",60,"present","Without Colors",1256,1478,0,0
"0x9wukaf1d4",31,"Moderate","Easier than Reference",18,"present","Without Colors",598,959,0,1
"0x9wukaf1d4",32,"Extreme","Easier than Reference",18,"present","Without Colors",889,644,0,0
"0x9wukaf1d4",33,"Moderate","Harder than Reference",32,"absent","Without Colors",997,2112,0,0
"0x9wukaf1d4",34,"Moderate","Easier than Reference",32,"absent","Without Colors",718,2711,0,0
"0x9wukaf1d4",35,"Extreme","Harder than Reference",60,"present","Without Colors",1222,1321,0,0
"0x9wukaf1d4",36,"Extreme","Easier than Reference",25,"absent","Without Colors",559,1887,0,1
"0x9wukaf1d4",37,"Extreme","Harder than Reference",32,"absent","Without Colors",706,1700,0,0
"0x9wukaf1d4",38,"Extreme","Easier than Reference",25,"absent","Without Colors",536,1473,0,1
"0x9wukaf1d4",39,"Moderate","Harder than Reference",32,"absent","Without Colors",641,1815,0,0
"0x9wukaf1d4",40,"Moderate","Easier than Reference",18,"present","Without Colors",520,1398,0,1
"0x9wukaf1d4",41,"Extreme","Easier than Reference",25,"present","Without Colors",507,1973,0,1
"0x9wukaf1d4",42,"Moderate","Harder than Reference",46,"present","Without Colors",873,2250,0,0
"0x9wukaf1d4",43,"Extreme","Harder than Reference",32,"present","Without Colors",743,2953,0,0
"0x9wukaf1d4",44,"Moderate","Easier than Reference",18,"present","Without Colors",647,761,0,1
"0x9wukaf1d4",45,"Extreme","Harder than Reference",32,"present","Without Colors",1122,598,0,0
"0x9wukaf1d4",46,"Extreme","Easier than Reference",32,"absent","Without Colors",659,1073,0,0
"0x9wukaf1d4",47,"Moderate","Easier than Reference",32,"present","Without Colors",582,496,1,0
"0x9wukaf1d4",48,"Moderate","Harder than Reference",32,"absent","Without Colors",793,2102,0,0
"0x9wukaf1d4",49,"Moderate","Harder than Reference",32,"present","Without Colors",1071,1143,1,0
"0x9wukaf1d4",50,"Extreme","Easier than Reference",25,"present","Without Colors",956,1251,0,1
"0x9wukaf1d4",51,"Extreme","Harder than Reference",32,"absent","Without Colors",599,2094,0,0
"0x9wukaf1d4",52,"Moderate","Easier than Reference",32,"present","Without Colors",667,1125,0,0
"0x9wukaf1d4",53,"Moderate","Harder than Reference",32,"absent","Without Colors",868,1596,0,0
"0x9wukaf1d4",54,"Extreme","Easier than Reference",32,"absent","Without Colors",682,1796,0,0
"0x9wukaf1d4",55,"Moderate","Easier than Reference",32,"absent","Without Colors",841,3435,0,0
"0x9wukaf1d4",56,"Extreme","Harder than Reference",60,"absent","Without Colors",1039,2317,0,0
"0x9wukaf1d4",57,"Moderate","Harder than Reference",46,"present","Without Colors",737,983,0,0
"0x9wukaf1d4",58,"Moderate","Easier than Reference",32,"absent","Without Colors",632,2630,0,0
"0x9wukaf1d4",59,"Extreme","Easier than Reference",25,"absent","Without Colors",934,1433,0,1
"0x9wukaf1d4",60,"Extreme","Harder than Reference",60,"present","Without Colors",682,1184,0,0
"0x9wukaf1d4",61,"Moderate","Easier than Reference",4,"present","Without Colors",929,650,0,0
"0x9wukaf1d4",62,"Extreme","Harder than Reference",32,"absent","Without Colors",862,1517,0,0
"0x9wukaf1d4",63,"Extreme","Easier than Reference",18,"present","Without Colors",649,607,0,0
"0x9wukaf1d4",64,"Moderate","Harder than Reference",46,"present","Without Colors",1350,1225,1,0
"0x9wukaf1d4",65,"Extreme","Harder than Reference",32,"present","Without Colors",701,1395,0,0
"0x9wukaf1d4",66,"Extreme","Easier than Reference",25,"absent","Without Colors",1003,1348,0,1
"0x9wukaf1d4",67,"Moderate","Harder than Reference",46,"absent","Without Colors",806,2342,0,0
"0x9wukaf1d4",68,"Moderate","Easier than Reference",32,"absent","Without Colors",947,1407,0,0
"0x9wukaf1d4",69,"Moderate","Harder than Reference",32,"present","Without Colors",733,1335,1,0
"0x9wukaf1d4",70,"Extreme","Easier than Reference",18,"absent","Without Colors",618,965,0,0
"0x9wukaf1d4",71,"Moderate","Easier than Reference",18,"present","Without Colors",592,1015,0,1
"0x9wukaf1d4",72,"Extreme","Harder than Reference",32,"absent","Without Colors",1042,1681,0,0
"0x9wukaf1d4",73,"Extreme","Easier than Reference",25,"present","Without Colors",715,1256,0,1
"0x9wukaf1d4",74,"Extreme","Harder than Reference",32,"present","Without Colors",670,1135,1,0
"0x9wukaf1d4",75,"Moderate","Harder than Reference",39,"absent","Without Colors",347,1799,0,1
"0x9wukaf1d4",76,"Moderate","Easier than Reference",18,"absent","Without Colors",1225,2073,0,1
"0x9wukaf1d4",77,"Extreme","Easier than Reference",25,"present","Without Colors",675,1059,1,1
"0x9wukaf1d4",78,"Extreme","Harder than Reference",60,"absent","Without Colors",800,3195,0,0
"0x9wukaf1d4",79,"Moderate","Harder than Reference",32,"absent","Without Colors",635,1836,0,0
"0x9wukaf1d4",80,"Moderate","Easier than Reference",18,"absent","Without Colors",665,1316,0,1
"0x9wukaf1d4",81,"Moderate","Easier than Reference",18,"absent","Without Colors",994,1199,0,1
"0x9wukaf1d4",82,"Extreme","Harder than Reference",32,"present","Without Colors",620,1655,0,0
"0x9wukaf1d4",83,"Moderate","Harder than Reference",46,"absent","Without Colors",651,3112,0,0
"0x9wukaf1d4",84,"Extreme","Easier than Reference",25,"present","Without Colors",862,1431,0,1
"0x9wukaf1d4",85,"Moderate","Harder than Reference",39,"present","Without Colors",703,3460,1,1
"0x9wukaf1d4",86,"Extreme","Easier than Reference",25,"present","Without Colors",856,669,0,1
"0x9wukaf1d4",87,"Extreme","Harder than Reference",46,"present","Without Colors",639,1168,0,1
"0x9wukaf1d4",88,"Moderate","Easier than Reference",18,"present","Without Colors",1382,1501,0,1
"0x9wukaf1d4",89,"Extreme","Harder than Reference",60,"present","Without Colors",898,825,1,0
"0x9wukaf1d4",90,"Moderate","Easier than Reference",18,"absent","Without Colors",468,1869,0,1
"0x9wukaf1d4",91,"Extreme","Easier than Reference",25,"absent","Without Colors",932,2249,0,1
"0x9wukaf1d4",93,"Moderate","Easier than Reference",18,"present","Without Colors",487,1230,0,1
"0x9wukaf1d4",94,"Moderate","Harder than Reference",32,"present","Without Colors",605,1269,1,0
"0x9wukaf1d4",95,"Extreme","Harder than Reference",32,"absent","Without Colors",684,2683,0,0
"0x9wukaf1d4",96,"Extreme","Easier than Reference",25,"absent","Without Colors",783,2229,0,1
"0x9wukaf1d4",97,"Extreme","Easier than Reference",32,"present","Without Colors",924,1292,0,0
"0x9wukaf1d4",98,"Moderate","Easier than Reference",4,"present","Without Colors",528,750,1,0
"0x9wukaf1d4",99,"Extreme","Harder than Reference",60,"absent","Without Colors",687,4171,0,0
"0x9wukaf1d4",100,"Moderate","Harder than Reference",32,"absent","Without Colors",930,2343,0,0
"0x9wukaf1d4",101,"Moderate","Harder than Reference",46,"absent","Without Colors",614,1293,0,0
"0x9wukaf1d4",102,"Moderate","Easier than Reference",32,"absent","Without Colors",649,1841,0,0
"0x9wukaf1d4",103,"Extreme","Easier than Reference",32,"present","Without Colors",673,2520,1,0
"0x9wukaf1d4",104,"Extreme","Harder than Reference",32,"present","Without Colors",1391,2370,1,0
"0x9wukaf1d4",105,"Moderate","Harder than Reference",46,"present","Without Colors",513,1635,0,0
"0x9wukaf1d4",106,"Extreme","Easier than Reference",25,"present","Without Colors",384,1867,0,1
"0x9wukaf1d4",107,"Extreme","Harder than Reference",60,"present","Without Colors",613,3038,0,0
"0x9wukaf1d4",108,"Moderate","Easier than Reference",32,"absent","Without Colors",869,2673,0,0
"0x9wukaf1d4",109,"Moderate","Harder than Reference",32,"absent","Without Colors",958,1802,0,0
"0x9wukaf1d4",110,"Moderate","Easier than Reference",4,"present","Without Colors",991,510,0,0
"0x9wukaf1d4",111,"Extreme","Harder than Reference",32,"absent","Without Colors",843,2014,0,0
"0x9wukaf1d4",112,"Extreme","Easier than Reference",25,"absent","Without Colors",793,1690,0,1
"0x9wukaf1d4",113,"Moderate","Easier than Reference",32,"present","Without Colors",596,996,0,0
"0x9wukaf1d4",114,"Extreme","Easier than Reference",25,"absent","Without Colors",602,2205,0,1
"0x9wukaf1d4",115,"Moderate","Harder than Reference",46,"absent","Without Colors",813,2511,0,0
"0x9wukaf1d4",116,"Extreme","Harder than Reference",46,"present","Without Colors",537,2313,1,1
"0x9wukaf1d4",117,"Extreme","Harder than Reference",32,"present","Without Colors",649,871,0,0
"0x9wukaf1d4",118,"Moderate","Harder than Reference",46,"absent","Without Colors",851,1803,0,0
"0x9wukaf1d4",119,"Moderate","Easier than Reference",4,"present","Without Colors",902,850,0,0
"0x9wukaf1d4",120,"Extreme","Easier than Reference",32,"present","Without Colors",652,2088,1,0
"0x9wukaf1d4",121,"Moderate","Harder than Reference",39,"present","Without Colors",584,2904,0,1
"0x9wukaf1d4",122,"Extreme","Easier than Reference",32,"absent","Without Colors",961,2116,0,0
"0x9wukaf1d4",123,"Moderate","Easier than Reference",32,"absent","Without Colors",647,3486,0,0
"0x9wukaf1d4",124,"Extreme","Harder than Reference",60,"absent","Without Colors",1079,2037,0,0
"0x9wukaf1d4",125,"Moderate","Easier than Reference",32,"present","Without Colors",820,1165,0,0
"0x9wukaf1d4",126,"Extreme","Harder than Reference",32,"absent","Without Colors",583,2452,0,0
"0x9wukaf1d4",127,"Extreme","Easier than Reference",32,"present","Without Colors",820,2543,0,0
"0x9wukaf1d4",128,"Moderate","Harder than Reference",46,"present","Without Colors",901,2216,0,0
"0x9wukaf1d4",129,"Moderate","Easier than Reference",32,"present","Without Colors",784,1727,1,0
"0x9wukaf1d4",130,"Moderate","Harder than Reference",32,"absent","Without Colors",689,1729,0,0
"0x9wukaf1d4",131,"Extreme","Harder than Reference",60,"absent","Without Colors",1022,4146,0,0
"0x9wukaf1d4",132,"Extreme","Easier than Reference",32,"present","Without Colors",643,1178,1,0
"0x9wukaf1d4",133,"Extreme","Harder than Reference",32,"absent","Without Colors",501,1147,0,0
"0x9wukaf1d4",134,"Moderate","Easier than Reference",4,"absent","Without Colors",434,1029,0,0
"0x9wukaf1d4",135,"Extreme","Easier than Reference",18,"absent","Without Colors",652,1232,0,0
"0x9wukaf1d4",136,"Moderate","Harder than Reference",46,"absent","Without Colors",473,981,0,0
"0x9wukaf1d4",137,"Extreme","Harder than Reference",32,"absent","Without Colors",396,2500,0,0
"0x9wukaf1d4",138,"Moderate","Easier than Reference",32,"present","Without Colors",423,1057,0,0
"0x9wukaf1d4",139,"Extreme","Easier than Reference",18,"absent","Without Colors",718,1742,0,0
"0x9wukaf1d4",140,"Moderate","Harder than Reference",39,"present","Without Colors",346,1406,0,1
"0x9wukaf1d4",142,"Extreme","Easier than Reference",25,"absent","Without Colors",448,1972,0,1
"0x9wukaf1d4",143,"Moderate","Easier than Reference",4,"absent","Without Colors",345,878,0,0
"0x9wukaf1d4",145,"Extreme","Easier than Reference",18,"present","Without Colors",760,1044,0,0
"0x9wukaf1d4",146,"Extreme","Harder than Reference",60,"present","Without Colors",605,1466,1,0
"0x9wukaf1d4",148,"Moderate","Harder than Reference",46,"present","Without Colors",590,2817,0,0
"0x9wukaf1d4",149,"Moderate","Harder than Reference",32,"absent","Without Colors",841,3066,0,0
"0x9wukaf1d4",150,"Extreme","Harder than Reference",60,"absent","Without Colors",664,2382,0,0
"0x9wukaf1d4",151,"Extreme","Easier than Reference",18,"absent","Without Colors",784,2477,0,0
"0x9wukaf1d4",152,"Moderate","Easier than Reference",32,"present","Without Colors",939,2316,1,0
"0x9wukaf1d4",153,"Moderate","Easier than Reference",18,"absent","Without Colors",341,983,0,1
"0x9wukaf1d4",154,"Extreme","Harder than Reference",32,"absent","Without Colors",706,1177,0,0
"0x9wukaf1d4",155,"Extreme","Easier than Reference",25,"present","Without Colors",431,2265,1,1
"0x9wukaf1d4",156,"Moderate","Harder than Reference",46,"absent","Without Colors",819,917,0,0
"0x9wukaf1d4",157,"Moderate","Harder than Reference",46,"absent","Without Colors",501,2037,0,0
"0x9wukaf1d4",159,"Extreme","Easier than Reference",25,"absent","Without Colors",524,1721,0,1
"0x9wukaf1d4",160,"Extreme","Harder than Reference",32,"present","Without Colors",967,1316,1,0
"0x9wukaf1d4",161,"Moderate","Harder than Reference",46,"absent","Without Colors",584,1319,0,0
"0x9wukaf1d4",162,"Moderate","Easier than Reference",18,"present","Without Colors",533,877,0,1
"0x9wukaf1d4",163,"Extreme","Harder than Reference",60,"absent","Without Colors",636,1523,0,0
"0x9wukaf1d4",164,"Extreme","Easier than Reference",18,"present","Without Colors",756,865,0,0
"0x9wukaf1d4",165,"Moderate","Easier than Reference",4,"absent","Without Colors",550,1044,0,0
"0x9wukaf1d4",166,"Extreme","Easier than Reference",18,"absent","Without Colors",871,1225,0,0
"0x9wukaf1d4",167,"Moderate","Harder than Reference",46,"present","Without Colors",603,990,1,0
"0x9wukaf1d4",168,"Extreme","Harder than Reference",32,"absent","Without Colors",683,1193,0,0
"0x9wukaf1d4",169,"Extreme","Easier than Reference",25,"absent","Without Colors",654,1455,0,1
"0x9wukaf1d4",170,"Extreme","Harder than Reference",60,"absent","Without Colors",697,2441,0,0
"0x9wukaf1d4",171,"Moderate","Harder than Reference",32,"absent","Without Colors",693,1500,0,0
"0x9wukaf1d4",172,"Moderate","Easier than Reference",32,"absent","Without Colors",1152,1157,0,0
"0x9wukaf1d4",173,"Extreme","Easier than Reference",32,"present","Without Colors",652,962,0,0
"0x9wukaf1d4",174,"Moderate","Harder than Reference",39,"present","Without Colors",416,1181,0,1
"0x9wukaf1d4",175,"Moderate","Easier than Reference",4,"present","Without Colors",567,1085,0,0
"0x9wukaf1d4",176,"Extreme","Harder than Reference",60,"absent","Without Colors",592,1878,0,0
"0x9wukaf1d4",177,"Moderate","Easier than Reference",4,"absent","Without Colors",1401,2673,0,0
"0x9wukaf1d4",178,"Extreme","Easier than Reference",18,"absent","Without Colors",662,1026,0,0
"0x9wukaf1d4",179,"Extreme","Harder than Reference",32,"absent","Without Colors",372,936,0,0
"0x9wukaf1d4",180,"Moderate","Harder than Reference",32,"present","Without Colors",567,964,1,0
"0x9wukaf1d4",181,"Moderate","Easier than Reference",32,"present","Without Colors",540,1740,1,0
"0x9wukaf1d4",182,"Extreme","Easier than Reference",25,"absent","Without Colors",387,1400,0,1
"0x9wukaf1d4",183,"Moderate","Harder than Reference",32,"present","Without Colors",486,1436,0,0
"0x9wukaf1d4",184,"Extreme","Harder than Reference",32,"present","Without Colors",808,1432,0,0
"0x9wukaf1d4",185,"Extreme","Harder than Reference",60,"present","Without Colors",545,3517,1,0
"0x9wukaf1d4",186,"Moderate","Harder than Reference",46,"absent","Without Colors",895,2954,0,0
"0x9wukaf1d4",187,"Extreme","Easier than Reference",32,"absent","Without Colors",541,2322,0,0
"0x9wukaf1d4",188,"Moderate","Easier than Reference",18,"absent","Without Colors",466,1729,0,1
"0x9wukaf1d4",189,"Extreme","Easier than Reference",25,"present","Without Colors",468,1234,0,1
"0x9wukaf1d4",190,"Moderate","Harder than Reference",32,"absent","Without Colors",458,2460,0,0
"0x9wukaf1d4",191,"Moderate","Easier than Reference",18,"present","Without Colors",481,1075,0,1
"0x9wukaf1d4",192,"Extreme","Harder than Reference",32,"present","Without Colors",493,2586,0,0
"0x9wukaf1d4",193,"Moderate","Harder than Reference",46,"absent","Without Colors",778,2886,0,0
"0x9wukaf1d4",194,"Extreme","Easier than Reference",25,"absent","Without Colors",479,772,1,1
"0x9wukaf1d4",195,"Moderate","Easier than Reference",4,"absent","Without Colors",429,881,0,0
"0x9wukaf1d4",196,"Extreme","Harder than Reference",46,"present","Without Colors",547,1119,1,1
"0x9wukaf1d4",197,"Moderate","Easier than Reference",32,"present","Without Colors",594,997,0,0
"0x9wukaf1d4",198,"Extreme","Easier than Reference",25,"present","Without Colors",508,1264,0,1
"0x9wukaf1d4",199,"Extreme","Harder than Reference",60,"present","Without Colors",437,1614,0,0
"0x9wukaf1d4",200,"Moderate","Harder than Reference",46,"present","Without Colors",536,1705,0,0
"0x9wukaf1d4",201,"Moderate","Easier than Reference",32,"present","Without Colors",605,961,0,0
"0x9wukaf1d4",202,"Extreme","Harder than Reference",60,"absent","Without Colors",579,3463,0,0
"0x9wukaf1d4",203,"Extreme","Easier than Reference",18,"present","Without Colors",542,701,0,0
"0x9wukaf1d4",204,"Moderate","Harder than Reference",39,"absent","Without Colors",759,2188,0,1
"0x9wukaf1d4",205,"Moderate","Easier than Reference",4,"present","Without Colors",639,509,0,0
"0x9wukaf1d4",206,"Extreme","Easier than Reference",25,"absent","Without Colors",632,1187,0,1
"0x9wukaf1d4",207,"Moderate","Harder than Reference",32,"present","Without Colors",568,1069,0,0
"0x9wukaf1d4",208,"Extreme","Harder than Reference",32,"present","Without Colors",668,1646,1,0
"0x9wukaf1d4",209,"Moderate","Harder than Reference",32,"present","Without Colors",911,1574,0,0
"0x9wukaf1d4",210,"Moderate","Easier than Reference",4,"present","Without Colors",586,481,0,0
"0x9wukaf1d4",211,"Extreme","Harder than Reference",32,"absent","Without Colors",511,2077,0,0
"0x9wukaf1d4",212,"Extreme","Easier than Reference",32,"absent","Without Colors",829,1228,0,0
"0x9wukaf1d4",213,"Moderate","Harder than Reference",39,"present","Without Colors",671,1760,0,1
"0x9wukaf1d4",214,"Moderate","Easier than Reference",4,"present","Without Colors",667,679,0,0
"0x9wukaf1d4",215,"Extreme","Easier than Reference",18,"present","Without Colors",609,575,0,0
"0x9wukaf1d4",216,"Extreme","Harder than Reference",60,"absent","Without Colors",693,3864,0,0
"0x9wukaf1d4",217,"Extreme","Harder than Reference",46,"absent","Without Colors",638,2980,0,1
"0x9wukaf1d4",218,"Moderate","Easier than Reference",18,"present","Without Colors",396,1277,0,1
"0x9wukaf1d4",219,"Extreme","Easier than Reference",32,"present","Without Colors",301,1007,1,0
"0x9wukaf1d4",220,"Moderate","Harder than Reference",39,"absent","Without Colors",389,2600,0,1
"0x9wukaf1d4",221,"Moderate","Harder than Reference",46,"absent","Without Colors",655,2915,0,0
"0x9wukaf1d4",222,"Moderate","Easier than Reference",32,"present","Without Colors",566,1487,0,0
"0x9wukaf1d4",223,"Extreme","Harder than Reference",46,"present","Without Colors",456,1075,0,1
"0x9wukaf1d4",224,"Extreme","Easier than Reference",18,"absent","Without Colors",676,1693,0,0
"0x9wukaf1d4",225,"Extreme","Harder than Reference",46,"present","Without Colors",611,2411,1,1
"0x9wukaf1d4",227,"Moderate","Easier than Reference",18,"present","Without Colors",330,717,0,1
"0x9wukaf1d4",228,"Extreme","Easier than Reference",32,"present","Without Colors",497,1734,0,0
"0x9wukaf1d4",230,"Moderate","Easier than Reference",18,"present","Without Colors",408,815,0,1
"0x9wukaf1d4",231,"Extreme","Easier than Reference",18,"absent","Without Colors",314,1382,0,0
"0x9wukaf1d4",232,"Moderate","Harder than Reference",32,"absent","Without Colors",317,1725,0,0
"0x9wukaf1d4",233,"Moderate","Easier than Reference",32,"absent","Without Colors",307,1850,0,0
"0x9wukaf1d4",234,"Extreme","Easier than Reference",32,"absent","Without Colors",419,1677,0,0
"0x9wukaf1d4",235,"Extreme","Harder than Reference",32,"present","Without Colors",310,1564,0,0
"0x9wukaf1d4",236,"Moderate","Harder than Reference",46,"present","Without Colors",346,1094,0,0
"0x9wukaf1d4",237,"Moderate","Easier than Reference",18,"present","Without Colors",385,836,0,1
"0x9wukaf1d4",238,"Extreme","Harder than Reference",32,"present","Without Colors",487,1295,0,0
"0x9wukaf1d4",239,"Moderate","Harder than Reference",32,"present","Without Colors",409,1395,0,0
"0x9wukaf1d4",240,"Extreme","Easier than Reference",25,"absent","Without Colors",648,1905,0,1
"0x9wukaf1d4",241,"Moderate","Easier than Reference",18,"present","Without Colors",425,2248,1,1
"0x9wukaf1d4",242,"Moderate","Harder than Reference",39,"absent","Without Colors",540,1695,0,1
"0x9wukaf1d4",243,"Extreme","Easier than Reference",32,"present","Without Colors",740,1526,0,0
"0x9wukaf1d4",246,"Moderate","Harder than Reference",46,"absent","Without Colors",311,1772,0,0
"0x9wukaf1d4",248,"Extreme","Easier than Reference",32,"present","Without Colors",355,1021,0,0
"0x9wukaf1d4",249,"Extreme","Harder than Reference",32,"absent","Without Colors",338,1234,0,0
"0x9wukaf1d4",250,"Moderate","Harder than Reference",46,"absent","Without Colors",327,1730,0,0
"0x9wukaf1d4",252,"Extreme","Easier than Reference",25,"absent","Without Colors",477,810,0,1
"0x9wukaf1d4",253,"Moderate","Harder than Reference",46,"absent","Without Colors",345,1344,0,0
"0x9wukaf1d4",255,"Extreme","Harder than Reference",46,"absent","Without Colors",325,1888,0,1
"0x9wukaf1d4",256,"Extreme","Easier than Reference",32,"absent","Without Colors",302,1166,0,0
"0x9wukaf1d4",258,"Moderate","Harder than Reference",32,"present","Without Colors",1140,1151,0,0
"0x9wukaf1d4",259,"Extreme","Harder than Reference",32,"absent","Without Colors",570,1438,0,0
"0x9wukaf1d4",260,"Extreme","Easier than Reference",18,"absent","Without Colors",415,1580,0,0
"0x9wukaf1d4",261,"Moderate","Harder than Reference",32,"present","Without Colors",363,1126,0,0
"0x9wukaf1d4",262,"Moderate","Easier than Reference",32,"absent","Without Colors",869,1537,0,0
"0x9wukaf1d4",263,"Extreme","Harder than Reference",46,"present","Without Colors",312,3732,1,1
"0x9wukaf1d4",264,"Extreme","Easier than Reference",25,"absent","Without Colors",493,1349,0,1
"0x9wukaf1d4",265,"Extreme","Harder than Reference",46,"present","Without Colors",659,1008,1,1
"0x9wukaf1d4",266,"Moderate","Harder than Reference",39,"absent","Without Colors",339,1515,0,1
"0x9wukaf1d4",268,"Extreme","Easier than Reference",18,"present","Without Colors",601,766,0,0
"0x9wukaf1d4",269,"Moderate","Easier than Reference",32,"present","Without Colors",577,1447,0,0
"0x9wukaf1d4",270,"Extreme","Easier than Reference",25,"absent","Without Colors",378,2055,0,1
"0x9wukaf1d4",273,"Extreme","Harder than Reference",60,"absent","Without Colors",418,3833,0,0
"0x9wukaf1d4",274,"Moderate","Harder than Reference",39,"present","Without Colors",522,1426,0,1
"0x9wukaf1d4",275,"Moderate","Easier than Reference",32,"present","Without Colors",409,1476,0,0
"0x9wukaf1d4",276,"Extreme","Easier than Reference",25,"present","Without Colors",389,719,0,1
"0x9wukaf1d4",277,"Extreme","Harder than Reference",60,"absent","Without Colors",363,2836,0,0
"0x9wukaf1d4",278,"Extreme","Easier than Reference",32,"present","Without Colors",403,2898,0,0
"0x9wukaf1d4",281,"Extreme","Harder than Reference",46,"absent","Without Colors",403,2248,1,1
"0x9wukaf1d4",282,"Moderate","Easier than Reference",4,"absent","Without Colors",918,1013,0,0
"0x9wukaf1d4",283,"Moderate","Harder than Reference",32,"absent","Without Colors",999,2057,0,0
"0x9wukaf1d4",284,"Extreme","Easier than Reference",25,"absent","Without Colors",466,1910,0,1
"0x9wukaf1d4",285,"Extreme","Easier than Reference",25,"present","Without Colors",371,1855,0,1
"0x9wukaf1d4",286,"Extreme","Harder than Reference",32,"absent","Without Colors",847,2560,0,0
"0x9wukaf1d4",287,"Moderate","Harder than Reference",39,"present","Without Colors",356,1578,0,1
"0x9wukaf1d4",288,"Moderate","Easier than Reference",32,"present","Without Colors",613,1246,0,0
"0x9wukaf1d4",289,"Extreme","Harder than Reference",60,"present","Without Colors",343,1155,0,0
"0x9wukaf1d4",291,"Moderate","Harder than Reference",32,"absent","Without Colors",329,1851,0,0
"0x9wukaf1d4",292,"Moderate","Easier than Reference",4,"absent","Without Colors",474,751,0,0
"0x9wukaf1d4",298,"Extreme","Harder than Reference",32,"absent","Without Colors",1025,2317,0,0
