subject,sona_id,curTime,userAgent,screenWidth,screenHeight,windowWidth,windowHeight,phase,phase_run_time,trial,exp_runtime_mins,phase_runtime_mins,condition,magnitude,direction,choice_response_key,search_response_key,left_deck_id,right_deck_id,risky_deck_outcome_top,risky_deck_outcome_bottom,safe_deck_outcome,selected_deck_location,selectedRiskyDeck,error,n_stimuli,present_or_absent,chosenDeckId,choice_rt,search_rt
mji1m77qyjl,13321,22/03/2022@10:21:24,"Mozilla/5.0 (Macintosh; Intel Mac OS X 10_15_7) AppleWebKit/537.36 (KHTML, like Gecko) Chrome/99.0.4844.51 Safari/537.36",1440,900,1440,689,main,958240,1,3,2,EM,Moderate,Easier than Reference,F,k,riskyDeck,safeDeck,-28,0,-14,right,0,1,18,present,safeDeck,8923,4822
mji1m77qyjl,13321,22/03/2022@10:21:24,"Mozilla/5.0 (Macintosh; Intel Mac OS X 10_15_7) AppleWebKit/537.36 (KHTML, like Gecko) Chrome/99.0.4844.51 Safari/537.36",1440,900,1440,689,main,958240,2,3,2,EE,Extreme,Easier than Reference,F,k,safeDeck,riskyDeck,-14,0,-7,right,1,1,18,present,riskyDeck,6862,5635
mji1m77qyjl,13321,22/03/2022@10:21:24,"Mozilla/5.0 (Macintosh; Intel Mac OS X 10_15_7) AppleWebKit/537.36 (KHTML, like Gecko) Chrome/99.0.4844.51 Safari/537.36",1440,900,1440,689,main,958240,3,3,2,HE,Extreme,Harder than Reference,F,k,riskyDeck,safeDeck,28,0,14,right,0,0,46,absent,safeDeck,5418,2445
mji1m77qyjl,13321,22/03/2022@10:21:24,"Mozilla/5.0 (Macintosh; Intel Mac OS X 10_15_7) AppleWebKit/537.36 (KHTML, like Gecko) Chrome/99.0.4844.51 Safari/537.36",1440,900,1440,689,main,958240,4,3,2,HM,Moderate,Harder than Reference,F,k,safeDeck,riskyDeck,14,0,7,right,1,0,32,absent,riskyDeck,2488,962
mji1m77qyjl,13321,22/03/2022@10:21:24,"Mozilla/5.0 (Macintosh; Intel Mac OS X 10_15_7) AppleWebKit/537.36 (KHTML, like Gecko) Chrome/99.0.4844.51 Safari/537.36",1440,900,1440,689,main,958240,5,4,2,HM,Moderate,Harder than Reference,D,k,riskyDeck,safeDeck,0,14,7,left,1,0,32,absent,riskyDeck,3223,1466
mji1m77qyjl,13321,22/03/2022@10:21:24,"Mozilla/5.0 (Macintosh; Intel Mac OS X 10_15_7) AppleWebKit/537.36 (KHTML, like Gecko) Chrome/99.0.4844.51 Safari/537.36",1440,900,1440,689,main,958240,6,4,3,EM,Moderate,Easier than Reference,D,j,riskyDeck,safeDeck,-28,0,-14,left,1,0,4,present,riskyDeck,1115,1467
mji1m77qyjl,13321,22/03/2022@10:21:24,"Mozilla/5.0 (Macintosh; Intel Mac OS X 10_15_7) AppleWebKit/537.36 (KHTML, like Gecko) Chrome/99.0.4844.51 Safari/537.36",1440,900,1440,689,main,958240,7,4,3,EE,Extreme,Easier than Reference,F,k,safeDeck,riskyDeck,-14,0,-7,right,1,0,18,absent,riskyDeck,785,745
mji1m77qyjl,13321,22/03/2022@10:21:24,"Mozilla/5.0 (Macintosh; Intel Mac OS X 10_15_7) AppleWebKit/537.36 (KHTML, like Gecko) Chrome/99.0.4844.51 Safari/537.36",1440,900,1440,689,main,958240,8,4,3,HE,Extreme,Harder than Reference,D,k,riskyDeck,safeDeck,0,28,14,left,1,0,32,absent,riskyDeck,1360,1843
mji1m77qyjl,13321,22/03/2022@10:21:24,"Mozilla/5.0 (Macintosh; Intel Mac OS X 10_15_7) AppleWebKit/537.36 (KHTML, like Gecko) Chrome/99.0.4844.51 Safari/537.36",1440,900,1440,689,main,958240,9,4,3,HM,Moderate,Harder than Reference,F,j,riskyDeck,safeDeck,0,14,7,right,0,0,39,present,safeDeck,1239,1331
mji1m77qyjl,13321,22/03/2022@10:21:24,"Mozilla/5.0 (Macintosh; Intel Mac OS X 10_15_7) AppleWebKit/537.36 (KHTML, like Gecko) Chrome/99.0.4844.51 Safari/537.36",1440,900,1440,689,main,958240,10,4,3,EM,Moderate,Easier than Reference,F,j,safeDeck,riskyDeck,-28,0,-14,right,1,1,4,absent,riskyDeck,1005,1379
mji1m77qyjl,13321,22/03/2022@10:21:24,"Mozilla/5.0 (Macintosh; Intel Mac OS X 10_15_7) AppleWebKit/537.36 (KHTML, like Gecko) Chrome/99.0.4844.51 Safari/537.36",1440,900,1440,689,main,958240,11,4,3,EE,Extreme,Easier than Reference,D,k,riskyDeck,safeDeck,-14,0,-7,left,1,0,32,absent,riskyDeck,1091,608
mji1m77qyjl,13321,22/03/2022@10:21:24,"Mozilla/5.0 (Macintosh; Intel Mac OS X 10_15_7) AppleWebKit/537.36 (KHTML, like Gecko) Chrome/99.0.4844.51 Safari/537.36",1440,900,1440,689,main,958240,12,4,3,HE,Extreme,Harder than Reference,D,k,riskyDeck,safeDeck,28,0,14,left,1,0,60,absent,riskyDeck,850,722
mji1m77qyjl,13321,22/03/2022@10:21:24,"Mozilla/5.0 (Macintosh; Intel Mac OS X 10_15_7) AppleWebKit/537.36 (KHTML, like Gecko) Chrome/99.0.4844.51 Safari/537.36",1440,900,1440,689,main,958240,13,4,3,HE,Extreme,Harder than Reference,D,k,riskyDeck,safeDeck,0,28,14,left,1,1,32,present,riskyDeck,1279,582
mji1m77qyjl,13321,22/03/2022@10:21:24,"Mozilla/5.0 (Macintosh; Intel Mac OS X 10_15_7) AppleWebKit/537.36 (KHTML, like Gecko) Chrome/99.0.4844.51 Safari/537.36",1440,900,1440,689,main,958240,14,4,3,EE,Extreme,Easier than Reference,F,k,safeDeck,riskyDeck,-14,0,-7,right,1,1,32,present,riskyDeck,1837,729
mji1m77qyjl,13321,22/03/2022@10:21:24,"Mozilla/5.0 (Macintosh; Intel Mac OS X 10_15_7) AppleWebKit/537.36 (KHTML, like Gecko) Chrome/99.0.4844.51 Safari/537.36",1440,900,1440,689,main,958240,15,4,3,EM,Moderate,Easier than Reference,F,k,safeDeck,riskyDeck,-28,0,-14,right,1,1,4,present,riskyDeck,1169,1047
mji1m77qyjl,13321,22/03/2022@10:21:24,"Mozilla/5.0 (Macintosh; Intel Mac OS X 10_15_7) AppleWebKit/537.36 (KHTML, like Gecko) Chrome/99.0.4844.51 Safari/537.36",1440,900,1440,689,main,958240,16,5,3,HM,Moderate,Harder than Reference,F,j,safeDeck,riskyDeck,14,0,7,right,1,0,32,present,riskyDeck,850,448
mji1m77qyjl,13321,22/03/2022@10:21:24,"Mozilla/5.0 (Macintosh; Intel Mac OS X 10_15_7) AppleWebKit/537.36 (KHTML, like Gecko) Chrome/99.0.4844.51 Safari/537.36",1440,900,1440,689,main,958240,17,5,4,HM,Moderate,Harder than Reference,D,j,riskyDeck,safeDeck,14,0,7,left,1,1,32,absent,riskyDeck,893,457
mji1m77qyjl,13321,22/03/2022@10:21:24,"Mozilla/5.0 (Macintosh; Intel Mac OS X 10_15_7) AppleWebKit/537.36 (KHTML, like Gecko) Chrome/99.0.4844.51 Safari/537.36",1440,900,1440,689,main,958240,18,5,4,HE,Extreme,Harder than Reference,D,k,riskyDeck,safeDeck,28,0,14,left,1,1,32,present,riskyDeck,964,482
mji1m77qyjl,13321,22/03/2022@10:21:24,"Mozilla/5.0 (Macintosh; Intel Mac OS X 10_15_7) AppleWebKit/537.36 (KHTML, like Gecko) Chrome/99.0.4844.51 Safari/537.36",1440,900,1440,689,main,958240,19,5,4,EM,Moderate,Easier than Reference,D,j,riskyDeck,safeDeck,0,-28,-14,left,1,0,4,present,riskyDeck,694,690
mji1m77qyjl,13321,22/03/2022@10:21:24,"Mozilla/5.0 (Macintosh; Intel Mac OS X 10_15_7) AppleWebKit/537.36 (KHTML, like Gecko) Chrome/99.0.4844.51 Safari/537.36",1440,900,1440,689,main,958240,20,5,4,EE,Extreme,Easier than Reference,F,k,safeDeck,riskyDeck,0,-14,-7,right,1,1,32,present,riskyDeck,823,715
mji1m77qyjl,13321,22/03/2022@10:21:24,"Mozilla/5.0 (Macintosh; Intel Mac OS X 10_15_7) AppleWebKit/537.36 (KHTML, like Gecko) Chrome/99.0.4844.51 Safari/537.36",1440,900,1440,689,main,958240,21,5,4,HE,Extreme,Harder than Reference,F,j,safeDeck,riskyDeck,28,0,14,right,1,1,60,absent,riskyDeck,749,551
mji1m77qyjl,13321,22/03/2022@10:21:24,"Mozilla/5.0 (Macintosh; Intel Mac OS X 10_15_7) AppleWebKit/537.36 (KHTML, like Gecko) Chrome/99.0.4844.51 Safari/537.36",1440,900,1440,689,main,958240,22,5,4,EM,Moderate,Easier than Reference,D,k,riskyDeck,safeDeck,0,-28,-14,left,1,0,32,absent,riskyDeck,871,5807
mji1m77qyjl,13321,22/03/2022@10:21:24,"Mozilla/5.0 (Macintosh; Intel Mac OS X 10_15_7) AppleWebKit/537.36 (KHTML, like Gecko) Chrome/99.0.4844.51 Safari/537.36",1440,900,1440,689,main,958240,23,5,4,EE,Extreme,Easier than Reference,F,j,safeDeck,riskyDeck,0,-14,-7,right,1,1,32,absent,riskyDeck,1809,1605
mji1m77qyjl,13321,22/03/2022@10:21:24,"Mozilla/5.0 (Macintosh; Intel Mac OS X 10_15_7) AppleWebKit/537.36 (KHTML, like Gecko) Chrome/99.0.4844.51 Safari/537.36",1440,900,1440,689,main,958240,24,5,4,HM,Moderate,Harder than Reference,F,j,safeDeck,riskyDeck,14,0,7,right,1,1,32,absent,riskyDeck,1327,2695
mji1m77qyjl,13321,22/03/2022@10:21:24,"Mozilla/5.0 (Macintosh; Intel Mac OS X 10_15_7) AppleWebKit/537.36 (KHTML, like Gecko) Chrome/99.0.4844.51 Safari/537.36",1440,900,1440,689,main,958240,25,5,4,HE,Extreme,Harder than Reference,D,j,safeDeck,riskyDeck,0,28,14,left,0,0,46,present,safeDeck,1374,496
mji1m77qyjl,13321,22/03/2022@10:21:24,"Mozilla/5.0 (Macintosh; Intel Mac OS X 10_15_7) AppleWebKit/537.36 (KHTML, like Gecko) Chrome/99.0.4844.51 Safari/537.36",1440,900,1440,689,main,958240,26,6,4,HM,Moderate,Harder than Reference,D,j,safeDeck,riskyDeck,0,14,7,left,0,1,39,absent,safeDeck,769,933
mji1m77qyjl,13321,22/03/2022@10:21:24,"Mozilla/5.0 (Macintosh; Intel Mac OS X 10_15_7) AppleWebKit/537.36 (KHTML, like Gecko) Chrome/99.0.4844.51 Safari/537.36",1440,900,1440,689,main,958240,27,6,5,EE,Extreme,Easier than Reference,F,j,safeDeck,riskyDeck,0,-14,-7,right,1,1,32,absent,riskyDeck,436,959
mji1m77qyjl,13321,22/03/2022@10:21:24,"Mozilla/5.0 (Macintosh; Intel Mac OS X 10_15_7) AppleWebKit/537.36 (KHTML, like Gecko) Chrome/99.0.4844.51 Safari/537.36",1440,900,1440,689,main,958240,28,6,5,EM,Moderate,Easier than Reference,F,k,safeDeck,riskyDeck,0,-28,-14,right,1,0,4,absent,riskyDeck,1211,784
mji1m77qyjl,13321,22/03/2022@10:21:24,"Mozilla/5.0 (Macintosh; Intel Mac OS X 10_15_7) AppleWebKit/537.36 (KHTML, like Gecko) Chrome/99.0.4844.51 Safari/537.36",1440,900,1440,689,main,958240,29,6,5,EE,Extreme,Easier than Reference,D,j,riskyDeck,safeDeck,-14,0,-7,left,1,0,32,present,riskyDeck,863,853
mji1m77qyjl,13321,22/03/2022@10:21:24,"Mozilla/5.0 (Macintosh; Intel Mac OS X 10_15_7) AppleWebKit/537.36 (KHTML, like Gecko) Chrome/99.0.4844.51 Safari/537.36",1440,900,1440,689,main,958240,30,6,5,EM,Moderate,Easier than Reference,D,k,riskyDeck,safeDeck,-28,0,-14,left,1,1,4,present,riskyDeck,808,945
mji1m77qyjl,13321,22/03/2022@10:21:24,"Mozilla/5.0 (Macintosh; Intel Mac OS X 10_15_7) AppleWebKit/537.36 (KHTML, like Gecko) Chrome/99.0.4844.51 Safari/537.36",1440,900,1440,689,main,958240,31,6,5,HE,Extreme,Harder than Reference,D,j,riskyDeck,safeDeck,0,28,14,left,1,0,32,present,riskyDeck,289,352
mji1m77qyjl,13321,22/03/2022@10:21:24,"Mozilla/5.0 (Macintosh; Intel Mac OS X 10_15_7) AppleWebKit/537.36 (KHTML, like Gecko) Chrome/99.0.4844.51 Safari/537.36",1440,900,1440,689,main,958240,32,6,5,HM,Moderate,Harder than Reference,F,k,safeDeck,riskyDeck,0,14,7,right,1,1,32,present,riskyDeck,695,473
mji1m77qyjl,13321,22/03/2022@10:21:24,"Mozilla/5.0 (Macintosh; Intel Mac OS X 10_15_7) AppleWebKit/537.36 (KHTML, like Gecko) Chrome/99.0.4844.51 Safari/537.36",1440,900,1440,689,main,958240,33,6,5,EE,Extreme,Easier than Reference,D,j,riskyDeck,safeDeck,-14,0,-7,left,1,0,18,present,riskyDeck,131,592
mji1m77qyjl,13321,22/03/2022@10:21:24,"Mozilla/5.0 (Macintosh; Intel Mac OS X 10_15_7) AppleWebKit/537.36 (KHTML, like Gecko) Chrome/99.0.4844.51 Safari/537.36",1440,900,1440,689,main,958240,34,6,5,HM,Moderate,Harder than Reference,D,j,safeDeck,riskyDeck,14,0,7,left,0,1,39,absent,safeDeck,995,1519
mji1m77qyjl,13321,22/03/2022@10:21:24,"Mozilla/5.0 (Macintosh; Intel Mac OS X 10_15_7) AppleWebKit/537.36 (KHTML, like Gecko) Chrome/99.0.4844.51 Safari/537.36",1440,900,1440,689,main,958240,35,6,5,EM,Moderate,Easier than Reference,D,k,riskyDeck,safeDeck,-28,0,-14,left,1,1,4,present,riskyDeck,856,1120
mji1m77qyjl,13321,22/03/2022@10:21:24,"Mozilla/5.0 (Macintosh; Intel Mac OS X 10_15_7) AppleWebKit/537.36 (KHTML, like Gecko) Chrome/99.0.4844.51 Safari/537.36",1440,900,1440,689,main,958240,36,6,5,HE,Extreme,Harder than Reference,D,j,riskyDeck,safeDeck,0,28,14,left,1,0,32,present,riskyDeck,766,2483
mji1m77qyjl,13321,22/03/2022@10:21:24,"Mozilla/5.0 (Macintosh; Intel Mac OS X 10_15_7) AppleWebKit/537.36 (KHTML, like Gecko) Chrome/99.0.4844.51 Safari/537.36",1440,900,1440,689,main,958240,37,7,5,EM,Moderate,Easier than Reference,D,j,riskyDeck,safeDeck,-28,0,-14,left,1,0,4,present,riskyDeck,1526,880
mji1m77qyjl,13321,22/03/2022@10:21:24,"Mozilla/5.0 (Macintosh; Intel Mac OS X 10_15_7) AppleWebKit/537.36 (KHTML, like Gecko) Chrome/99.0.4844.51 Safari/537.36",1440,900,1440,689,main,958240,38,7,6,EE,Extreme,Easier than Reference,D,k,riskyDeck,safeDeck,0,-14,-7,left,1,1,32,present,riskyDeck,594,825
mji1m77qyjl,13321,22/03/2022@10:21:24,"Mozilla/5.0 (Macintosh; Intel Mac OS X 10_15_7) AppleWebKit/537.36 (KHTML, like Gecko) Chrome/99.0.4844.51 Safari/537.36",1440,900,1440,689,main,958240,39,7,6,HM,Moderate,Harder than Reference,D,k,riskyDeck,safeDeck,14,0,7,left,1,1,46,present,riskyDeck,2544,707
mji1m77qyjl,13321,22/03/2022@10:21:24,"Mozilla/5.0 (Macintosh; Intel Mac OS X 10_15_7) AppleWebKit/537.36 (KHTML, like Gecko) Chrome/99.0.4844.51 Safari/537.36",1440,900,1440,689,main,958240,40,7,6,HE,Extreme,Harder than Reference,F,j,safeDeck,riskyDeck,28,0,14,right,1,1,60,absent,riskyDeck,705,3054
mji1m77qyjl,13321,22/03/2022@10:21:24,"Mozilla/5.0 (Macintosh; Intel Mac OS X 10_15_7) AppleWebKit/537.36 (KHTML, like Gecko) Chrome/99.0.4844.51 Safari/537.36",1440,900,1440,689,main,958240,41,7,6,HE,Extreme,Harder than Reference,F,k,safeDeck,riskyDeck,28,0,14,right,1,1,60,present,riskyDeck,2043,803
mji1m77qyjl,13321,22/03/2022@10:21:24,"Mozilla/5.0 (Macintosh; Intel Mac OS X 10_15_7) AppleWebKit/537.36 (KHTML, like Gecko) Chrome/99.0.4844.51 Safari/537.36",1440,900,1440,689,main,958240,42,7,6,HM,Moderate,Harder than Reference,D,j,riskyDeck,safeDeck,14,0,7,left,1,1,46,absent,riskyDeck,396,415
mji1m77qyjl,13321,22/03/2022@10:21:24,"Mozilla/5.0 (Macintosh; Intel Mac OS X 10_15_7) AppleWebKit/537.36 (KHTML, like Gecko) Chrome/99.0.4844.51 Safari/537.36",1440,900,1440,689,main,958240,43,7,6,EE,Extreme,Easier than Reference,D,k,safeDeck,riskyDeck,-14,0,-7,left,0,0,25,absent,safeDeck,667,608
mji1m77qyjl,13321,22/03/2022@10:21:24,"Mozilla/5.0 (Macintosh; Intel Mac OS X 10_15_7) AppleWebKit/537.36 (KHTML, like Gecko) Chrome/99.0.4844.51 Safari/537.36",1440,900,1440,689,main,958240,44,7,6,EM,Moderate,Easier than Reference,F,k,safeDeck,riskyDeck,-28,0,-14,right,1,0,32,absent,riskyDeck,474,456
mji1m77qyjl,13321,22/03/2022@10:21:24,"Mozilla/5.0 (Macintosh; Intel Mac OS X 10_15_7) AppleWebKit/537.36 (KHTML, like Gecko) Chrome/99.0.4844.51 Safari/537.36",1440,900,1440,689,main,958240,45,7,6,HE,Extreme,Harder than Reference,F,j,safeDeck,riskyDeck,28,0,14,right,1,0,32,present,riskyDeck,513,984
mji1m77qyjl,13321,22/03/2022@10:21:24,"Mozilla/5.0 (Macintosh; Intel Mac OS X 10_15_7) AppleWebKit/537.36 (KHTML, like Gecko) Chrome/99.0.4844.51 Safari/537.36",1440,900,1440,689,main,958240,46,7,6,EE,Extreme,Easier than Reference,F,k,safeDeck,riskyDeck,-14,0,-7,right,1,1,32,present,riskyDeck,378,736
mji1m77qyjl,13321,22/03/2022@10:21:24,"Mozilla/5.0 (Macintosh; Intel Mac OS X 10_15_7) AppleWebKit/537.36 (KHTML, like Gecko) Chrome/99.0.4844.51 Safari/537.36",1440,900,1440,689,main,958240,47,8,6,EM,Moderate,Easier than Reference,F,j,riskyDeck,safeDeck,-28,0,-14,right,0,1,18,absent,safeDeck,511,703
mji1m77qyjl,13321,22/03/2022@10:21:24,"Mozilla/5.0 (Macintosh; Intel Mac OS X 10_15_7) AppleWebKit/537.36 (KHTML, like Gecko) Chrome/99.0.4844.51 Safari/537.36",1440,900,1440,689,main,958240,48,8,7,HM,Moderate,Harder than Reference,D,k,riskyDeck,safeDeck,14,0,7,left,1,1,46,present,riskyDeck,471,1114
mji1m77qyjl,13321,22/03/2022@10:21:24,"Mozilla/5.0 (Macintosh; Intel Mac OS X 10_15_7) AppleWebKit/537.36 (KHTML, like Gecko) Chrome/99.0.4844.51 Safari/537.36",1440,900,1440,689,main,958240,49,8,7,EM,Moderate,Easier than Reference,F,k,safeDeck,riskyDeck,0,-28,-14,right,1,1,32,present,riskyDeck,4708,1664
mji1m77qyjl,13321,22/03/2022@10:21:24,"Mozilla/5.0 (Macintosh; Intel Mac OS X 10_15_7) AppleWebKit/537.36 (KHTML, like Gecko) Chrome/99.0.4844.51 Safari/537.36",1440,900,1440,689,main,958240,50,8,7,HM,Moderate,Harder than Reference,D,j,riskyDeck,safeDeck,14,0,7,left,1,0,32,present,riskyDeck,450,1171
mji1m77qyjl,13321,22/03/2022@10:21:24,"Mozilla/5.0 (Macintosh; Intel Mac OS X 10_15_7) AppleWebKit/537.36 (KHTML, like Gecko) Chrome/99.0.4844.51 Safari/537.36",1440,900,1440,689,main,958240,51,8,7,HE,Extreme,Harder than Reference,D,k,riskyDeck,safeDeck,0,28,14,left,1,1,32,present,riskyDeck,552,921
mji1m77qyjl,13321,22/03/2022@10:21:24,"Mozilla/5.0 (Macintosh; Intel Mac OS X 10_15_7) AppleWebKit/537.36 (KHTML, like Gecko) Chrome/99.0.4844.51 Safari/537.36",1440,900,1440,689,main,958240,52,8,7,EE,Extreme,Easier than Reference,D,j,safeDeck,riskyDeck,0,-14,-7,left,0,1,25,absent,safeDeck,899,1476
mji1m77qyjl,13321,22/03/2022@10:21:24,"Mozilla/5.0 (Macintosh; Intel Mac OS X 10_15_7) AppleWebKit/537.36 (KHTML, like Gecko) Chrome/99.0.4844.51 Safari/537.36",1440,900,1440,689,main,958240,53,8,7,EE,Extreme,Easier than Reference,D,j,riskyDeck,safeDeck,0,-14,-7,left,1,1,18,absent,riskyDeck,600,446
mji1m77qyjl,13321,22/03/2022@10:21:24,"Mozilla/5.0 (Macintosh; Intel Mac OS X 10_15_7) AppleWebKit/537.36 (KHTML, like Gecko) Chrome/99.0.4844.51 Safari/537.36",1440,900,1440,689,main,958240,54,8,7,HE,Extreme,Harder than Reference,F,j,safeDeck,riskyDeck,28,0,14,right,1,1,32,absent,riskyDeck,750,684
mji1m77qyjl,13321,22/03/2022@10:21:24,"Mozilla/5.0 (Macintosh; Intel Mac OS X 10_15_7) AppleWebKit/537.36 (KHTML, like Gecko) Chrome/99.0.4844.51 Safari/537.36",1440,900,1440,689,main,958240,55,8,7,EM,Moderate,Easier than Reference,D,k,safeDeck,riskyDeck,-28,0,-14,left,0,0,18,absent,safeDeck,318,523
mji1m77qyjl,13321,22/03/2022@10:21:24,"Mozilla/5.0 (Macintosh; Intel Mac OS X 10_15_7) AppleWebKit/537.36 (KHTML, like Gecko) Chrome/99.0.4844.51 Safari/537.36",1440,900,1440,689,main,958240,56,8,7,HM,Moderate,Harder than Reference,D,k,safeDeck,riskyDeck,0,14,7,left,0,0,39,absent,safeDeck,373,389
mji1m77qyjl,13321,22/03/2022@10:21:24,"Mozilla/5.0 (Macintosh; Intel Mac OS X 10_15_7) AppleWebKit/537.36 (KHTML, like Gecko) Chrome/99.0.4844.51 Safari/537.36",1440,900,1440,689,main,958240,57,9,7,EE,Extreme,Easier than Reference,D,j,riskyDeck,safeDeck,-14,0,-7,left,1,0,18,present,riskyDeck,376,794
mji1m77qyjl,13321,22/03/2022@10:21:24,"Mozilla/5.0 (Macintosh; Intel Mac OS X 10_15_7) AppleWebKit/537.36 (KHTML, like Gecko) Chrome/99.0.4844.51 Safari/537.36",1440,900,1440,689,main,958240,58,9,8,HE,Extreme,Harder than Reference,D,k,riskyDeck,safeDeck,0,28,14,left,1,1,60,present,riskyDeck,368,744
mji1m77qyjl,13321,22/03/2022@10:21:24,"Mozilla/5.0 (Macintosh; Intel Mac OS X 10_15_7) AppleWebKit/537.36 (KHTML, like Gecko) Chrome/99.0.4844.51 Safari/537.36",1440,900,1440,689,main,958240,59,9,8,HM,Moderate,Harder than Reference,D,j,safeDeck,riskyDeck,0,14,7,left,0,0,39,present,safeDeck,453,698
mji1m77qyjl,13321,22/03/2022@10:21:24,"Mozilla/5.0 (Macintosh; Intel Mac OS X 10_15_7) AppleWebKit/537.36 (KHTML, like Gecko) Chrome/99.0.4844.51 Safari/537.36",1440,900,1440,689,main,958240,60,9,8,EM,Moderate,Easier than Reference,D,k,safeDeck,riskyDeck,0,-28,-14,left,0,0,18,absent,safeDeck,1023,603
mji1m77qyjl,13321,22/03/2022@10:21:24,"Mozilla/5.0 (Macintosh; Intel Mac OS X 10_15_7) AppleWebKit/537.36 (KHTML, like Gecko) Chrome/99.0.4844.51 Safari/537.36",1440,900,1440,689,main,958240,61,9,8,EM,Moderate,Easier than Reference,D,k,safeDeck,riskyDeck,-28,0,-14,left,0,1,18,present,safeDeck,415,921
mji1m77qyjl,13321,22/03/2022@10:21:24,"Mozilla/5.0 (Macintosh; Intel Mac OS X 10_15_7) AppleWebKit/537.36 (KHTML, like Gecko) Chrome/99.0.4844.51 Safari/537.36",1440,900,1440,689,main,958240,62,9,8,EE,Extreme,Easier than Reference,D,k,riskyDeck,safeDeck,-14,0,-7,left,1,1,32,present,riskyDeck,352,1191
mji1m77qyjl,13321,22/03/2022@10:21:24,"Mozilla/5.0 (Macintosh; Intel Mac OS X 10_15_7) AppleWebKit/537.36 (KHTML, like Gecko) Chrome/99.0.4844.51 Safari/537.36",1440,900,1440,689,main,958240,63,9,8,HM,Moderate,Harder than Reference,D,j,safeDeck,riskyDeck,0,14,7,left,0,1,39,absent,safeDeck,105,655
mji1m77qyjl,13321,22/03/2022@10:21:24,"Mozilla/5.0 (Macintosh; Intel Mac OS X 10_15_7) AppleWebKit/537.36 (KHTML, like Gecko) Chrome/99.0.4844.51 Safari/537.36",1440,900,1440,689,main,958240,64,9,8,HE,Extreme,Harder than Reference,D,k,safeDeck,riskyDeck,0,28,14,left,0,0,46,absent,safeDeck,387,459
mji1m77qyjl,13321,22/03/2022@10:21:24,"Mozilla/5.0 (Macintosh; Intel Mac OS X 10_15_7) AppleWebKit/537.36 (KHTML, like Gecko) Chrome/99.0.4844.51 Safari/537.36",1440,900,1440,689,main,958240,65,9,8,EE,Extreme,Easier than Reference,D,k,safeDeck,riskyDeck,0,-14,-7,left,0,1,25,present,safeDeck,356,2164
mji1m77qyjl,13321,22/03/2022@10:21:24,"Mozilla/5.0 (Macintosh; Intel Mac OS X 10_15_7) AppleWebKit/537.36 (KHTML, like Gecko) Chrome/99.0.4844.51 Safari/537.36",1440,900,1440,689,main,958240,66,9,8,HM,Moderate,Harder than Reference,D,j,riskyDeck,safeDeck,0,14,7,left,1,0,32,present,riskyDeck,364,322
mji1m77qyjl,13321,22/03/2022@10:21:24,"Mozilla/5.0 (Macintosh; Intel Mac OS X 10_15_7) AppleWebKit/537.36 (KHTML, like Gecko) Chrome/99.0.4844.51 Safari/537.36",1440,900,1440,689,main,958240,67,10,8,HE,Extreme,Harder than Reference,D,j,safeDeck,riskyDeck,0,28,14,left,0,0,46,present,safeDeck,10222,1052
mji1m77qyjl,13321,22/03/2022@10:21:24,"Mozilla/5.0 (Macintosh; Intel Mac OS X 10_15_7) AppleWebKit/537.36 (KHTML, like Gecko) Chrome/99.0.4844.51 Safari/537.36",1440,900,1440,689,main,958240,68,10,9,EM,Moderate,Easier than Reference,D,k,riskyDeck,safeDeck,-28,0,-14,left,1,1,4,present,riskyDeck,3252,650
mji1m77qyjl,13321,22/03/2022@10:21:24,"Mozilla/5.0 (Macintosh; Intel Mac OS X 10_15_7) AppleWebKit/537.36 (KHTML, like Gecko) Chrome/99.0.4844.51 Safari/537.36",1440,900,1440,689,main,958240,69,10,9,EM,Moderate,Easier than Reference,D,j,safeDeck,riskyDeck,-28,0,-14,left,0,1,18,absent,safeDeck,508,1146
mji1m77qyjl,13321,22/03/2022@10:21:24,"Mozilla/5.0 (Macintosh; Intel Mac OS X 10_15_7) AppleWebKit/537.36 (KHTML, like Gecko) Chrome/99.0.4844.51 Safari/537.36",1440,900,1440,689,main,958240,70,10,9,HE,Extreme,Harder than Reference,F,k,riskyDeck,safeDeck,28,0,14,right,0,0,46,absent,safeDeck,438,893
mji1m77qyjl,13321,22/03/2022@10:21:24,"Mozilla/5.0 (Macintosh; Intel Mac OS X 10_15_7) AppleWebKit/537.36 (KHTML, like Gecko) Chrome/99.0.4844.51 Safari/537.36",1440,900,1440,689,main,958240,71,10,9,HM,Moderate,Harder than Reference,D,k,riskyDeck,safeDeck,14,0,7,left,1,0,46,absent,riskyDeck,1397,551
mji1m77qyjl,13321,22/03/2022@10:21:24,"Mozilla/5.0 (Macintosh; Intel Mac OS X 10_15_7) AppleWebKit/537.36 (KHTML, like Gecko) Chrome/99.0.4844.51 Safari/537.36",1440,900,1440,689,main,958240,72,10,9,EE,Extreme,Easier than Reference,F,j,safeDeck,riskyDeck,0,-14,-7,right,1,0,18,present,riskyDeck,1198,368
mji1m77qyjl,13321,22/03/2022@10:21:24,"Mozilla/5.0 (Macintosh; Intel Mac OS X 10_15_7) AppleWebKit/537.36 (KHTML, like Gecko) Chrome/99.0.4844.51 Safari/537.36",1440,900,1440,689,main,958240,73,10,9,HM,Moderate,Harder than Reference,F,k,safeDeck,riskyDeck,14,0,7,right,1,0,46,absent,riskyDeck,886,417
mji1m77qyjl,13321,22/03/2022@10:21:24,"Mozilla/5.0 (Macintosh; Intel Mac OS X 10_15_7) AppleWebKit/537.36 (KHTML, like Gecko) Chrome/99.0.4844.51 Safari/537.36",1440,900,1440,689,main,958240,74,10,9,HE,Extreme,Harder than Reference,F,j,safeDeck,riskyDeck,28,0,14,right,1,0,32,present,riskyDeck,770,379
mji1m77qyjl,13321,22/03/2022@10:21:24,"Mozilla/5.0 (Macintosh; Intel Mac OS X 10_15_7) AppleWebKit/537.36 (KHTML, like Gecko) Chrome/99.0.4844.51 Safari/537.36",1440,900,1440,689,main,958240,75,10,9,EM,Moderate,Easier than Reference,D,j,safeDeck,riskyDeck,-28,0,-14,left,0,0,18,present,safeDeck,875,364
mji1m77qyjl,13321,22/03/2022@10:21:24,"Mozilla/5.0 (Macintosh; Intel Mac OS X 10_15_7) AppleWebKit/537.36 (KHTML, like Gecko) Chrome/99.0.4844.51 Safari/537.36",1440,900,1440,689,main,958240,76,10,9,EE,Extreme,Easier than Reference,D,j,riskyDeck,safeDeck,-14,0,-7,left,1,0,18,present,riskyDeck,645,460
mji1m77qyjl,13321,22/03/2022@10:21:24,"Mozilla/5.0 (Macintosh; Intel Mac OS X 10_15_7) AppleWebKit/537.36 (KHTML, like Gecko) Chrome/99.0.4844.51 Safari/537.36",1440,900,1440,689,main,958240,77,10,9,HM,Moderate,Harder than Reference,D,k,riskyDeck,safeDeck,0,14,7,left,1,0,46,absent,riskyDeck,1395,345
mji1m77qyjl,13321,22/03/2022@10:21:24,"Mozilla/5.0 (Macintosh; Intel Mac OS X 10_15_7) AppleWebKit/537.36 (KHTML, like Gecko) Chrome/99.0.4844.51 Safari/537.36",1440,900,1440,689,main,958240,78,10,9,EM,Moderate,Easier than Reference,D,j,safeDeck,riskyDeck,-28,0,-14,left,0,1,18,absent,safeDeck,972,335
mji1m77qyjl,13321,22/03/2022@10:21:24,"Mozilla/5.0 (Macintosh; Intel Mac OS X 10_15_7) AppleWebKit/537.36 (KHTML, like Gecko) Chrome/99.0.4844.51 Safari/537.36",1440,900,1440,689,main,958240,79,11,10,HE,Extreme,Harder than Reference,F,k,riskyDeck,safeDeck,0,28,14,right,0,0,46,absent,safeDeck,1050,529
mji1m77qyjl,13321,22/03/2022@10:21:24,"Mozilla/5.0 (Macintosh; Intel Mac OS X 10_15_7) AppleWebKit/537.36 (KHTML, like Gecko) Chrome/99.0.4844.51 Safari/537.36",1440,900,1440,689,main,958240,80,11,10,EE,Extreme,Easier than Reference,F,j,safeDeck,riskyDeck,0,-14,-7,right,1,0,18,present,riskyDeck,1214,558
mji1m77qyjl,13321,22/03/2022@10:21:24,"Mozilla/5.0 (Macintosh; Intel Mac OS X 10_15_7) AppleWebKit/537.36 (KHTML, like Gecko) Chrome/99.0.4844.51 Safari/537.36",1440,900,1440,689,main,958240,81,11,10,HE,Extreme,Harder than Reference,F,k,riskyDeck,safeDeck,0,28,14,right,0,1,46,present,safeDeck,1017,406
mji1m77qyjl,13321,22/03/2022@10:21:24,"Mozilla/5.0 (Macintosh; Intel Mac OS X 10_15_7) AppleWebKit/537.36 (KHTML, like Gecko) Chrome/99.0.4844.51 Safari/537.36",1440,900,1440,689,main,958240,82,11,10,EM,Moderate,Easier than Reference,D,k,safeDeck,riskyDeck,-28,0,-14,left,0,0,18,absent,safeDeck,560,489
mji1m77qyjl,13321,22/03/2022@10:21:24,"Mozilla/5.0 (Macintosh; Intel Mac OS X 10_15_7) AppleWebKit/537.36 (KHTML, like Gecko) Chrome/99.0.4844.51 Safari/537.36",1440,900,1440,689,main,958240,83,11,10,EE,Extreme,Easier than Reference,F,k,safeDeck,riskyDeck,0,-14,-7,right,1,0,18,absent,riskyDeck,741,526
mji1m77qyjl,13321,22/03/2022@10:21:24,"Mozilla/5.0 (Macintosh; Intel Mac OS X 10_15_7) AppleWebKit/537.36 (KHTML, like Gecko) Chrome/99.0.4844.51 Safari/537.36",1440,900,1440,689,main,958240,84,11,10,HM,Moderate,Harder than Reference,F,j,safeDeck,riskyDeck,14,0,7,right,1,0,32,present,riskyDeck,833,2345
mji1m77qyjl,13321,22/03/2022@10:21:24,"Mozilla/5.0 (Macintosh; Intel Mac OS X 10_15_7) AppleWebKit/537.36 (KHTML, like Gecko) Chrome/99.0.4844.51 Safari/537.36",1440,900,1440,689,main,958240,85,11,10,HE,Extreme,Harder than Reference,D,j,safeDeck,riskyDeck,28,0,14,left,0,0,46,present,safeDeck,1125,1490
mji1m77qyjl,13321,22/03/2022@10:21:24,"Mozilla/5.0 (Macintosh; Intel Mac OS X 10_15_7) AppleWebKit/537.36 (KHTML, like Gecko) Chrome/99.0.4844.51 Safari/537.36",1440,900,1440,689,main,958240,86,11,10,EM,Moderate,Easier than Reference,F,j,riskyDeck,safeDeck,0,-28,-14,right,0,1,18,absent,safeDeck,804,1031
mji1m77qyjl,13321,22/03/2022@10:21:24,"Mozilla/5.0 (Macintosh; Intel Mac OS X 10_15_7) AppleWebKit/537.36 (KHTML, like Gecko) Chrome/99.0.4844.51 Safari/537.36",1440,900,1440,689,main,958240,87,11,10,EE,Extreme,Easier than Reference,D,j,safeDeck,riskyDeck,0,-14,-7,left,0,0,25,present,safeDeck,785,1046
mji1m77qyjl,13321,22/03/2022@10:21:24,"Mozilla/5.0 (Macintosh; Intel Mac OS X 10_15_7) AppleWebKit/537.36 (KHTML, like Gecko) Chrome/99.0.4844.51 Safari/537.36",1440,900,1440,689,main,958240,88,11,10,HM,Moderate,Harder than Reference,D,k,safeDeck,riskyDeck,14,0,7,left,0,0,39,absent,safeDeck,966,641
mji1m77qyjl,13321,22/03/2022@10:21:24,"Mozilla/5.0 (Macintosh; Intel Mac OS X 10_15_7) AppleWebKit/537.36 (KHTML, like Gecko) Chrome/99.0.4844.51 Safari/537.36",1440,900,1440,689,main,958240,89,11,10,HM,Moderate,Harder than Reference,D,k,riskyDeck,safeDeck,0,14,7,left,1,1,32,present,riskyDeck,702,431
mji1m77qyjl,13321,22/03/2022@10:21:24,"Mozilla/5.0 (Macintosh; Intel Mac OS X 10_15_7) AppleWebKit/537.36 (KHTML, like Gecko) Chrome/99.0.4844.51 Safari/537.36",1440,900,1440,689,main,958240,90,12,10,HE,Extreme,Harder than Reference,F,k,safeDeck,riskyDeck,28,0,14,right,1,1,60,present,riskyDeck,541,965
mji1m77qyjl,13321,22/03/2022@10:21:24,"Mozilla/5.0 (Macintosh; Intel Mac OS X 10_15_7) AppleWebKit/537.36 (KHTML, like Gecko) Chrome/99.0.4844.51 Safari/537.36",1440,900,1440,689,main,958240,91,12,11,EM,Moderate,Easier than Reference,F,k,safeDeck,riskyDeck,0,-28,-14,right,1,1,32,present,riskyDeck,1111,503
mji1m77qyjl,13321,22/03/2022@10:21:24,"Mozilla/5.0 (Macintosh; Intel Mac OS X 10_15_7) AppleWebKit/537.36 (KHTML, like Gecko) Chrome/99.0.4844.51 Safari/537.36",1440,900,1440,689,main,958240,92,12,11,EE,Extreme,Easier than Reference,D,j,riskyDeck,safeDeck,0,-14,-7,left,1,0,32,present,riskyDeck,371,501
mji1m77qyjl,13321,22/03/2022@10:21:24,"Mozilla/5.0 (Macintosh; Intel Mac OS X 10_15_7) AppleWebKit/537.36 (KHTML, like Gecko) Chrome/99.0.4844.51 Safari/537.36",1440,900,1440,689,main,958240,93,12,11,EE,Extreme,Easier than Reference,F,j,safeDeck,riskyDeck,0,-14,-7,right,1,1,18,absent,riskyDeck,1113,391
mji1m77qyjl,13321,22/03/2022@10:21:24,"Mozilla/5.0 (Macintosh; Intel Mac OS X 10_15_7) AppleWebKit/537.36 (KHTML, like Gecko) Chrome/99.0.4844.51 Safari/537.36",1440,900,1440,689,main,958240,94,12,11,HM,Moderate,Harder than Reference,D,j,riskyDeck,safeDeck,14,0,7,left,1,0,46,present,riskyDeck,712,449
mji1m77qyjl,13321,22/03/2022@10:21:24,"Mozilla/5.0 (Macintosh; Intel Mac OS X 10_15_7) AppleWebKit/537.36 (KHTML, like Gecko) Chrome/99.0.4844.51 Safari/537.36",1440,900,1440,689,main,958240,95,12,11,EM,Moderate,Easier than Reference,D,j,safeDeck,riskyDeck,-28,0,-14,left,0,0,18,present,safeDeck,1104,1004
mji1m77qyjl,13321,22/03/2022@10:21:24,"Mozilla/5.0 (Macintosh; Intel Mac OS X 10_15_7) AppleWebKit/537.36 (KHTML, like Gecko) Chrome/99.0.4844.51 Safari/537.36",1440,900,1440,689,main,958240,96,12,11,HE,Extreme,Harder than Reference,F,k,riskyDeck,safeDeck,0,28,14,right,0,1,46,present,safeDeck,1048,480
mji1m77qyjl,13321,22/03/2022@10:21:24,"Mozilla/5.0 (Macintosh; Intel Mac OS X 10_15_7) AppleWebKit/537.36 (KHTML, like Gecko) Chrome/99.0.4844.51 Safari/537.36",1440,900,1440,689,main,958240,97,12,11,EE,Extreme,Easier than Reference,F,j,safeDeck,riskyDeck,-14,0,-7,right,1,1,18,absent,riskyDeck,756,441
mji1m77qyjl,13321,22/03/2022@10:21:24,"Mozilla/5.0 (Macintosh; Intel Mac OS X 10_15_7) AppleWebKit/537.36 (KHTML, like Gecko) Chrome/99.0.4844.51 Safari/537.36",1440,900,1440,689,main,958240,98,12,11,HM,Moderate,Harder than Reference,D,j,riskyDeck,safeDeck,14,0,7,left,1,1,32,absent,riskyDeck,491,411
mji1m77qyjl,13321,22/03/2022@10:21:24,"Mozilla/5.0 (Macintosh; Intel Mac OS X 10_15_7) AppleWebKit/537.36 (KHTML, like Gecko) Chrome/99.0.4844.51 Safari/537.36",1440,900,1440,689,main,958240,99,12,11,HE,Extreme,Harder than Reference,F,k,safeDeck,riskyDeck,0,28,14,right,1,1,60,present,riskyDeck,361,271
mji1m77qyjl,13321,22/03/2022@10:21:24,"Mozilla/5.0 (Macintosh; Intel Mac OS X 10_15_7) AppleWebKit/537.36 (KHTML, like Gecko) Chrome/99.0.4844.51 Safari/537.36",1440,900,1440,689,main,958240,100,12,11,EM,Moderate,Easier than Reference,D,j,safeDeck,riskyDeck,0,-28,-14,left,0,0,18,present,safeDeck,1462,287
mji1m77qyjl,13321,22/03/2022@10:21:24,"Mozilla/5.0 (Macintosh; Intel Mac OS X 10_15_7) AppleWebKit/537.36 (KHTML, like Gecko) Chrome/99.0.4844.51 Safari/537.36",1440,900,1440,689,main,958240,101,13,11,EE,Extreme,Easier than Reference,D,k,riskyDeck,safeDeck,0,-14,-7,left,1,0,32,absent,riskyDeck,541,405
mji1m77qyjl,13321,22/03/2022@10:21:24,"Mozilla/5.0 (Macintosh; Intel Mac OS X 10_15_7) AppleWebKit/537.36 (KHTML, like Gecko) Chrome/99.0.4844.51 Safari/537.36",1440,900,1440,689,main,958240,102,13,12,HM,Moderate,Harder than Reference,F,j,safeDeck,riskyDeck,0,14,7,right,1,0,46,present,riskyDeck,657,380
mji1m77qyjl,13321,22/03/2022@10:21:24,"Mozilla/5.0 (Macintosh; Intel Mac OS X 10_15_7) AppleWebKit/537.36 (KHTML, like Gecko) Chrome/99.0.4844.51 Safari/537.36",1440,900,1440,689,main,958240,103,13,12,HE,Extreme,Harder than Reference,D,j,riskyDeck,safeDeck,0,28,14,left,1,1,60,absent,riskyDeck,359,376
mji1m77qyjl,13321,22/03/2022@10:21:24,"Mozilla/5.0 (Macintosh; Intel Mac OS X 10_15_7) AppleWebKit/537.36 (KHTML, like Gecko) Chrome/99.0.4844.51 Safari/537.36",1440,900,1440,689,main,958240,104,13,12,EM,Moderate,Easier than Reference,D,k,safeDeck,riskyDeck,-28,0,-14,left,0,1,18,present,safeDeck,416,352
mji1m77qyjl,13321,22/03/2022@10:21:24,"Mozilla/5.0 (Macintosh; Intel Mac OS X 10_15_7) AppleWebKit/537.36 (KHTML, like Gecko) Chrome/99.0.4844.51 Safari/537.36",1440,900,1440,689,main,958240,105,13,12,EM,Moderate,Easier than Reference,D,j,riskyDeck,safeDeck,0,-28,-14,left,1,0,4,present,riskyDeck,105,659
mji1m77qyjl,13321,22/03/2022@10:21:24,"Mozilla/5.0 (Macintosh; Intel Mac OS X 10_15_7) AppleWebKit/537.36 (KHTML, like Gecko) Chrome/99.0.4844.51 Safari/537.36",1440,900,1440,689,main,958240,106,13,12,HM,Moderate,Harder than Reference,F,k,safeDeck,riskyDeck,14,0,7,right,1,1,32,present,riskyDeck,742,474
mji1m77qyjl,13321,22/03/2022@10:21:24,"Mozilla/5.0 (Macintosh; Intel Mac OS X 10_15_7) AppleWebKit/537.36 (KHTML, like Gecko) Chrome/99.0.4844.51 Safari/537.36",1440,900,1440,689,main,958240,107,13,12,HE,Extreme,Harder than Reference,F,k,safeDeck,riskyDeck,0,28,14,right,1,1,32,present,riskyDeck,500,378
mji1m77qyjl,13321,22/03/2022@10:21:24,"Mozilla/5.0 (Macintosh; Intel Mac OS X 10_15_7) AppleWebKit/537.36 (KHTML, like Gecko) Chrome/99.0.4844.51 Safari/537.36",1440,900,1440,689,main,958240,108,13,12,EE,Extreme,Easier than Reference,D,j,riskyDeck,safeDeck,0,-14,-7,left,1,1,18,absent,riskyDeck,312,398
mji1m77qyjl,13321,22/03/2022@10:21:24,"Mozilla/5.0 (Macintosh; Intel Mac OS X 10_15_7) AppleWebKit/537.36 (KHTML, like Gecko) Chrome/99.0.4844.51 Safari/537.36",1440,900,1440,689,main,958240,109,13,12,EE,Extreme,Easier than Reference,D,k,riskyDeck,safeDeck,0,-14,-7,left,1,0,32,absent,riskyDeck,601,354
mji1m77qyjl,13321,22/03/2022@10:21:24,"Mozilla/5.0 (Macintosh; Intel Mac OS X 10_15_7) AppleWebKit/537.36 (KHTML, like Gecko) Chrome/99.0.4844.51 Safari/537.36",1440,900,1440,689,main,958240,110,13,12,EM,Moderate,Easier than Reference,D,j,safeDeck,riskyDeck,-28,0,-14,left,0,1,18,absent,safeDeck,552,708
mji1m77qyjl,13321,22/03/2022@10:21:24,"Mozilla/5.0 (Macintosh; Intel Mac OS X 10_15_7) AppleWebKit/537.36 (KHTML, like Gecko) Chrome/99.0.4844.51 Safari/537.36",1440,900,1440,689,main,958240,111,13,12,HE,Extreme,Harder than Reference,F,j,riskyDeck,safeDeck,0,28,14,right,0,0,46,present,safeDeck,1035,290
mji1m77qyjl,13321,22/03/2022@10:21:24,"Mozilla/5.0 (Macintosh; Intel Mac OS X 10_15_7) AppleWebKit/537.36 (KHTML, like Gecko) Chrome/99.0.4844.51 Safari/537.36",1440,900,1440,689,main,958240,112,13,12,HM,Moderate,Harder than Reference,F,j,safeDeck,riskyDeck,14,0,7,right,1,1,46,absent,riskyDeck,916,368
mji1m77qyjl,13321,22/03/2022@10:21:24,"Mozilla/5.0 (Macintosh; Intel Mac OS X 10_15_7) AppleWebKit/537.36 (KHTML, like Gecko) Chrome/99.0.4844.51 Safari/537.36",1440,900,1440,689,main,958240,113,14,13,EM,Moderate,Easier than Reference,D,k,safeDeck,riskyDeck,0,-28,-14,left,0,0,18,absent,safeDeck,345,312
mji1m77qyjl,13321,22/03/2022@10:21:24,"Mozilla/5.0 (Macintosh; Intel Mac OS X 10_15_7) AppleWebKit/537.36 (KHTML, like Gecko) Chrome/99.0.4844.51 Safari/537.36",1440,900,1440,689,main,958240,114,14,13,HE,Extreme,Harder than Reference,D,j,riskyDeck,safeDeck,0,28,14,left,1,1,32,absent,riskyDeck,312,319
mji1m77qyjl,13321,22/03/2022@10:21:24,"Mozilla/5.0 (Macintosh; Intel Mac OS X 10_15_7) AppleWebKit/537.36 (KHTML, like Gecko) Chrome/99.0.4844.51 Safari/537.36",1440,900,1440,689,main,958240,115,14,13,HM,Moderate,Harder than Reference,F,k,safeDeck,riskyDeck,14,0,7,right,1,1,32,present,riskyDeck,1063,323
mji1m77qyjl,13321,22/03/2022@10:21:24,"Mozilla/5.0 (Macintosh; Intel Mac OS X 10_15_7) AppleWebKit/537.36 (KHTML, like Gecko) Chrome/99.0.4844.51 Safari/537.36",1440,900,1440,689,main,958240,116,14,13,EE,Extreme,Easier than Reference,D,j,riskyDeck,safeDeck,-14,0,-7,left,1,0,32,present,riskyDeck,733,263
mji1m77qyjl,13321,22/03/2022@10:21:24,"Mozilla/5.0 (Macintosh; Intel Mac OS X 10_15_7) AppleWebKit/537.36 (KHTML, like Gecko) Chrome/99.0.4844.51 Safari/537.36",1440,900,1440,689,main,958240,117,14,13,HM,Moderate,Harder than Reference,D,j,riskyDeck,safeDeck,0,14,7,left,1,1,46,absent,riskyDeck,790,604
mji1m77qyjl,13321,22/03/2022@10:21:24,"Mozilla/5.0 (Macintosh; Intel Mac OS X 10_15_7) AppleWebKit/537.36 (KHTML, like Gecko) Chrome/99.0.4844.51 Safari/537.36",1440,900,1440,689,main,958240,118,14,13,HE,Extreme,Harder than Reference,F,k,riskyDeck,safeDeck,28,0,14,right,0,0,46,absent,safeDeck,1131,3392
mji1m77qyjl,13321,22/03/2022@10:21:24,"Mozilla/5.0 (Macintosh; Intel Mac OS X 10_15_7) AppleWebKit/537.36 (KHTML, like Gecko) Chrome/99.0.4844.51 Safari/537.36",1440,900,1440,689,main,958240,119,14,13,EM,Moderate,Easier than Reference,D,j,safeDeck,riskyDeck,0,-28,-14,left,0,0,18,present,safeDeck,1317,997
mji1m77qyjl,13321,22/03/2022@10:21:24,"Mozilla/5.0 (Macintosh; Intel Mac OS X 10_15_7) AppleWebKit/537.36 (KHTML, like Gecko) Chrome/99.0.4844.51 Safari/537.36",1440,900,1440,689,main,958240,120,14,13,EE,Extreme,Easier than Reference,D,k,safeDeck,riskyDeck,0,-14,-7,left,0,1,25,present,safeDeck,798,2481
mji1m77qyjl,13321,22/03/2022@10:21:24,"Mozilla/5.0 (Macintosh; Intel Mac OS X 10_15_7) AppleWebKit/537.36 (KHTML, like Gecko) Chrome/99.0.4844.51 Safari/537.36",1440,900,1440,689,main,958240,121,14,13,HE,Extreme,Harder than Reference,D,k,safeDeck,riskyDeck,0,28,14,left,0,1,46,present,safeDeck,1171,914
mji1m77qyjl,13321,22/03/2022@10:21:24,"Mozilla/5.0 (Macintosh; Intel Mac OS X 10_15_7) AppleWebKit/537.36 (KHTML, like Gecko) Chrome/99.0.4844.51 Safari/537.36",1440,900,1440,689,main,958240,122,15,13,EE,Extreme,Easier than Reference,D,k,safeDeck,riskyDeck,-14,0,-7,left,0,1,25,present,safeDeck,543,1492
mji1m77qyjl,13321,22/03/2022@10:21:24,"Mozilla/5.0 (Macintosh; Intel Mac OS X 10_15_7) AppleWebKit/537.36 (KHTML, like Gecko) Chrome/99.0.4844.51 Safari/537.36",1440,900,1440,689,main,958240,123,15,14,HM,Moderate,Harder than Reference,F,k,safeDeck,riskyDeck,14,0,7,right,1,0,46,absent,riskyDeck,695,665
mji1m77qyjl,13321,22/03/2022@10:21:24,"Mozilla/5.0 (Macintosh; Intel Mac OS X 10_15_7) AppleWebKit/537.36 (KHTML, like Gecko) Chrome/99.0.4844.51 Safari/537.36",1440,900,1440,689,main,958240,124,15,14,EM,Moderate,Easier than Reference,D,j,safeDeck,riskyDeck,-28,0,-14,left,0,0,18,present,safeDeck,548,541
mji1m77qyjl,13321,22/03/2022@10:21:24,"Mozilla/5.0 (Macintosh; Intel Mac OS X 10_15_7) AppleWebKit/537.36 (KHTML, like Gecko) Chrome/99.0.4844.51 Safari/537.36",1440,900,1440,689,main,958240,125,15,14,HE,Extreme,Harder than Reference,D,k,safeDeck,riskyDeck,0,28,14,left,0,1,46,present,safeDeck,739,348
mji1m77qyjl,13321,22/03/2022@10:21:24,"Mozilla/5.0 (Macintosh; Intel Mac OS X 10_15_7) AppleWebKit/537.36 (KHTML, like Gecko) Chrome/99.0.4844.51 Safari/537.36",1440,900,1440,689,main,958240,126,15,14,EM,Moderate,Easier than Reference,F,k,safeDeck,riskyDeck,-28,0,-14,right,1,1,4,present,riskyDeck,461,414
mji1m77qyjl,13321,22/03/2022@10:21:24,"Mozilla/5.0 (Macintosh; Intel Mac OS X 10_15_7) AppleWebKit/537.36 (KHTML, like Gecko) Chrome/99.0.4844.51 Safari/537.36",1440,900,1440,689,main,958240,127,15,14,HM,Moderate,Harder than Reference,D,j,riskyDeck,safeDeck,0,14,7,left,1,0,32,present,riskyDeck,74,357
mji1m77qyjl,13321,22/03/2022@10:21:24,"Mozilla/5.0 (Macintosh; Intel Mac OS X 10_15_7) AppleWebKit/537.36 (KHTML, like Gecko) Chrome/99.0.4844.51 Safari/537.36",1440,900,1440,689,main,958240,128,15,14,EE,Extreme,Easier than Reference,D,j,riskyDeck,safeDeck,-14,0,-7,left,1,0,18,present,riskyDeck,26,415
mji1m77qyjl,13321,22/03/2022@10:21:24,"Mozilla/5.0 (Macintosh; Intel Mac OS X 10_15_7) AppleWebKit/537.36 (KHTML, like Gecko) Chrome/99.0.4844.51 Safari/537.36",1440,900,1440,689,main,958240,129,15,14,HE,Extreme,Harder than Reference,F,j,safeDeck,riskyDeck,28,0,14,right,1,1,60,absent,riskyDeck,663,440
mji1m77qyjl,13321,22/03/2022@10:21:24,"Mozilla/5.0 (Macintosh; Intel Mac OS X 10_15_7) AppleWebKit/537.36 (KHTML, like Gecko) Chrome/99.0.4844.51 Safari/537.36",1440,900,1440,689,main,958240,130,15,14,HM,Moderate,Harder than Reference,D,k,safeDeck,riskyDeck,14,0,7,left,0,1,39,present,safeDeck,4,393
mji1m77qyjl,13321,22/03/2022@10:21:24,"Mozilla/5.0 (Macintosh; Intel Mac OS X 10_15_7) AppleWebKit/537.36 (KHTML, like Gecko) Chrome/99.0.4844.51 Safari/537.36",1440,900,1440,689,main,958240,131,15,14,EM,Moderate,Easier than Reference,D,j,safeDeck,riskyDeck,0,-28,-14,left,0,0,18,present,safeDeck,60,350
mji1m77qyjl,13321,22/03/2022@10:21:24,"Mozilla/5.0 (Macintosh; Intel Mac OS X 10_15_7) AppleWebKit/537.36 (KHTML, like Gecko) Chrome/99.0.4844.51 Safari/537.36",1440,900,1440,689,main,958240,132,15,14,EE,Extreme,Easier than Reference,F,k,safeDeck,riskyDeck,-14,0,-7,right,1,0,18,absent,riskyDeck,485,304
mji1m77qyjl,13321,22/03/2022@10:21:24,"Mozilla/5.0 (Macintosh; Intel Mac OS X 10_15_7) AppleWebKit/537.36 (KHTML, like Gecko) Chrome/99.0.4844.51 Safari/537.36",1440,900,1440,689,main,958240,133,15,14,EE,Extreme,Easier than Reference,D,j,riskyDeck,safeDeck,-14,0,-7,left,1,0,18,present,riskyDeck,422,460
mji1m77qyjl,13321,22/03/2022@10:21:24,"Mozilla/5.0 (Macintosh; Intel Mac OS X 10_15_7) AppleWebKit/537.36 (KHTML, like Gecko) Chrome/99.0.4844.51 Safari/537.36",1440,900,1440,689,main,958240,134,15,14,HM,Moderate,Harder than Reference,F,k,riskyDeck,safeDeck,0,14,7,right,0,1,39,present,safeDeck,435,491
mji1m77qyjl,13321,22/03/2022@10:21:24,"Mozilla/5.0 (Macintosh; Intel Mac OS X 10_15_7) AppleWebKit/537.36 (KHTML, like Gecko) Chrome/99.0.4844.51 Safari/537.36",1440,900,1440,689,main,958240,135,16,14,EM,Moderate,Easier than Reference,D,j,riskyDeck,safeDeck,-28,0,-14,left,1,1,4,absent,riskyDeck,364,394
mji1m77qyjl,13321,22/03/2022@10:21:24,"Mozilla/5.0 (Macintosh; Intel Mac OS X 10_15_7) AppleWebKit/537.36 (KHTML, like Gecko) Chrome/99.0.4844.51 Safari/537.36",1440,900,1440,689,main,958240,136,16,15,HE,Extreme,Harder than Reference,F,k,safeDeck,riskyDeck,0,28,14,right,1,0,32,absent,riskyDeck,596,497
mji1m77qyjl,13321,22/03/2022@10:21:24,"Mozilla/5.0 (Macintosh; Intel Mac OS X 10_15_7) AppleWebKit/537.36 (KHTML, like Gecko) Chrome/99.0.4844.51 Safari/537.36",1440,900,1440,689,main,958240,137,16,15,HM,Moderate,Harder than Reference,D,j,riskyDeck,safeDeck,14,0,7,left,1,1,46,absent,riskyDeck,783,494
mji1m77qyjl,13321,22/03/2022@10:21:24,"Mozilla/5.0 (Macintosh; Intel Mac OS X 10_15_7) AppleWebKit/537.36 (KHTML, like Gecko) Chrome/99.0.4844.51 Safari/537.36",1440,900,1440,689,main,958240,138,16,15,EM,Moderate,Easier than Reference,D,k,riskyDeck,safeDeck,-28,0,-14,left,1,0,32,absent,riskyDeck,440,413
mji1m77qyjl,13321,22/03/2022@10:21:24,"Mozilla/5.0 (Macintosh; Intel Mac OS X 10_15_7) AppleWebKit/537.36 (KHTML, like Gecko) Chrome/99.0.4844.51 Safari/537.36",1440,900,1440,689,main,958240,139,16,15,EE,Extreme,Easier than Reference,D,k,riskyDeck,safeDeck,-14,0,-7,left,1,0,32,absent,riskyDeck,587,526
mji1m77qyjl,13321,22/03/2022@10:21:24,"Mozilla/5.0 (Macintosh; Intel Mac OS X 10_15_7) AppleWebKit/537.36 (KHTML, like Gecko) Chrome/99.0.4844.51 Safari/537.36",1440,900,1440,689,main,958240,140,16,15,HE,Extreme,Harder than Reference,D,k,riskyDeck,safeDeck,28,0,14,left,1,0,32,absent,riskyDeck,571,443
mji1m77qyjl,13321,22/03/2022@10:21:24,"Mozilla/5.0 (Macintosh; Intel Mac OS X 10_15_7) AppleWebKit/537.36 (KHTML, like Gecko) Chrome/99.0.4844.51 Safari/537.36",1440,900,1440,689,main,958240,141,16,15,EM,Moderate,Easier than Reference,D,k,riskyDeck,safeDeck,-28,0,-14,left,1,1,4,present,riskyDeck,647,397
mji1m77qyjl,13321,22/03/2022@10:21:24,"Mozilla/5.0 (Macintosh; Intel Mac OS X 10_15_7) AppleWebKit/537.36 (KHTML, like Gecko) Chrome/99.0.4844.51 Safari/537.36",1440,900,1440,689,main,958240,142,16,15,EE,Extreme,Easier than Reference,D,k,riskyDeck,safeDeck,0,-14,-7,left,1,1,18,present,riskyDeck,517,400
mji1m77qyjl,13321,22/03/2022@10:21:24,"Mozilla/5.0 (Macintosh; Intel Mac OS X 10_15_7) AppleWebKit/537.36 (KHTML, like Gecko) Chrome/99.0.4844.51 Safari/537.36",1440,900,1440,689,main,958240,143,16,15,HE,Extreme,Harder than Reference,D,k,safeDeck,riskyDeck,0,28,14,left,0,1,46,present,safeDeck,951,526
mji1m77qyjl,13321,22/03/2022@10:21:24,"Mozilla/5.0 (Macintosh; Intel Mac OS X 10_15_7) AppleWebKit/537.36 (KHTML, like Gecko) Chrome/99.0.4844.51 Safari/537.36",1440,900,1440,689,main,958240,144,16,15,HM,Moderate,Harder than Reference,D,k,riskyDeck,safeDeck,14,0,7,left,1,1,32,present,riskyDeck,553,251
mji1m77qyjl,13321,22/03/2022@10:21:24,"Mozilla/5.0 (Macintosh; Intel Mac OS X 10_15_7) AppleWebKit/537.36 (KHTML, like Gecko) Chrome/99.0.4844.51 Safari/537.36",1440,900,1440,689,main,958240,145,16,15,EM,Moderate,Easier than Reference,D,k,riskyDeck,safeDeck,0,-28,-14,left,1,1,32,present,riskyDeck,601,436
mji1m77qyjl,13321,22/03/2022@10:21:24,"Mozilla/5.0 (Macintosh; Intel Mac OS X 10_15_7) AppleWebKit/537.36 (KHTML, like Gecko) Chrome/99.0.4844.51 Safari/537.36",1440,900,1440,689,main,958240,146,17,15,EE,Extreme,Easier than Reference,D,j,riskyDeck,safeDeck,0,-14,-7,left,1,1,18,absent,riskyDeck,566,330
mji1m77qyjl,13321,22/03/2022@10:21:24,"Mozilla/5.0 (Macintosh; Intel Mac OS X 10_15_7) AppleWebKit/537.36 (KHTML, like Gecko) Chrome/99.0.4844.51 Safari/537.36",1440,900,1440,689,main,958240,147,17,16,HM,Moderate,Harder than Reference,D,k,riskyDeck,safeDeck,14,0,7,left,1,0,46,absent,riskyDeck,377,412
mji1m77qyjl,13321,22/03/2022@10:21:24,"Mozilla/5.0 (Macintosh; Intel Mac OS X 10_15_7) AppleWebKit/537.36 (KHTML, like Gecko) Chrome/99.0.4844.51 Safari/537.36",1440,900,1440,689,main,958240,148,17,16,HE,Extreme,Harder than Reference,D,k,riskyDeck,safeDeck,28,0,14,left,1,0,60,absent,riskyDeck,372,504
mji1m77qyjl,13321,22/03/2022@10:21:24,"Mozilla/5.0 (Macintosh; Intel Mac OS X 10_15_7) AppleWebKit/537.36 (KHTML, like Gecko) Chrome/99.0.4844.51 Safari/537.36",1440,900,1440,689,main,958240,149,17,16,EM,Moderate,Easier than Reference,F,j,safeDeck,riskyDeck,-28,0,-14,right,1,0,4,present,riskyDeck,584,555
mji1m77qyjl,13321,22/03/2022@10:21:24,"Mozilla/5.0 (Macintosh; Intel Mac OS X 10_15_7) AppleWebKit/537.36 (KHTML, like Gecko) Chrome/99.0.4844.51 Safari/537.36",1440,900,1440,689,main,958240,150,17,16,HM,Moderate,Harder than Reference,D,k,riskyDeck,safeDeck,14,0,7,left,1,0,32,absent,riskyDeck,536,378
mji1m77qyjl,13321,22/03/2022@10:21:24,"Mozilla/5.0 (Macintosh; Intel Mac OS X 10_15_7) AppleWebKit/537.36 (KHTML, like Gecko) Chrome/99.0.4844.51 Safari/537.36",1440,900,1440,689,main,958240,151,17,16,EE,Extreme,Easier than Reference,D,k,riskyDeck,safeDeck,-14,0,-7,left,1,1,32,present,riskyDeck,469,479
mji1m77qyjl,13321,22/03/2022@10:21:24,"Mozilla/5.0 (Macintosh; Intel Mac OS X 10_15_7) AppleWebKit/537.36 (KHTML, like Gecko) Chrome/99.0.4844.51 Safari/537.36",1440,900,1440,689,main,958240,152,17,16,HE,Extreme,Harder than Reference,F,k,safeDeck,riskyDeck,0,28,14,right,1,0,32,absent,riskyDeck,596,590
eshgcb5si7e,13550,24/03/2022@11:45:38,"Mozilla/5.0 (Macintosh; Intel Mac OS X 10_15_7) AppleWebKit/537.36 (KHTML, like Gecko) Chrome/96.0.4664.110 Safari/537.36",1440,900,1440,728,main,1011083,1,3,2,HM,Moderate,Harder than Reference,D,k,safeDeck,riskyDeck,0,14,7,left,0,0,39,absent,safeDeck,16379,7565
eshgcb5si7e,13550,24/03/2022@11:45:38,"Mozilla/5.0 (Macintosh; Intel Mac OS X 10_15_7) AppleWebKit/537.36 (KHTML, like Gecko) Chrome/96.0.4664.110 Safari/537.36",1440,900,1440,728,main,1011083,2,3,2,EE,Extreme,Easier than Reference,F,j,safeDeck,riskyDeck,0,-14,-7,right,1,0,18,present,riskyDeck,5017,6246
eshgcb5si7e,13550,24/03/2022@11:45:38,"Mozilla/5.0 (Macintosh; Intel Mac OS X 10_15_7) AppleWebKit/537.36 (KHTML, like Gecko) Chrome/96.0.4664.110 Safari/537.36",1440,900,1440,728,main,1011083,3,3,2,HE,Extreme,Harder than Reference,D,k,riskyDeck,safeDeck,0,28,14,left,1,0,60,absent,riskyDeck,3383,6464
eshgcb5si7e,13550,24/03/2022@11:45:38,"Mozilla/5.0 (Macintosh; Intel Mac OS X 10_15_7) AppleWebKit/537.36 (KHTML, like Gecko) Chrome/96.0.4664.110 Safari/537.36",1440,900,1440,728,main,1011083,4,4,2,EM,Moderate,Easier than Reference,F,k,riskyDeck,safeDeck,0,-28,-14,right,0,0,18,absent,safeDeck,1424,3782
eshgcb5si7e,13550,24/03/2022@11:45:38,"Mozilla/5.0 (Macintosh; Intel Mac OS X 10_15_7) AppleWebKit/537.36 (KHTML, like Gecko) Chrome/96.0.4664.110 Safari/537.36",1440,900,1440,728,main,1011083,5,4,2,HM,Moderate,Harder than Reference,D,j,safeDeck,riskyDeck,0,14,7,left,0,0,39,present,safeDeck,1049,2658
eshgcb5si7e,13550,24/03/2022@11:45:38,"Mozilla/5.0 (Macintosh; Intel Mac OS X 10_15_7) AppleWebKit/537.36 (KHTML, like Gecko) Chrome/96.0.4664.110 Safari/537.36",1440,900,1440,728,main,1011083,6,4,3,EE,Extreme,Easier than Reference,F,j,riskyDeck,safeDeck,-14,0,-7,right,0,0,25,present,safeDeck,1199,4533
eshgcb5si7e,13550,24/03/2022@11:45:38,"Mozilla/5.0 (Macintosh; Intel Mac OS X 10_15_7) AppleWebKit/537.36 (KHTML, like Gecko) Chrome/96.0.4664.110 Safari/537.36",1440,900,1440,728,main,1011083,7,4,3,HE,Extreme,Harder than Reference,F,j,safeDeck,riskyDeck,28,0,14,right,1,0,32,present,riskyDeck,1158,2079
eshgcb5si7e,13550,24/03/2022@11:45:38,"Mozilla/5.0 (Macintosh; Intel Mac OS X 10_15_7) AppleWebKit/537.36 (KHTML, like Gecko) Chrome/96.0.4664.110 Safari/537.36",1440,900,1440,728,main,1011083,8,4,3,EM,Moderate,Easier than Reference,F,j,safeDeck,riskyDeck,0,-28,-14,right,1,0,32,present,riskyDeck,1619,2663
eshgcb5si7e,13550,24/03/2022@11:45:38,"Mozilla/5.0 (Macintosh; Intel Mac OS X 10_15_7) AppleWebKit/537.36 (KHTML, like Gecko) Chrome/96.0.4664.110 Safari/537.36",1440,900,1440,728,main,1011083,9,4,3,HE,Extreme,Harder than Reference,D,j,riskyDeck,safeDeck,0,28,14,left,1,0,32,present,riskyDeck,715,1347
eshgcb5si7e,13550,24/03/2022@11:45:38,"Mozilla/5.0 (Macintosh; Intel Mac OS X 10_15_7) AppleWebKit/537.36 (KHTML, like Gecko) Chrome/96.0.4664.110 Safari/537.36",1440,900,1440,728,main,1011083,10,4,3,EE,Extreme,Easier than Reference,D,k,safeDeck,riskyDeck,-14,0,-7,left,0,0,25,absent,safeDeck,596,4223
eshgcb5si7e,13550,24/03/2022@11:45:38,"Mozilla/5.0 (Macintosh; Intel Mac OS X 10_15_7) AppleWebKit/537.36 (KHTML, like Gecko) Chrome/96.0.4664.110 Safari/537.36",1440,900,1440,728,main,1011083,11,4,3,EM,Moderate,Easier than Reference,F,j,safeDeck,riskyDeck,0,-28,-14,right,1,0,4,present,riskyDeck,1062,2107
eshgcb5si7e,13550,24/03/2022@11:45:38,"Mozilla/5.0 (Macintosh; Intel Mac OS X 10_15_7) AppleWebKit/537.36 (KHTML, like Gecko) Chrome/96.0.4664.110 Safari/537.36",1440,900,1440,728,main,1011083,12,4,3,HM,Moderate,Harder than Reference,D,j,safeDeck,riskyDeck,0,14,7,left,0,0,39,present,safeDeck,1024,2895
eshgcb5si7e,13550,24/03/2022@11:45:38,"Mozilla/5.0 (Macintosh; Intel Mac OS X 10_15_7) AppleWebKit/537.36 (KHTML, like Gecko) Chrome/96.0.4664.110 Safari/537.36",1440,900,1440,728,main,1011083,13,4,3,EE,Extreme,Easier than Reference,F,k,safeDeck,riskyDeck,-14,0,-7,right,1,0,32,absent,riskyDeck,1840,5146
eshgcb5si7e,13550,24/03/2022@11:45:38,"Mozilla/5.0 (Macintosh; Intel Mac OS X 10_15_7) AppleWebKit/537.36 (KHTML, like Gecko) Chrome/96.0.4664.110 Safari/537.36",1440,900,1440,728,main,1011083,14,5,3,EM,Moderate,Easier than Reference,D,k,riskyDeck,safeDeck,0,-28,-14,left,1,0,32,absent,riskyDeck,1096,4357
eshgcb5si7e,13550,24/03/2022@11:45:38,"Mozilla/5.0 (Macintosh; Intel Mac OS X 10_15_7) AppleWebKit/537.36 (KHTML, like Gecko) Chrome/96.0.4664.110 Safari/537.36",1440,900,1440,728,main,1011083,15,5,3,HE,Extreme,Harder than Reference,D,k,riskyDeck,safeDeck,28,0,14,left,1,0,60,absent,riskyDeck,1127,5162
eshgcb5si7e,13550,24/03/2022@11:45:38,"Mozilla/5.0 (Macintosh; Intel Mac OS X 10_15_7) AppleWebKit/537.36 (KHTML, like Gecko) Chrome/96.0.4664.110 Safari/537.36",1440,900,1440,728,main,1011083,16,5,4,HM,Moderate,Harder than Reference,F,k,safeDeck,riskyDeck,0,14,7,right,1,0,32,absent,riskyDeck,732,3298
eshgcb5si7e,13550,24/03/2022@11:45:38,"Mozilla/5.0 (Macintosh; Intel Mac OS X 10_15_7) AppleWebKit/537.36 (KHTML, like Gecko) Chrome/96.0.4664.110 Safari/537.36",1440,900,1440,728,main,1011083,17,5,4,EM,Moderate,Easier than Reference,D,j,safeDeck,riskyDeck,0,-28,-14,left,0,0,18,present,safeDeck,994,898
eshgcb5si7e,13550,24/03/2022@11:45:38,"Mozilla/5.0 (Macintosh; Intel Mac OS X 10_15_7) AppleWebKit/537.36 (KHTML, like Gecko) Chrome/96.0.4664.110 Safari/537.36",1440,900,1440,728,main,1011083,18,5,4,HE,Extreme,Harder than Reference,D,k,safeDeck,riskyDeck,0,28,14,left,0,1,46,present,safeDeck,1445,4986
eshgcb5si7e,13550,24/03/2022@11:45:38,"Mozilla/5.0 (Macintosh; Intel Mac OS X 10_15_7) AppleWebKit/537.36 (KHTML, like Gecko) Chrome/96.0.4664.110 Safari/537.36",1440,900,1440,728,main,1011083,19,5,4,HM,Moderate,Harder than Reference,F,j,riskyDeck,safeDeck,14,0,7,right,0,0,39,present,safeDeck,1467,1614
eshgcb5si7e,13550,24/03/2022@11:45:38,"Mozilla/5.0 (Macintosh; Intel Mac OS X 10_15_7) AppleWebKit/537.36 (KHTML, like Gecko) Chrome/96.0.4664.110 Safari/537.36",1440,900,1440,728,main,1011083,20,5,4,EE,Extreme,Easier than Reference,D,k,safeDeck,riskyDeck,0,-14,-7,left,0,0,25,absent,safeDeck,679,4367
eshgcb5si7e,13550,24/03/2022@11:45:38,"Mozilla/5.0 (Macintosh; Intel Mac OS X 10_15_7) AppleWebKit/537.36 (KHTML, like Gecko) Chrome/96.0.4664.110 Safari/537.36",1440,900,1440,728,main,1011083,21,5,4,HE,Extreme,Harder than Reference,F,j,safeDeck,riskyDeck,28,0,14,right,1,0,32,present,riskyDeck,1684,1206
eshgcb5si7e,13550,24/03/2022@11:45:38,"Mozilla/5.0 (Macintosh; Intel Mac OS X 10_15_7) AppleWebKit/537.36 (KHTML, like Gecko) Chrome/96.0.4664.110 Safari/537.36",1440,900,1440,728,main,1011083,22,5,4,HM,Moderate,Harder than Reference,D,j,riskyDeck,safeDeck,0,14,7,left,1,0,32,present,riskyDeck,1105,1969
eshgcb5si7e,13550,24/03/2022@11:45:38,"Mozilla/5.0 (Macintosh; Intel Mac OS X 10_15_7) AppleWebKit/537.36 (KHTML, like Gecko) Chrome/96.0.4664.110 Safari/537.36",1440,900,1440,728,main,1011083,23,5,4,EE,Extreme,Easier than Reference,F,k,riskyDeck,safeDeck,-14,0,-7,right,0,0,25,absent,safeDeck,660,2497
eshgcb5si7e,13550,24/03/2022@11:45:38,"Mozilla/5.0 (Macintosh; Intel Mac OS X 10_15_7) AppleWebKit/537.36 (KHTML, like Gecko) Chrome/96.0.4664.110 Safari/537.36",1440,900,1440,728,main,1011083,24,5,4,EM,Moderate,Easier than Reference,F,j,riskyDeck,safeDeck,0,-28,-14,right,0,0,18,present,safeDeck,1560,1689
eshgcb5si7e,13550,24/03/2022@11:45:38,"Mozilla/5.0 (Macintosh; Intel Mac OS X 10_15_7) AppleWebKit/537.36 (KHTML, like Gecko) Chrome/96.0.4664.110 Safari/537.36",1440,900,1440,728,main,1011083,25,6,4,EE,Extreme,Easier than Reference,D,j,safeDeck,riskyDeck,0,-14,-7,left,0,0,25,present,safeDeck,671,3065
eshgcb5si7e,13550,24/03/2022@11:45:38,"Mozilla/5.0 (Macintosh; Intel Mac OS X 10_15_7) AppleWebKit/537.36 (KHTML, like Gecko) Chrome/96.0.4664.110 Safari/537.36",1440,900,1440,728,main,1011083,26,6,5,EM,Moderate,Easier than Reference,F,j,riskyDeck,safeDeck,-28,0,-14,right,0,0,18,present,safeDeck,1561,3195
eshgcb5si7e,13550,24/03/2022@11:45:38,"Mozilla/5.0 (Macintosh; Intel Mac OS X 10_15_7) AppleWebKit/537.36 (KHTML, like Gecko) Chrome/96.0.4664.110 Safari/537.36",1440,900,1440,728,main,1011083,27,6,5,HE,Extreme,Harder than Reference,D,j,safeDeck,riskyDeck,0,28,14,left,0,0,46,present,safeDeck,745,3874
eshgcb5si7e,13550,24/03/2022@11:45:38,"Mozilla/5.0 (Macintosh; Intel Mac OS X 10_15_7) AppleWebKit/537.36 (KHTML, like Gecko) Chrome/96.0.4664.110 Safari/537.36",1440,900,1440,728,main,1011083,28,6,5,HM,Moderate,Harder than Reference,D,j,safeDeck,riskyDeck,14,0,7,left,0,0,39,present,safeDeck,937,1791
eshgcb5si7e,13550,24/03/2022@11:45:38,"Mozilla/5.0 (Macintosh; Intel Mac OS X 10_15_7) AppleWebKit/537.36 (KHTML, like Gecko) Chrome/96.0.4664.110 Safari/537.36",1440,900,1440,728,main,1011083,29,6,5,HM,Moderate,Harder than Reference,F,k,riskyDeck,safeDeck,0,14,7,right,0,0,39,absent,safeDeck,6564,6671
eshgcb5si7e,13550,24/03/2022@11:45:38,"Mozilla/5.0 (Macintosh; Intel Mac OS X 10_15_7) AppleWebKit/537.36 (KHTML, like Gecko) Chrome/96.0.4664.110 Safari/537.36",1440,900,1440,728,main,1011083,30,6,5,EM,Moderate,Easier than Reference,F,j,riskyDeck,safeDeck,-28,0,-14,right,0,0,18,present,safeDeck,1035,1525
eshgcb5si7e,13550,24/03/2022@11:45:38,"Mozilla/5.0 (Macintosh; Intel Mac OS X 10_15_7) AppleWebKit/537.36 (KHTML, like Gecko) Chrome/96.0.4664.110 Safari/537.36",1440,900,1440,728,main,1011083,31,6,5,EE,Extreme,Easier than Reference,D,j,riskyDeck,safeDeck,0,-14,-7,left,1,0,32,present,riskyDeck,1099,3799
eshgcb5si7e,13550,24/03/2022@11:45:38,"Mozilla/5.0 (Macintosh; Intel Mac OS X 10_15_7) AppleWebKit/537.36 (KHTML, like Gecko) Chrome/96.0.4664.110 Safari/537.36",1440,900,1440,728,main,1011083,32,6,5,HE,Extreme,Harder than Reference,F,k,riskyDeck,safeDeck,0,28,14,right,0,0,46,absent,safeDeck,441,5363
eshgcb5si7e,13550,24/03/2022@11:45:38,"Mozilla/5.0 (Macintosh; Intel Mac OS X 10_15_7) AppleWebKit/537.36 (KHTML, like Gecko) Chrome/96.0.4664.110 Safari/537.36",1440,900,1440,728,main,1011083,33,6,5,EM,Moderate,Easier than Reference,F,j,safeDeck,riskyDeck,0,-28,-14,right,1,0,32,present,riskyDeck,947,1270
eshgcb5si7e,13550,24/03/2022@11:45:38,"Mozilla/5.0 (Macintosh; Intel Mac OS X 10_15_7) AppleWebKit/537.36 (KHTML, like Gecko) Chrome/96.0.4664.110 Safari/537.36",1440,900,1440,728,main,1011083,34,7,5,HM,Moderate,Harder than Reference,D,k,safeDeck,riskyDeck,0,14,7,left,0,0,39,absent,safeDeck,273,5608
eshgcb5si7e,13550,24/03/2022@11:45:38,"Mozilla/5.0 (Macintosh; Intel Mac OS X 10_15_7) AppleWebKit/537.36 (KHTML, like Gecko) Chrome/96.0.4664.110 Safari/537.36",1440,900,1440,728,main,1011083,35,7,6,HE,Extreme,Harder than Reference,F,j,riskyDeck,safeDeck,0,28,14,right,0,0,46,present,safeDeck,1236,2175
eshgcb5si7e,13550,24/03/2022@11:45:38,"Mozilla/5.0 (Macintosh; Intel Mac OS X 10_15_7) AppleWebKit/537.36 (KHTML, like Gecko) Chrome/96.0.4664.110 Safari/537.36",1440,900,1440,728,main,1011083,36,7,6,EE,Extreme,Easier than Reference,D,j,safeDeck,riskyDeck,-14,0,-7,left,0,0,25,present,safeDeck,752,2774
eshgcb5si7e,13550,24/03/2022@11:45:38,"Mozilla/5.0 (Macintosh; Intel Mac OS X 10_15_7) AppleWebKit/537.36 (KHTML, like Gecko) Chrome/96.0.4664.110 Safari/537.36",1440,900,1440,728,main,1011083,37,7,6,EM,Moderate,Easier than Reference,F,j,riskyDeck,safeDeck,-28,0,-14,right,0,0,18,present,safeDeck,921,996
eshgcb5si7e,13550,24/03/2022@11:45:38,"Mozilla/5.0 (Macintosh; Intel Mac OS X 10_15_7) AppleWebKit/537.36 (KHTML, like Gecko) Chrome/96.0.4664.110 Safari/537.36",1440,900,1440,728,main,1011083,38,7,6,EE,Extreme,Easier than Reference,D,j,safeDeck,riskyDeck,-14,0,-7,left,0,0,25,present,safeDeck,564,2030
eshgcb5si7e,13550,24/03/2022@11:45:38,"Mozilla/5.0 (Macintosh; Intel Mac OS X 10_15_7) AppleWebKit/537.36 (KHTML, like Gecko) Chrome/96.0.4664.110 Safari/537.36",1440,900,1440,728,main,1011083,39,7,6,HM,Moderate,Harder than Reference,F,k,safeDeck,riskyDeck,0,14,7,right,1,0,46,absent,riskyDeck,2455,3883
eshgcb5si7e,13550,24/03/2022@11:45:38,"Mozilla/5.0 (Macintosh; Intel Mac OS X 10_15_7) AppleWebKit/537.36 (KHTML, like Gecko) Chrome/96.0.4664.110 Safari/537.36",1440,900,1440,728,main,1011083,40,7,6,HE,Extreme,Harder than Reference,D,k,safeDeck,riskyDeck,28,0,14,left,0,0,46,absent,safeDeck,556,3296
eshgcb5si7e,13550,24/03/2022@11:45:38,"Mozilla/5.0 (Macintosh; Intel Mac OS X 10_15_7) AppleWebKit/537.36 (KHTML, like Gecko) Chrome/96.0.4664.110 Safari/537.36",1440,900,1440,728,main,1011083,41,7,6,EE,Extreme,Easier than Reference,F,j,safeDeck,riskyDeck,-14,0,-7,right,1,0,18,present,riskyDeck,3504,1299
eshgcb5si7e,13550,24/03/2022@11:45:38,"Mozilla/5.0 (Macintosh; Intel Mac OS X 10_15_7) AppleWebKit/537.36 (KHTML, like Gecko) Chrome/96.0.4664.110 Safari/537.36",1440,900,1440,728,main,1011083,42,7,6,EM,Moderate,Easier than Reference,D,j,safeDeck,riskyDeck,-28,0,-14,left,0,0,18,present,safeDeck,700,803
eshgcb5si7e,13550,24/03/2022@11:45:38,"Mozilla/5.0 (Macintosh; Intel Mac OS X 10_15_7) AppleWebKit/537.36 (KHTML, like Gecko) Chrome/96.0.4664.110 Safari/537.36",1440,900,1440,728,main,1011083,43,8,6,HM,Moderate,Harder than Reference,D,j,safeDeck,riskyDeck,0,14,7,left,0,0,39,present,safeDeck,1152,3492
eshgcb5si7e,13550,24/03/2022@11:45:38,"Mozilla/5.0 (Macintosh; Intel Mac OS X 10_15_7) AppleWebKit/537.36 (KHTML, like Gecko) Chrome/96.0.4664.110 Safari/537.36",1440,900,1440,728,main,1011083,44,8,6,HE,Extreme,Harder than Reference,D,j,safeDeck,riskyDeck,28,0,14,left,0,0,46,present,safeDeck,850,3152
eshgcb5si7e,13550,24/03/2022@11:45:38,"Mozilla/5.0 (Macintosh; Intel Mac OS X 10_15_7) AppleWebKit/537.36 (KHTML, like Gecko) Chrome/96.0.4664.110 Safari/537.36",1440,900,1440,728,main,1011083,45,8,7,EE,Extreme,Easier than Reference,F,k,riskyDeck,safeDeck,-14,0,-7,right,0,0,25,absent,safeDeck,996,3103
eshgcb5si7e,13550,24/03/2022@11:45:38,"Mozilla/5.0 (Macintosh; Intel Mac OS X 10_15_7) AppleWebKit/537.36 (KHTML, like Gecko) Chrome/96.0.4664.110 Safari/537.36",1440,900,1440,728,main,1011083,46,8,7,HM,Moderate,Harder than Reference,F,j,riskyDeck,safeDeck,14,0,7,right,0,0,39,present,safeDeck,853,3990
eshgcb5si7e,13550,24/03/2022@11:45:38,"Mozilla/5.0 (Macintosh; Intel Mac OS X 10_15_7) AppleWebKit/537.36 (KHTML, like Gecko) Chrome/96.0.4664.110 Safari/537.36",1440,900,1440,728,main,1011083,47,8,7,EM,Moderate,Easier than Reference,D,j,safeDeck,riskyDeck,0,-28,-14,left,0,0,18,present,safeDeck,696,1453
eshgcb5si7e,13550,24/03/2022@11:45:38,"Mozilla/5.0 (Macintosh; Intel Mac OS X 10_15_7) AppleWebKit/537.36 (KHTML, like Gecko) Chrome/96.0.4664.110 Safari/537.36",1440,900,1440,728,main,1011083,48,8,7,HE,Extreme,Harder than Reference,F,j,riskyDeck,safeDeck,28,0,14,right,0,0,46,present,safeDeck,685,4280
eshgcb5si7e,13550,24/03/2022@11:45:38,"Mozilla/5.0 (Macintosh; Intel Mac OS X 10_15_7) AppleWebKit/537.36 (KHTML, like Gecko) Chrome/96.0.4664.110 Safari/537.36",1440,900,1440,728,main,1011083,49,8,7,HM,Moderate,Harder than Reference,D,j,safeDeck,riskyDeck,0,14,7,left,0,0,39,present,safeDeck,1368,1894
eshgcb5si7e,13550,24/03/2022@11:45:38,"Mozilla/5.0 (Macintosh; Intel Mac OS X 10_15_7) AppleWebKit/537.36 (KHTML, like Gecko) Chrome/96.0.4664.110 Safari/537.36",1440,900,1440,728,main,1011083,50,8,7,EM,Moderate,Easier than Reference,D,j,riskyDeck,safeDeck,0,-28,-14,left,1,0,32,present,riskyDeck,3041,1972
eshgcb5si7e,13550,24/03/2022@11:45:38,"Mozilla/5.0 (Macintosh; Intel Mac OS X 10_15_7) AppleWebKit/537.36 (KHTML, like Gecko) Chrome/96.0.4664.110 Safari/537.36",1440,900,1440,728,main,1011083,51,8,7,HE,Extreme,Harder than Reference,D,j,safeDeck,riskyDeck,0,28,14,left,0,0,46,present,safeDeck,833,1850
eshgcb5si7e,13550,24/03/2022@11:45:38,"Mozilla/5.0 (Macintosh; Intel Mac OS X 10_15_7) AppleWebKit/537.36 (KHTML, like Gecko) Chrome/96.0.4664.110 Safari/537.36",1440,900,1440,728,main,1011083,52,8,7,EE,Extreme,Easier than Reference,F,k,safeDeck,riskyDeck,-14,0,-7,right,1,0,18,absent,riskyDeck,623,2578
eshgcb5si7e,13550,24/03/2022@11:45:38,"Mozilla/5.0 (Macintosh; Intel Mac OS X 10_15_7) AppleWebKit/537.36 (KHTML, like Gecko) Chrome/96.0.4664.110 Safari/537.36",1440,900,1440,728,main,1011083,53,8,7,HE,Extreme,Harder than Reference,D,j,riskyDeck,safeDeck,28,0,14,left,1,0,60,present,riskyDeck,713,4267
eshgcb5si7e,13550,24/03/2022@11:45:38,"Mozilla/5.0 (Macintosh; Intel Mac OS X 10_15_7) AppleWebKit/537.36 (KHTML, like Gecko) Chrome/96.0.4664.110 Safari/537.36",1440,900,1440,728,main,1011083,54,9,7,HM,Moderate,Harder than Reference,F,k,safeDeck,riskyDeck,0,14,7,right,1,0,46,absent,riskyDeck,1104,6951
eshgcb5si7e,13550,24/03/2022@11:45:38,"Mozilla/5.0 (Macintosh; Intel Mac OS X 10_15_7) AppleWebKit/537.36 (KHTML, like Gecko) Chrome/96.0.4664.110 Safari/537.36",1440,900,1440,728,main,1011083,55,9,8,EM,Moderate,Easier than Reference,D,k,safeDeck,riskyDeck,0,-28,-14,left,0,0,18,absent,safeDeck,367,3871
eshgcb5si7e,13550,24/03/2022@11:45:38,"Mozilla/5.0 (Macintosh; Intel Mac OS X 10_15_7) AppleWebKit/537.36 (KHTML, like Gecko) Chrome/96.0.4664.110 Safari/537.36",1440,900,1440,728,main,1011083,56,9,8,EE,Extreme,Easier than Reference,F,k,safeDeck,riskyDeck,0,-14,-7,right,1,0,32,absent,riskyDeck,1148,4879
eshgcb5si7e,13550,24/03/2022@11:45:38,"Mozilla/5.0 (Macintosh; Intel Mac OS X 10_15_7) AppleWebKit/537.36 (KHTML, like Gecko) Chrome/96.0.4664.110 Safari/537.36",1440,900,1440,728,main,1011083,57,9,8,EM,Moderate,Easier than Reference,F,k,riskyDeck,safeDeck,0,-28,-14,right,0,0,18,absent,safeDeck,1223,2366
eshgcb5si7e,13550,24/03/2022@11:45:38,"Mozilla/5.0 (Macintosh; Intel Mac OS X 10_15_7) AppleWebKit/537.36 (KHTML, like Gecko) Chrome/96.0.4664.110 Safari/537.36",1440,900,1440,728,main,1011083,58,9,8,EE,Extreme,Easier than Reference,D,j,riskyDeck,safeDeck,-14,0,-7,left,1,0,32,present,riskyDeck,1068,1446
eshgcb5si7e,13550,24/03/2022@11:45:38,"Mozilla/5.0 (Macintosh; Intel Mac OS X 10_15_7) AppleWebKit/537.36 (KHTML, like Gecko) Chrome/96.0.4664.110 Safari/537.36",1440,900,1440,728,main,1011083,59,9,8,HM,Moderate,Harder than Reference,F,k,safeDeck,riskyDeck,14,0,7,right,1,0,46,absent,riskyDeck,390,3550
eshgcb5si7e,13550,24/03/2022@11:45:38,"Mozilla/5.0 (Macintosh; Intel Mac OS X 10_15_7) AppleWebKit/537.36 (KHTML, like Gecko) Chrome/96.0.4664.110 Safari/537.36",1440,900,1440,728,main,1011083,60,9,8,HE,Extreme,Harder than Reference,D,k,safeDeck,riskyDeck,0,28,14,left,0,0,46,absent,safeDeck,588,5201
eshgcb5si7e,13550,24/03/2022@11:45:38,"Mozilla/5.0 (Macintosh; Intel Mac OS X 10_15_7) AppleWebKit/537.36 (KHTML, like Gecko) Chrome/96.0.4664.110 Safari/537.36",1440,900,1440,728,main,1011083,61,9,8,EM,Moderate,Easier than Reference,F,k,riskyDeck,safeDeck,0,-28,-14,right,0,0,18,absent,safeDeck,1085,4199
eshgcb5si7e,13550,24/03/2022@11:45:38,"Mozilla/5.0 (Macintosh; Intel Mac OS X 10_15_7) AppleWebKit/537.36 (KHTML, like Gecko) Chrome/96.0.4664.110 Safari/537.36",1440,900,1440,728,main,1011083,62,9,8,HE,Extreme,Harder than Reference,D,j,safeDeck,riskyDeck,28,0,14,left,0,0,46,present,safeDeck,1471,2685
eshgcb5si7e,13550,24/03/2022@11:45:38,"Mozilla/5.0 (Macintosh; Intel Mac OS X 10_15_7) AppleWebKit/537.36 (KHTML, like Gecko) Chrome/96.0.4664.110 Safari/537.36",1440,900,1440,728,main,1011083,63,10,8,EE,Extreme,Easier than Reference,D,k,safeDeck,riskyDeck,-14,0,-7,left,0,0,25,absent,safeDeck,1720,3451
eshgcb5si7e,13550,24/03/2022@11:45:38,"Mozilla/5.0 (Macintosh; Intel Mac OS X 10_15_7) AppleWebKit/537.36 (KHTML, like Gecko) Chrome/96.0.4664.110 Safari/537.36",1440,900,1440,728,main,1011083,64,10,8,HM,Moderate,Harder than Reference,D,j,riskyDeck,safeDeck,14,0,7,left,1,0,32,present,riskyDeck,673,1589
eshgcb5si7e,13550,24/03/2022@11:45:38,"Mozilla/5.0 (Macintosh; Intel Mac OS X 10_15_7) AppleWebKit/537.36 (KHTML, like Gecko) Chrome/96.0.4664.110 Safari/537.36",1440,900,1440,728,main,1011083,65,10,8,EE,Extreme,Easier than Reference,D,k,safeDeck,riskyDeck,-14,0,-7,left,0,0,25,absent,safeDeck,369,2482
eshgcb5si7e,13550,24/03/2022@11:45:38,"Mozilla/5.0 (Macintosh; Intel Mac OS X 10_15_7) AppleWebKit/537.36 (KHTML, like Gecko) Chrome/96.0.4664.110 Safari/537.36",1440,900,1440,728,main,1011083,66,10,9,HM,Moderate,Harder than Reference,F,j,riskyDeck,safeDeck,14,0,7,right,0,0,39,present,safeDeck,1754,3704
eshgcb5si7e,13550,24/03/2022@11:45:38,"Mozilla/5.0 (Macintosh; Intel Mac OS X 10_15_7) AppleWebKit/537.36 (KHTML, like Gecko) Chrome/96.0.4664.110 Safari/537.36",1440,900,1440,728,main,1011083,67,10,9,EM,Moderate,Easier than Reference,D,k,safeDeck,riskyDeck,-28,0,-14,left,0,0,18,absent,safeDeck,490,2264
eshgcb5si7e,13550,24/03/2022@11:45:38,"Mozilla/5.0 (Macintosh; Intel Mac OS X 10_15_7) AppleWebKit/537.36 (KHTML, like Gecko) Chrome/96.0.4664.110 Safari/537.36",1440,900,1440,728,main,1011083,68,10,9,HE,Extreme,Harder than Reference,D,k,safeDeck,riskyDeck,0,28,14,left,0,0,46,absent,safeDeck,416,5253
eshgcb5si7e,13550,24/03/2022@11:45:38,"Mozilla/5.0 (Macintosh; Intel Mac OS X 10_15_7) AppleWebKit/537.36 (KHTML, like Gecko) Chrome/96.0.4664.110 Safari/537.36",1440,900,1440,728,main,1011083,69,10,9,HE,Extreme,Harder than Reference,F,k,safeDeck,riskyDeck,28,0,14,right,1,1,32,present,riskyDeck,1206,2588
eshgcb5si7e,13550,24/03/2022@11:45:38,"Mozilla/5.0 (Macintosh; Intel Mac OS X 10_15_7) AppleWebKit/537.36 (KHTML, like Gecko) Chrome/96.0.4664.110 Safari/537.36",1440,900,1440,728,main,1011083,70,10,9,HM,Moderate,Harder than Reference,D,k,safeDeck,riskyDeck,14,0,7,left,0,0,39,absent,safeDeck,381,4462
eshgcb5si7e,13550,24/03/2022@11:45:38,"Mozilla/5.0 (Macintosh; Intel Mac OS X 10_15_7) AppleWebKit/537.36 (KHTML, like Gecko) Chrome/96.0.4664.110 Safari/537.36",1440,900,1440,728,main,1011083,71,10,9,EM,Moderate,Easier than Reference,D,k,safeDeck,riskyDeck,-28,0,-14,left,0,0,18,absent,safeDeck,883,2142
eshgcb5si7e,13550,24/03/2022@11:45:38,"Mozilla/5.0 (Macintosh; Intel Mac OS X 10_15_7) AppleWebKit/537.36 (KHTML, like Gecko) Chrome/96.0.4664.110 Safari/537.36",1440,900,1440,728,main,1011083,72,10,9,EE,Extreme,Easier than Reference,D,j,riskyDeck,safeDeck,0,-14,-7,left,1,0,18,present,riskyDeck,1396,1764
eshgcb5si7e,13550,24/03/2022@11:45:38,"Mozilla/5.0 (Macintosh; Intel Mac OS X 10_15_7) AppleWebKit/537.36 (KHTML, like Gecko) Chrome/96.0.4664.110 Safari/537.36",1440,900,1440,728,main,1011083,73,10,9,EM,Moderate,Easier than Reference,F,k,riskyDeck,safeDeck,0,-28,-14,right,0,0,18,absent,safeDeck,1169,1913
eshgcb5si7e,13550,24/03/2022@11:45:38,"Mozilla/5.0 (Macintosh; Intel Mac OS X 10_15_7) AppleWebKit/537.36 (KHTML, like Gecko) Chrome/96.0.4664.110 Safari/537.36",1440,900,1440,728,main,1011083,74,10,9,HM,Moderate,Harder than Reference,D,j,safeDeck,riskyDeck,14,0,7,left,0,0,39,present,safeDeck,901,1367
eshgcb5si7e,13550,24/03/2022@11:45:38,"Mozilla/5.0 (Macintosh; Intel Mac OS X 10_15_7) AppleWebKit/537.36 (KHTML, like Gecko) Chrome/96.0.4664.110 Safari/537.36",1440,900,1440,728,main,1011083,75,11,9,EE,Extreme,Easier than Reference,F,k,riskyDeck,safeDeck,0,-14,-7,right,0,0,25,absent,safeDeck,1231,3023
eshgcb5si7e,13550,24/03/2022@11:45:38,"Mozilla/5.0 (Macintosh; Intel Mac OS X 10_15_7) AppleWebKit/537.36 (KHTML, like Gecko) Chrome/96.0.4664.110 Safari/537.36",1440,900,1440,728,main,1011083,76,11,10,HE,Extreme,Harder than Reference,D,k,riskyDeck,safeDeck,28,0,14,left,1,0,60,absent,riskyDeck,1009,6538
eshgcb5si7e,13550,24/03/2022@11:45:38,"Mozilla/5.0 (Macintosh; Intel Mac OS X 10_15_7) AppleWebKit/537.36 (KHTML, like Gecko) Chrome/96.0.4664.110 Safari/537.36",1440,900,1440,728,main,1011083,77,11,10,EM,Moderate,Easier than Reference,D,k,safeDeck,riskyDeck,0,-28,-14,left,0,0,18,absent,safeDeck,2464,3551
eshgcb5si7e,13550,24/03/2022@11:45:38,"Mozilla/5.0 (Macintosh; Intel Mac OS X 10_15_7) AppleWebKit/537.36 (KHTML, like Gecko) Chrome/96.0.4664.110 Safari/537.36",1440,900,1440,728,main,1011083,78,11,10,HE,Extreme,Harder than Reference,F,j,riskyDeck,safeDeck,28,0,14,right,0,0,46,present,safeDeck,705,6241
eshgcb5si7e,13550,24/03/2022@11:45:38,"Mozilla/5.0 (Macintosh; Intel Mac OS X 10_15_7) AppleWebKit/537.36 (KHTML, like Gecko) Chrome/96.0.4664.110 Safari/537.36",1440,900,1440,728,main,1011083,79,11,10,HM,Moderate,Harder than Reference,D,j,safeDeck,riskyDeck,0,14,7,left,0,0,39,present,safeDeck,563,5037
eshgcb5si7e,13550,24/03/2022@11:45:38,"Mozilla/5.0 (Macintosh; Intel Mac OS X 10_15_7) AppleWebKit/537.36 (KHTML, like Gecko) Chrome/96.0.4664.110 Safari/537.36",1440,900,1440,728,main,1011083,80,11,10,EE,Extreme,Easier than Reference,D,k,safeDeck,riskyDeck,-14,0,-7,left,0,0,25,absent,safeDeck,681,2566
eshgcb5si7e,13550,24/03/2022@11:45:38,"Mozilla/5.0 (Macintosh; Intel Mac OS X 10_15_7) AppleWebKit/537.36 (KHTML, like Gecko) Chrome/96.0.4664.110 Safari/537.36",1440,900,1440,728,main,1011083,81,11,10,EM,Moderate,Easier than Reference,F,j,safeDeck,riskyDeck,0,-28,-14,right,1,0,32,present,riskyDeck,609,1741
eshgcb5si7e,13550,24/03/2022@11:45:38,"Mozilla/5.0 (Macintosh; Intel Mac OS X 10_15_7) AppleWebKit/537.36 (KHTML, like Gecko) Chrome/96.0.4664.110 Safari/537.36",1440,900,1440,728,main,1011083,82,12,10,HM,Moderate,Harder than Reference,D,k,riskyDeck,safeDeck,14,0,7,left,1,0,46,absent,riskyDeck,972,3599
eshgcb5si7e,13550,24/03/2022@11:45:38,"Mozilla/5.0 (Macintosh; Intel Mac OS X 10_15_7) AppleWebKit/537.36 (KHTML, like Gecko) Chrome/96.0.4664.110 Safari/537.36",1440,900,1440,728,main,1011083,83,12,10,HE,Extreme,Harder than Reference,D,j,riskyDeck,safeDeck,0,28,14,left,1,0,32,present,riskyDeck,773,2194
eshgcb5si7e,13550,24/03/2022@11:45:38,"Mozilla/5.0 (Macintosh; Intel Mac OS X 10_15_7) AppleWebKit/537.36 (KHTML, like Gecko) Chrome/96.0.4664.110 Safari/537.36",1440,900,1440,728,main,1011083,84,12,11,EE,Extreme,Easier than Reference,F,k,riskyDeck,safeDeck,0,-14,-7,right,0,0,25,absent,safeDeck,826,2778
eshgcb5si7e,13550,24/03/2022@11:45:38,"Mozilla/5.0 (Macintosh; Intel Mac OS X 10_15_7) AppleWebKit/537.36 (KHTML, like Gecko) Chrome/96.0.4664.110 Safari/537.36",1440,900,1440,728,main,1011083,85,12,11,EE,Extreme,Easier than Reference,F,j,riskyDeck,safeDeck,-14,0,-7,right,0,0,25,present,safeDeck,551,1781
eshgcb5si7e,13550,24/03/2022@11:45:38,"Mozilla/5.0 (Macintosh; Intel Mac OS X 10_15_7) AppleWebKit/537.36 (KHTML, like Gecko) Chrome/96.0.4664.110 Safari/537.36",1440,900,1440,728,main,1011083,86,12,11,HE,Extreme,Harder than Reference,F,k,safeDeck,riskyDeck,28,0,14,right,1,0,32,absent,riskyDeck,1726,3852
eshgcb5si7e,13550,24/03/2022@11:45:38,"Mozilla/5.0 (Macintosh; Intel Mac OS X 10_15_7) AppleWebKit/537.36 (KHTML, like Gecko) Chrome/96.0.4664.110 Safari/537.36",1440,900,1440,728,main,1011083,87,12,11,HM,Moderate,Harder than Reference,D,k,riskyDeck,safeDeck,0,14,7,left,1,0,46,absent,riskyDeck,557,4718
eshgcb5si7e,13550,24/03/2022@11:45:38,"Mozilla/5.0 (Macintosh; Intel Mac OS X 10_15_7) AppleWebKit/537.36 (KHTML, like Gecko) Chrome/96.0.4664.110 Safari/537.36",1440,900,1440,728,main,1011083,88,12,11,EM,Moderate,Easier than Reference,D,k,safeDeck,riskyDeck,-28,0,-14,left,0,0,18,absent,safeDeck,711,3444
eshgcb5si7e,13550,24/03/2022@11:45:38,"Mozilla/5.0 (Macintosh; Intel Mac OS X 10_15_7) AppleWebKit/537.36 (KHTML, like Gecko) Chrome/96.0.4664.110 Safari/537.36",1440,900,1440,728,main,1011083,89,12,11,HE,Extreme,Harder than Reference,D,k,safeDeck,riskyDeck,0,28,14,left,0,0,46,absent,safeDeck,995,5057
eshgcb5si7e,13550,24/03/2022@11:45:38,"Mozilla/5.0 (Macintosh; Intel Mac OS X 10_15_7) AppleWebKit/537.36 (KHTML, like Gecko) Chrome/96.0.4664.110 Safari/537.36",1440,900,1440,728,main,1011083,90,12,11,EM,Moderate,Easier than Reference,D,j,safeDeck,riskyDeck,-28,0,-14,left,0,0,18,present,safeDeck,537,1476
eshgcb5si7e,13550,24/03/2022@11:45:38,"Mozilla/5.0 (Macintosh; Intel Mac OS X 10_15_7) AppleWebKit/537.36 (KHTML, like Gecko) Chrome/96.0.4664.110 Safari/537.36",1440,900,1440,728,main,1011083,91,12,11,HM,Moderate,Harder than Reference,D,k,riskyDeck,safeDeck,14,0,7,left,1,0,46,absent,riskyDeck,1035,3539
eshgcb5si7e,13550,24/03/2022@11:45:38,"Mozilla/5.0 (Macintosh; Intel Mac OS X 10_15_7) AppleWebKit/537.36 (KHTML, like Gecko) Chrome/96.0.4664.110 Safari/537.36",1440,900,1440,728,main,1011083,92,12,11,EE,Extreme,Easier than Reference,F,j,riskyDeck,safeDeck,0,-14,-7,right,0,0,25,present,safeDeck,316,1973
eshgcb5si7e,13550,24/03/2022@11:45:38,"Mozilla/5.0 (Macintosh; Intel Mac OS X 10_15_7) AppleWebKit/537.36 (KHTML, like Gecko) Chrome/96.0.4664.110 Safari/537.36",1440,900,1440,728,main,1011083,93,12,11,EM,Moderate,Easier than Reference,D,j,safeDeck,riskyDeck,0,-28,-14,left,0,0,18,present,safeDeck,618,1572
eshgcb5si7e,13550,24/03/2022@11:45:38,"Mozilla/5.0 (Macintosh; Intel Mac OS X 10_15_7) AppleWebKit/537.36 (KHTML, like Gecko) Chrome/96.0.4664.110 Safari/537.36",1440,900,1440,728,main,1011083,94,13,11,EE,Extreme,Easier than Reference,D,k,safeDeck,riskyDeck,-14,0,-7,left,0,0,25,absent,safeDeck,1030,3163
eshgcb5si7e,13550,24/03/2022@11:45:38,"Mozilla/5.0 (Macintosh; Intel Mac OS X 10_15_7) AppleWebKit/537.36 (KHTML, like Gecko) Chrome/96.0.4664.110 Safari/537.36",1440,900,1440,728,main,1011083,95,13,12,HM,Moderate,Harder than Reference,D,k,safeDeck,riskyDeck,14,0,7,left,0,0,39,absent,safeDeck,1198,3909
eshgcb5si7e,13550,24/03/2022@11:45:38,"Mozilla/5.0 (Macintosh; Intel Mac OS X 10_15_7) AppleWebKit/537.36 (KHTML, like Gecko) Chrome/96.0.4664.110 Safari/537.36",1440,900,1440,728,main,1011083,96,13,12,HE,Extreme,Harder than Reference,D,k,riskyDeck,safeDeck,28,0,14,left,1,0,32,absent,riskyDeck,1414,2380
eshgcb5si7e,13550,24/03/2022@11:45:38,"Mozilla/5.0 (Macintosh; Intel Mac OS X 10_15_7) AppleWebKit/537.36 (KHTML, like Gecko) Chrome/96.0.4664.110 Safari/537.36",1440,900,1440,728,main,1011083,97,13,12,EE,Extreme,Easier than Reference,D,j,safeDeck,riskyDeck,-14,0,-7,left,0,0,25,present,safeDeck,755,2920
eshgcb5si7e,13550,24/03/2022@11:45:38,"Mozilla/5.0 (Macintosh; Intel Mac OS X 10_15_7) AppleWebKit/537.36 (KHTML, like Gecko) Chrome/96.0.4664.110 Safari/537.36",1440,900,1440,728,main,1011083,98,13,12,EM,Moderate,Easier than Reference,F,j,riskyDeck,safeDeck,-28,0,-14,right,0,0,18,present,safeDeck,544,1672
eshgcb5si7e,13550,24/03/2022@11:45:38,"Mozilla/5.0 (Macintosh; Intel Mac OS X 10_15_7) AppleWebKit/537.36 (KHTML, like Gecko) Chrome/96.0.4664.110 Safari/537.36",1440,900,1440,728,main,1011083,99,13,12,HE,Extreme,Harder than Reference,D,j,safeDeck,riskyDeck,28,0,14,left,0,0,46,present,safeDeck,689,5037
eshgcb5si7e,13550,24/03/2022@11:45:38,"Mozilla/5.0 (Macintosh; Intel Mac OS X 10_15_7) AppleWebKit/537.36 (KHTML, like Gecko) Chrome/96.0.4664.110 Safari/537.36",1440,900,1440,728,main,1011083,100,13,12,HM,Moderate,Harder than Reference,D,k,safeDeck,riskyDeck,0,14,7,left,0,0,39,absent,safeDeck,1059,6674
eshgcb5si7e,13550,24/03/2022@11:45:38,"Mozilla/5.0 (Macintosh; Intel Mac OS X 10_15_7) AppleWebKit/537.36 (KHTML, like Gecko) Chrome/96.0.4664.110 Safari/537.36",1440,900,1440,728,main,1011083,101,13,12,HM,Moderate,Harder than Reference,D,j,riskyDeck,safeDeck,14,0,7,left,1,0,46,present,riskyDeck,1211,1331
eshgcb5si7e,13550,24/03/2022@11:45:38,"Mozilla/5.0 (Macintosh; Intel Mac OS X 10_15_7) AppleWebKit/537.36 (KHTML, like Gecko) Chrome/96.0.4664.110 Safari/537.36",1440,900,1440,728,main,1011083,102,13,12,HE,Extreme,Harder than Reference,F,j,safeDeck,riskyDeck,0,28,14,right,1,0,60,present,riskyDeck,524,1596
eshgcb5si7e,13550,24/03/2022@11:45:38,"Mozilla/5.0 (Macintosh; Intel Mac OS X 10_15_7) AppleWebKit/537.36 (KHTML, like Gecko) Chrome/96.0.4664.110 Safari/537.36",1440,900,1440,728,main,1011083,103,13,12,EE,Extreme,Easier than Reference,D,j,safeDeck,riskyDeck,-14,0,-7,left,0,0,25,present,safeDeck,1737,1131
eshgcb5si7e,13550,24/03/2022@11:45:38,"Mozilla/5.0 (Macintosh; Intel Mac OS X 10_15_7) AppleWebKit/537.36 (KHTML, like Gecko) Chrome/96.0.4664.110 Safari/537.36",1440,900,1440,728,main,1011083,104,14,12,EM,Moderate,Easier than Reference,D,j,safeDeck,riskyDeck,0,-28,-14,left,0,0,18,present,safeDeck,428,1475
eshgcb5si7e,13550,24/03/2022@11:45:38,"Mozilla/5.0 (Macintosh; Intel Mac OS X 10_15_7) AppleWebKit/537.36 (KHTML, like Gecko) Chrome/96.0.4664.110 Safari/537.36",1440,900,1440,728,main,1011083,105,14,12,EE,Extreme,Easier than Reference,D,k,safeDeck,riskyDeck,0,-14,-7,left,0,0,25,absent,safeDeck,567,3371
eshgcb5si7e,13550,24/03/2022@11:45:38,"Mozilla/5.0 (Macintosh; Intel Mac OS X 10_15_7) AppleWebKit/537.36 (KHTML, like Gecko) Chrome/96.0.4664.110 Safari/537.36",1440,900,1440,728,main,1011083,106,14,13,HM,Moderate,Harder than Reference,D,k,riskyDeck,safeDeck,0,14,7,left,1,0,46,absent,riskyDeck,274,3923
eshgcb5si7e,13550,24/03/2022@11:45:38,"Mozilla/5.0 (Macintosh; Intel Mac OS X 10_15_7) AppleWebKit/537.36 (KHTML, like Gecko) Chrome/96.0.4664.110 Safari/537.36",1440,900,1440,728,main,1011083,107,14,13,HE,Extreme,Harder than Reference,F,j,riskyDeck,safeDeck,0,28,14,right,0,0,46,present,safeDeck,972,3389
eshgcb5si7e,13550,24/03/2022@11:45:38,"Mozilla/5.0 (Macintosh; Intel Mac OS X 10_15_7) AppleWebKit/537.36 (KHTML, like Gecko) Chrome/96.0.4664.110 Safari/537.36",1440,900,1440,728,main,1011083,108,14,13,EM,Moderate,Easier than Reference,F,k,riskyDeck,safeDeck,0,-28,-14,right,0,0,18,absent,safeDeck,796,4176
eshgcb5si7e,13550,24/03/2022@11:45:38,"Mozilla/5.0 (Macintosh; Intel Mac OS X 10_15_7) AppleWebKit/537.36 (KHTML, like Gecko) Chrome/96.0.4664.110 Safari/537.36",1440,900,1440,728,main,1011083,109,14,13,HE,Extreme,Harder than Reference,D,j,safeDeck,riskyDeck,0,28,14,left,0,0,46,present,safeDeck,598,1267
eshgcb5si7e,13550,24/03/2022@11:45:38,"Mozilla/5.0 (Macintosh; Intel Mac OS X 10_15_7) AppleWebKit/537.36 (KHTML, like Gecko) Chrome/96.0.4664.110 Safari/537.36",1440,900,1440,728,main,1011083,110,14,13,EE,Extreme,Easier than Reference,D,k,safeDeck,riskyDeck,0,-14,-7,left,0,0,25,absent,safeDeck,594,3848
eshgcb5si7e,13550,24/03/2022@11:45:38,"Mozilla/5.0 (Macintosh; Intel Mac OS X 10_15_7) AppleWebKit/537.36 (KHTML, like Gecko) Chrome/96.0.4664.110 Safari/537.36",1440,900,1440,728,main,1011083,111,14,13,EM,Moderate,Easier than Reference,D,j,riskyDeck,safeDeck,-28,0,-14,left,1,0,4,present,riskyDeck,1562,548
eshgcb5si7e,13550,24/03/2022@11:45:38,"Mozilla/5.0 (Macintosh; Intel Mac OS X 10_15_7) AppleWebKit/537.36 (KHTML, like Gecko) Chrome/96.0.4664.110 Safari/537.36",1440,900,1440,728,main,1011083,112,14,13,HM,Moderate,Harder than Reference,F,k,riskyDeck,safeDeck,14,0,7,right,0,0,39,absent,safeDeck,716,3678
eshgcb5si7e,13550,24/03/2022@11:45:38,"Mozilla/5.0 (Macintosh; Intel Mac OS X 10_15_7) AppleWebKit/537.36 (KHTML, like Gecko) Chrome/96.0.4664.110 Safari/537.36",1440,900,1440,728,main,1011083,113,14,13,HM,Moderate,Harder than Reference,D,j,safeDeck,riskyDeck,0,14,7,left,0,0,39,present,safeDeck,471,805
eshgcb5si7e,13550,24/03/2022@11:45:38,"Mozilla/5.0 (Macintosh; Intel Mac OS X 10_15_7) AppleWebKit/537.36 (KHTML, like Gecko) Chrome/96.0.4664.110 Safari/537.36",1440,900,1440,728,main,1011083,114,14,13,EE,Extreme,Easier than Reference,D,k,safeDeck,riskyDeck,0,-14,-7,left,0,0,25,absent,safeDeck,382,2052
eshgcb5si7e,13550,24/03/2022@11:45:38,"Mozilla/5.0 (Macintosh; Intel Mac OS X 10_15_7) AppleWebKit/537.36 (KHTML, like Gecko) Chrome/96.0.4664.110 Safari/537.36",1440,900,1440,728,main,1011083,115,15,13,HE,Extreme,Harder than Reference,F,k,riskyDeck,safeDeck,28,0,14,right,0,0,46,absent,safeDeck,3334,3177
eshgcb5si7e,13550,24/03/2022@11:45:38,"Mozilla/5.0 (Macintosh; Intel Mac OS X 10_15_7) AppleWebKit/537.36 (KHTML, like Gecko) Chrome/96.0.4664.110 Safari/537.36",1440,900,1440,728,main,1011083,116,15,13,EM,Moderate,Easier than Reference,F,j,riskyDeck,safeDeck,0,-28,-14,right,0,0,18,present,safeDeck,688,1831
eshgcb5si7e,13550,24/03/2022@11:45:38,"Mozilla/5.0 (Macintosh; Intel Mac OS X 10_15_7) AppleWebKit/537.36 (KHTML, like Gecko) Chrome/96.0.4664.110 Safari/537.36",1440,900,1440,728,main,1011083,117,15,14,HE,Extreme,Harder than Reference,F,j,safeDeck,riskyDeck,28,0,14,right,1,0,32,present,riskyDeck,602,1948
eshgcb5si7e,13550,24/03/2022@11:45:38,"Mozilla/5.0 (Macintosh; Intel Mac OS X 10_15_7) AppleWebKit/537.36 (KHTML, like Gecko) Chrome/96.0.4664.110 Safari/537.36",1440,900,1440,728,main,1011083,118,15,14,HM,Moderate,Harder than Reference,F,k,riskyDeck,safeDeck,14,0,7,right,0,1,39,present,safeDeck,618,5152
eshgcb5si7e,13550,24/03/2022@11:45:38,"Mozilla/5.0 (Macintosh; Intel Mac OS X 10_15_7) AppleWebKit/537.36 (KHTML, like Gecko) Chrome/96.0.4664.110 Safari/537.36",1440,900,1440,728,main,1011083,119,15,14,EM,Moderate,Easier than Reference,F,j,riskyDeck,safeDeck,0,-28,-14,right,0,0,18,present,safeDeck,507,1569
eshgcb5si7e,13550,24/03/2022@11:45:38,"Mozilla/5.0 (Macintosh; Intel Mac OS X 10_15_7) AppleWebKit/537.36 (KHTML, like Gecko) Chrome/96.0.4664.110 Safari/537.36",1440,900,1440,728,main,1011083,120,15,14,EE,Extreme,Easier than Reference,F,j,riskyDeck,safeDeck,-14,0,-7,right,0,0,25,present,safeDeck,525,710
eshgcb5si7e,13550,24/03/2022@11:45:38,"Mozilla/5.0 (Macintosh; Intel Mac OS X 10_15_7) AppleWebKit/537.36 (KHTML, like Gecko) Chrome/96.0.4664.110 Safari/537.36",1440,900,1440,728,main,1011083,121,15,14,EE,Extreme,Easier than Reference,F,j,riskyDeck,safeDeck,0,-14,-7,right,0,0,25,present,safeDeck,997,3632
eshgcb5si7e,13550,24/03/2022@11:45:38,"Mozilla/5.0 (Macintosh; Intel Mac OS X 10_15_7) AppleWebKit/537.36 (KHTML, like Gecko) Chrome/96.0.4664.110 Safari/537.36",1440,900,1440,728,main,1011083,122,15,14,HM,Moderate,Harder than Reference,F,k,riskyDeck,safeDeck,14,0,7,right,0,0,39,absent,safeDeck,622,5483
eshgcb5si7e,13550,24/03/2022@11:45:38,"Mozilla/5.0 (Macintosh; Intel Mac OS X 10_15_7) AppleWebKit/537.36 (KHTML, like Gecko) Chrome/96.0.4664.110 Safari/537.36",1440,900,1440,728,main,1011083,123,15,14,HE,Extreme,Harder than Reference,F,k,safeDeck,riskyDeck,28,0,14,right,1,0,60,absent,riskyDeck,1056,4402
eshgcb5si7e,13550,24/03/2022@11:45:38,"Mozilla/5.0 (Macintosh; Intel Mac OS X 10_15_7) AppleWebKit/537.36 (KHTML, like Gecko) Chrome/96.0.4664.110 Safari/537.36",1440,900,1440,728,main,1011083,124,15,14,EM,Moderate,Easier than Reference,D,j,safeDeck,riskyDeck,0,-28,-14,left,0,0,18,present,safeDeck,559,2411
eshgcb5si7e,13550,24/03/2022@11:45:38,"Mozilla/5.0 (Macintosh; Intel Mac OS X 10_15_7) AppleWebKit/537.36 (KHTML, like Gecko) Chrome/96.0.4664.110 Safari/537.36",1440,900,1440,728,main,1011083,125,16,14,EM,Moderate,Easier than Reference,F,k,riskyDeck,safeDeck,0,-28,-14,right,0,0,18,absent,safeDeck,927,5208
eshgcb5si7e,13550,24/03/2022@11:45:38,"Mozilla/5.0 (Macintosh; Intel Mac OS X 10_15_7) AppleWebKit/537.36 (KHTML, like Gecko) Chrome/96.0.4664.110 Safari/537.36",1440,900,1440,728,main,1011083,126,16,14,EE,Extreme,Easier than Reference,F,j,riskyDeck,safeDeck,-14,0,-7,right,0,0,25,present,safeDeck,1189,1749
eshgcb5si7e,13550,24/03/2022@11:45:38,"Mozilla/5.0 (Macintosh; Intel Mac OS X 10_15_7) AppleWebKit/537.36 (KHTML, like Gecko) Chrome/96.0.4664.110 Safari/537.36",1440,900,1440,728,main,1011083,127,16,15,HE,Extreme,Harder than Reference,D,k,safeDeck,riskyDeck,28,0,14,left,0,0,46,absent,safeDeck,767,5522
eshgcb5si7e,13550,24/03/2022@11:45:38,"Mozilla/5.0 (Macintosh; Intel Mac OS X 10_15_7) AppleWebKit/537.36 (KHTML, like Gecko) Chrome/96.0.4664.110 Safari/537.36",1440,900,1440,728,main,1011083,128,16,15,HM,Moderate,Harder than Reference,F,j,riskyDeck,safeDeck,0,14,7,right,0,0,39,present,safeDeck,893,3328
eshgcb5si7e,13550,24/03/2022@11:45:38,"Mozilla/5.0 (Macintosh; Intel Mac OS X 10_15_7) AppleWebKit/537.36 (KHTML, like Gecko) Chrome/96.0.4664.110 Safari/537.36",1440,900,1440,728,main,1011083,129,16,15,EM,Moderate,Easier than Reference,D,k,safeDeck,riskyDeck,-28,0,-14,left,0,0,18,absent,safeDeck,461,2472
eshgcb5si7e,13550,24/03/2022@11:45:38,"Mozilla/5.0 (Macintosh; Intel Mac OS X 10_15_7) AppleWebKit/537.36 (KHTML, like Gecko) Chrome/96.0.4664.110 Safari/537.36",1440,900,1440,728,main,1011083,130,16,15,EE,Extreme,Easier than Reference,D,k,riskyDeck,safeDeck,-14,0,-7,left,1,0,32,absent,riskyDeck,702,3208
eshgcb5si7e,13550,24/03/2022@11:45:38,"Mozilla/5.0 (Macintosh; Intel Mac OS X 10_15_7) AppleWebKit/537.36 (KHTML, like Gecko) Chrome/96.0.4664.110 Safari/537.36",1440,900,1440,728,main,1011083,131,16,15,HM,Moderate,Harder than Reference,F,j,riskyDeck,safeDeck,14,0,7,right,0,0,39,present,safeDeck,462,1467
eshgcb5si7e,13550,24/03/2022@11:45:38,"Mozilla/5.0 (Macintosh; Intel Mac OS X 10_15_7) AppleWebKit/537.36 (KHTML, like Gecko) Chrome/96.0.4664.110 Safari/537.36",1440,900,1440,728,main,1011083,132,16,15,HE,Extreme,Harder than Reference,D,k,safeDeck,riskyDeck,28,0,14,left,0,0,46,absent,safeDeck,579,6977
eshgcb5si7e,13550,24/03/2022@11:45:38,"Mozilla/5.0 (Macintosh; Intel Mac OS X 10_15_7) AppleWebKit/537.36 (KHTML, like Gecko) Chrome/96.0.4664.110 Safari/537.36",1440,900,1440,728,main,1011083,133,16,15,EM,Moderate,Easier than Reference,D,j,safeDeck,riskyDeck,-28,0,-14,left,0,0,18,present,safeDeck,561,3210
eshgcb5si7e,13550,24/03/2022@11:45:38,"Mozilla/5.0 (Macintosh; Intel Mac OS X 10_15_7) AppleWebKit/537.36 (KHTML, like Gecko) Chrome/96.0.4664.110 Safari/537.36",1440,900,1440,728,main,1011083,134,16,15,HM,Moderate,Harder than Reference,F,k,riskyDeck,safeDeck,14,0,7,right,0,0,39,absent,safeDeck,1518,3767
eshgcb5si7e,13550,24/03/2022@11:45:38,"Mozilla/5.0 (Macintosh; Intel Mac OS X 10_15_7) AppleWebKit/537.36 (KHTML, like Gecko) Chrome/96.0.4664.110 Safari/537.36",1440,900,1440,728,main,1011083,135,16,15,HE,Extreme,Harder than Reference,D,j,safeDeck,riskyDeck,0,28,14,left,0,0,46,present,safeDeck,737,1721
eshgcb5si7e,13550,24/03/2022@11:45:38,"Mozilla/5.0 (Macintosh; Intel Mac OS X 10_15_7) AppleWebKit/537.36 (KHTML, like Gecko) Chrome/96.0.4664.110 Safari/537.36",1440,900,1440,728,main,1011083,136,17,15,EE,Extreme,Easier than Reference,F,j,riskyDeck,safeDeck,-14,0,-7,right,0,0,25,present,safeDeck,1080,1084
eshgcb5si7e,13550,24/03/2022@11:45:38,"Mozilla/5.0 (Macintosh; Intel Mac OS X 10_15_7) AppleWebKit/537.36 (KHTML, like Gecko) Chrome/96.0.4664.110 Safari/537.36",1440,900,1440,728,main,1011083,137,17,16,EE,Extreme,Easier than Reference,F,k,riskyDeck,safeDeck,-14,0,-7,right,0,0,25,absent,safeDeck,779,4832
eshgcb5si7e,13550,24/03/2022@11:45:38,"Mozilla/5.0 (Macintosh; Intel Mac OS X 10_15_7) AppleWebKit/537.36 (KHTML, like Gecko) Chrome/96.0.4664.110 Safari/537.36",1440,900,1440,728,main,1011083,138,17,16,HM,Moderate,Harder than Reference,D,k,safeDeck,riskyDeck,0,14,7,left,0,0,39,absent,safeDeck,720,4098
eshgcb5si7e,13550,24/03/2022@11:45:38,"Mozilla/5.0 (Macintosh; Intel Mac OS X 10_15_7) AppleWebKit/537.36 (KHTML, like Gecko) Chrome/96.0.4664.110 Safari/537.36",1440,900,1440,728,main,1011083,139,17,16,EM,Moderate,Easier than Reference,F,k,riskyDeck,safeDeck,0,-28,-14,right,0,0,18,absent,safeDeck,4959,4787
eshgcb5si7e,13550,24/03/2022@11:45:38,"Mozilla/5.0 (Macintosh; Intel Mac OS X 10_15_7) AppleWebKit/537.36 (KHTML, like Gecko) Chrome/96.0.4664.110 Safari/537.36",1440,900,1440,728,main,1011083,140,17,16,HE,Extreme,Harder than Reference,D,k,safeDeck,riskyDeck,28,0,14,left,0,0,46,absent,safeDeck,437,4861
eshgcb5si7e,13550,24/03/2022@11:45:38,"Mozilla/5.0 (Macintosh; Intel Mac OS X 10_15_7) AppleWebKit/537.36 (KHTML, like Gecko) Chrome/96.0.4664.110 Safari/537.36",1440,900,1440,728,main,1011083,141,17,16,EE,Extreme,Easier than Reference,F,k,riskyDeck,safeDeck,-14,0,-7,right,0,0,25,absent,safeDeck,680,2403
eshgcb5si7e,13550,24/03/2022@11:45:38,"Mozilla/5.0 (Macintosh; Intel Mac OS X 10_15_7) AppleWebKit/537.36 (KHTML, like Gecko) Chrome/96.0.4664.110 Safari/537.36",1440,900,1440,728,main,1011083,142,17,16,HE,Extreme,Harder than Reference,D,j,safeDeck,riskyDeck,0,28,14,left,0,0,46,present,safeDeck,634,3022
eshgcb5si7e,13550,24/03/2022@11:45:38,"Mozilla/5.0 (Macintosh; Intel Mac OS X 10_15_7) AppleWebKit/537.36 (KHTML, like Gecko) Chrome/96.0.4664.110 Safari/537.36",1440,900,1440,728,main,1011083,143,17,16,HM,Moderate,Harder than Reference,F,j,safeDeck,riskyDeck,14,0,7,right,1,0,32,present,riskyDeck,694,1170
eshgcb5si7e,13550,24/03/2022@11:45:38,"Mozilla/5.0 (Macintosh; Intel Mac OS X 10_15_7) AppleWebKit/537.36 (KHTML, like Gecko) Chrome/96.0.4664.110 Safari/537.36",1440,900,1440,728,main,1011083,144,17,16,EM,Moderate,Easier than Reference,D,k,safeDeck,riskyDeck,0,-28,-14,left,0,0,18,absent,safeDeck,572,2256
eshgcb5si7e,13550,24/03/2022@11:45:38,"Mozilla/5.0 (Macintosh; Intel Mac OS X 10_15_7) AppleWebKit/537.36 (KHTML, like Gecko) Chrome/96.0.4664.110 Safari/537.36",1440,900,1440,728,main,1011083,145,17,16,HE,Extreme,Harder than Reference,D,k,safeDeck,riskyDeck,28,0,14,left,0,0,46,absent,safeDeck,803,3442
eshgcb5si7e,13550,24/03/2022@11:45:38,"Mozilla/5.0 (Macintosh; Intel Mac OS X 10_15_7) AppleWebKit/537.36 (KHTML, like Gecko) Chrome/96.0.4664.110 Safari/537.36",1440,900,1440,728,main,1011083,146,18,16,HM,Moderate,Harder than Reference,D,k,safeDeck,riskyDeck,0,14,7,left,0,0,39,absent,safeDeck,708,2291
eshgcb5si7e,13550,24/03/2022@11:45:38,"Mozilla/5.0 (Macintosh; Intel Mac OS X 10_15_7) AppleWebKit/537.36 (KHTML, like Gecko) Chrome/96.0.4664.110 Safari/537.36",1440,900,1440,728,main,1011083,147,18,16,EM,Moderate,Easier than Reference,D,j,riskyDeck,safeDeck,-28,0,-14,left,1,0,32,present,riskyDeck,428,1649
eshgcb5si7e,13550,24/03/2022@11:45:38,"Mozilla/5.0 (Macintosh; Intel Mac OS X 10_15_7) AppleWebKit/537.36 (KHTML, like Gecko) Chrome/96.0.4664.110 Safari/537.36",1440,900,1440,728,main,1011083,148,18,17,EE,Extreme,Easier than Reference,D,k,safeDeck,riskyDeck,-14,0,-7,left,0,0,25,absent,safeDeck,568,1986
eshgcb5si7e,13550,24/03/2022@11:45:38,"Mozilla/5.0 (Macintosh; Intel Mac OS X 10_15_7) AppleWebKit/537.36 (KHTML, like Gecko) Chrome/96.0.4664.110 Safari/537.36",1440,900,1440,728,main,1011083,149,18,17,EE,Extreme,Easier than Reference,D,k,safeDeck,riskyDeck,-14,0,-7,left,0,0,25,absent,safeDeck,310,1891
eshgcb5si7e,13550,24/03/2022@11:45:38,"Mozilla/5.0 (Macintosh; Intel Mac OS X 10_15_7) AppleWebKit/537.36 (KHTML, like Gecko) Chrome/96.0.4664.110 Safari/537.36",1440,900,1440,728,main,1011083,150,18,17,HE,Extreme,Harder than Reference,D,j,safeDeck,riskyDeck,0,28,14,left,0,0,46,present,safeDeck,417,2014
eshgcb5si7e,13550,24/03/2022@11:45:38,"Mozilla/5.0 (Macintosh; Intel Mac OS X 10_15_7) AppleWebKit/537.36 (KHTML, like Gecko) Chrome/96.0.4664.110 Safari/537.36",1440,900,1440,728,main,1011083,151,18,17,HM,Moderate,Harder than Reference,D,k,safeDeck,riskyDeck,0,14,7,left,0,0,39,absent,safeDeck,747,3219
eshgcb5si7e,13550,24/03/2022@11:45:38,"Mozilla/5.0 (Macintosh; Intel Mac OS X 10_15_7) AppleWebKit/537.36 (KHTML, like Gecko) Chrome/96.0.4664.110 Safari/537.36",1440,900,1440,728,main,1011083,152,18,17,EM,Moderate,Easier than Reference,D,k,safeDeck,riskyDeck,0,-28,-14,left,0,0,18,absent,safeDeck,555,2351
kj2ryh0camc,13835,21/03/2022@20:35:06,"Mozilla/5.0 (Macintosh; Intel Mac OS X 10_15_7) AppleWebKit/537.36 (KHTML, like Gecko) Chrome/98.0.4758.109 Safari/537.36",1440,900,1440,764,main,1852260,1,6,4,EM,Moderate,Easier than Reference,D,j,riskyDeck,safeDeck,0,-28,-14,left,1,1,32,absent,riskyDeck,11339,16779
kj2ryh0camc,13835,21/03/2022@20:35:06,"Mozilla/5.0 (Macintosh; Intel Mac OS X 10_15_7) AppleWebKit/537.36 (KHTML, like Gecko) Chrome/98.0.4758.109 Safari/537.36",1440,900,1440,764,main,1852260,2,7,5,EE,Extreme,Easier than Reference,D,j,safeDeck,riskyDeck,-14,0,-7,left,0,0,25,present,safeDeck,4306,21768
kj2ryh0camc,13835,21/03/2022@20:35:06,"Mozilla/5.0 (Macintosh; Intel Mac OS X 10_15_7) AppleWebKit/537.36 (KHTML, like Gecko) Chrome/98.0.4758.109 Safari/537.36",1440,900,1440,764,main,1852260,3,7,5,HM,Moderate,Harder than Reference,D,j,safeDeck,riskyDeck,14,0,7,left,0,0,39,present,safeDeck,13860,3441
kj2ryh0camc,13835,21/03/2022@20:35:06,"Mozilla/5.0 (Macintosh; Intel Mac OS X 10_15_7) AppleWebKit/537.36 (KHTML, like Gecko) Chrome/98.0.4758.109 Safari/537.36",1440,900,1440,764,main,1852260,4,7,5,HE,Extreme,Harder than Reference,D,j,safeDeck,riskyDeck,28,0,14,left,0,0,46,present,safeDeck,2325,5940
kj2ryh0camc,13835,21/03/2022@20:35:06,"Mozilla/5.0 (Macintosh; Intel Mac OS X 10_15_7) AppleWebKit/537.36 (KHTML, like Gecko) Chrome/98.0.4758.109 Safari/537.36",1440,900,1440,764,main,1852260,5,7,6,EE,Extreme,Easier than Reference,F,j,riskyDeck,safeDeck,-14,0,-7,right,0,1,25,absent,safeDeck,3901,5966
kj2ryh0camc,13835,21/03/2022@20:35:06,"Mozilla/5.0 (Macintosh; Intel Mac OS X 10_15_7) AppleWebKit/537.36 (KHTML, like Gecko) Chrome/98.0.4758.109 Safari/537.36",1440,900,1440,764,main,1852260,6,8,6,HM,Moderate,Harder than Reference,F,k,riskyDeck,safeDeck,14,0,7,right,0,0,39,absent,safeDeck,9099,5151
kj2ryh0camc,13835,21/03/2022@20:35:06,"Mozilla/5.0 (Macintosh; Intel Mac OS X 10_15_7) AppleWebKit/537.36 (KHTML, like Gecko) Chrome/98.0.4758.109 Safari/537.36",1440,900,1440,764,main,1852260,7,8,6,HE,Extreme,Harder than Reference,F,k,riskyDeck,safeDeck,0,28,14,right,0,0,46,absent,safeDeck,5302,17469
kj2ryh0camc,13835,21/03/2022@20:35:06,"Mozilla/5.0 (Macintosh; Intel Mac OS X 10_15_7) AppleWebKit/537.36 (KHTML, like Gecko) Chrome/98.0.4758.109 Safari/537.36",1440,900,1440,764,main,1852260,8,8,6,EM,Moderate,Easier than Reference,D,k,safeDeck,riskyDeck,-28,0,-14,left,0,0,18,absent,safeDeck,7021,3438
kj2ryh0camc,13835,21/03/2022@20:35:06,"Mozilla/5.0 (Macintosh; Intel Mac OS X 10_15_7) AppleWebKit/537.36 (KHTML, like Gecko) Chrome/98.0.4758.109 Safari/537.36",1440,900,1440,764,main,1852260,9,8,7,EM,Moderate,Easier than Reference,F,j,safeDeck,riskyDeck,0,-28,-14,right,1,0,32,present,riskyDeck,6776,5693
kj2ryh0camc,13835,21/03/2022@20:35:06,"Mozilla/5.0 (Macintosh; Intel Mac OS X 10_15_7) AppleWebKit/537.36 (KHTML, like Gecko) Chrome/98.0.4758.109 Safari/537.36",1440,900,1440,764,main,1852260,10,9,7,HE,Extreme,Harder than Reference,D,j,safeDeck,riskyDeck,28,0,14,left,0,0,46,present,safeDeck,7608,8145
kj2ryh0camc,13835,21/03/2022@20:35:06,"Mozilla/5.0 (Macintosh; Intel Mac OS X 10_15_7) AppleWebKit/537.36 (KHTML, like Gecko) Chrome/98.0.4758.109 Safari/537.36",1440,900,1440,764,main,1852260,11,9,8,EE,Extreme,Easier than Reference,F,k,safeDeck,riskyDeck,0,-14,-7,right,1,0,32,absent,riskyDeck,8033,32229
kj2ryh0camc,13835,21/03/2022@20:35:06,"Mozilla/5.0 (Macintosh; Intel Mac OS X 10_15_7) AppleWebKit/537.36 (KHTML, like Gecko) Chrome/98.0.4758.109 Safari/537.36",1440,900,1440,764,main,1852260,12,10,8,HM,Moderate,Harder than Reference,F,k,riskyDeck,safeDeck,0,14,7,right,0,0,39,absent,safeDeck,6030,10427
kj2ryh0camc,13835,21/03/2022@20:35:06,"Mozilla/5.0 (Macintosh; Intel Mac OS X 10_15_7) AppleWebKit/537.36 (KHTML, like Gecko) Chrome/98.0.4758.109 Safari/537.36",1440,900,1440,764,main,1852260,13,10,8,HE,Extreme,Harder than Reference,F,k,riskyDeck,safeDeck,0,28,14,right,0,1,46,present,safeDeck,5979,8030
kj2ryh0camc,13835,21/03/2022@20:35:06,"Mozilla/5.0 (Macintosh; Intel Mac OS X 10_15_7) AppleWebKit/537.36 (KHTML, like Gecko) Chrome/98.0.4758.109 Safari/537.36",1440,900,1440,764,main,1852260,14,10,9,EE,Extreme,Easier than Reference,F,j,safeDeck,riskyDeck,0,-14,-7,right,1,0,18,present,riskyDeck,6600,8758
kj2ryh0camc,13835,21/03/2022@20:35:06,"Mozilla/5.0 (Macintosh; Intel Mac OS X 10_15_7) AppleWebKit/537.36 (KHTML, like Gecko) Chrome/98.0.4758.109 Safari/537.36",1440,900,1440,764,main,1852260,15,11,9,EM,Moderate,Easier than Reference,D,k,riskyDeck,safeDeck,0,-28,-14,left,1,0,32,absent,riskyDeck,7303,12501
kj2ryh0camc,13835,21/03/2022@20:35:06,"Mozilla/5.0 (Macintosh; Intel Mac OS X 10_15_7) AppleWebKit/537.36 (KHTML, like Gecko) Chrome/98.0.4758.109 Safari/537.36",1440,900,1440,764,main,1852260,16,11,9,HM,Moderate,Harder than Reference,F,k,riskyDeck,safeDeck,14,0,7,right,0,0,39,absent,safeDeck,4719,13941
kj2ryh0camc,13835,21/03/2022@20:35:06,"Mozilla/5.0 (Macintosh; Intel Mac OS X 10_15_7) AppleWebKit/537.36 (KHTML, like Gecko) Chrome/98.0.4758.109 Safari/537.36",1440,900,1440,764,main,1852260,17,11,10,EM,Moderate,Easier than Reference,F,j,safeDeck,riskyDeck,-28,0,-14,right,1,0,4,present,riskyDeck,2141,22004
kj2ryh0camc,13835,21/03/2022@20:35:06,"Mozilla/5.0 (Macintosh; Intel Mac OS X 10_15_7) AppleWebKit/537.36 (KHTML, like Gecko) Chrome/98.0.4758.109 Safari/537.36",1440,900,1440,764,main,1852260,18,12,10,EE,Extreme,Easier than Reference,D,j,safeDeck,riskyDeck,0,-14,-7,left,0,0,25,present,safeDeck,4559,3478
kj2ryh0camc,13835,21/03/2022@20:35:06,"Mozilla/5.0 (Macintosh; Intel Mac OS X 10_15_7) AppleWebKit/537.36 (KHTML, like Gecko) Chrome/98.0.4758.109 Safari/537.36",1440,900,1440,764,main,1852260,19,12,10,HE,Extreme,Harder than Reference,D,k,riskyDeck,safeDeck,28,0,14,left,1,0,32,absent,riskyDeck,11344,11704
kj2ryh0camc,13835,21/03/2022@20:35:06,"Mozilla/5.0 (Macintosh; Intel Mac OS X 10_15_7) AppleWebKit/537.36 (KHTML, like Gecko) Chrome/98.0.4758.109 Safari/537.36",1440,900,1440,764,main,1852260,20,12,10,HM,Moderate,Harder than Reference,F,k,riskyDeck,safeDeck,14,0,7,right,0,0,39,absent,safeDeck,2855,7117
kj2ryh0camc,13835,21/03/2022@20:35:06,"Mozilla/5.0 (Macintosh; Intel Mac OS X 10_15_7) AppleWebKit/537.36 (KHTML, like Gecko) Chrome/98.0.4758.109 Safari/537.36",1440,900,1440,764,main,1852260,21,13,11,EE,Extreme,Easier than Reference,D,k,riskyDeck,safeDeck,0,-14,-7,left,1,1,18,present,riskyDeck,14289,2604
kj2ryh0camc,13835,21/03/2022@20:35:06,"Mozilla/5.0 (Macintosh; Intel Mac OS X 10_15_7) AppleWebKit/537.36 (KHTML, like Gecko) Chrome/98.0.4758.109 Safari/537.36",1440,900,1440,764,main,1852260,22,13,11,HE,Extreme,Harder than Reference,D,j,safeDeck,riskyDeck,28,0,14,left,0,0,46,present,safeDeck,3044,2180
kj2ryh0camc,13835,21/03/2022@20:35:06,"Mozilla/5.0 (Macintosh; Intel Mac OS X 10_15_7) AppleWebKit/537.36 (KHTML, like Gecko) Chrome/98.0.4758.109 Safari/537.36",1440,900,1440,764,main,1852260,23,13,11,HM,Moderate,Harder than Reference,F,k,riskyDeck,safeDeck,14,0,7,right,0,0,39,absent,safeDeck,2365,6729
