subject,sona_id,curTime,userAgent,screenWidth,screenHeight,windowWidth,windowHeight,phase,phase_run_time,trial,exp_runtime_mins,phase_runtime_mins,condition,magnitude,direction,choice_response_key,search_response_key,left_deck_id,right_deck_id,risky_deck_outcome_top,risky_deck_outcome_bottom,safe_deck_outcome,selected_deck_location,selectedRiskyDeck,error,n_stimuli,present_or_absent,chosenDeckId,choice_rt,search_rt
svjyonkeq3,13575,21/03/2022@12:41:42,"Mozilla/5.0 (Windows NT 10.0; Win64; x64) AppleWebKit/537.36 (KHTML, like Gecko) Chrome/99.0.4844.51 Safari/537.36",1280,720,1280,609,main,1964665,1,7,4,HE,Extreme,Harder than Reference,F,j,riskyDeck,safeDeck,28,0,14,right,0,0,46,present,safeDeck,7551,13456
svjyonkeq3,13575,21/03/2022@12:41:42,"Mozilla/5.0 (Windows NT 10.0; Win64; x64) AppleWebKit/537.36 (KHTML, like Gecko) Chrome/99.0.4844.51 Safari/537.36",1280,720,1280,609,main,1964665,2,7,4,EM,Moderate,Easier than Reference,D,j,safeDeck,riskyDeck,0,-28,-14,left,0,0,18,present,safeDeck,3241,4713
svjyonkeq3,13575,21/03/2022@12:41:42,"Mozilla/5.0 (Windows NT 10.0; Win64; x64) AppleWebKit/537.36 (KHTML, like Gecko) Chrome/99.0.4844.51 Safari/537.36",1280,720,1280,609,main,1964665,3,7,4,EE,Extreme,Easier than Reference,F,k,riskyDeck,safeDeck,0,-14,-7,right,0,0,25,absent,safeDeck,1988,4167
svjyonkeq3,13575,21/03/2022@12:41:42,"Mozilla/5.0 (Windows NT 10.0; Win64; x64) AppleWebKit/537.36 (KHTML, like Gecko) Chrome/99.0.4844.51 Safari/537.36",1280,720,1280,609,main,1964665,4,7,5,HM,Moderate,Harder than Reference,F,k,riskyDeck,safeDeck,0,14,7,right,0,1,39,present,safeDeck,2499,5439
svjyonkeq3,13575,21/03/2022@12:41:42,"Mozilla/5.0 (Windows NT 10.0; Win64; x64) AppleWebKit/537.36 (KHTML, like Gecko) Chrome/99.0.4844.51 Safari/537.36",1280,720,1280,609,main,1964665,5,7,5,EM,Moderate,Easier than Reference,D,k,safeDeck,riskyDeck,-28,0,-14,left,0,1,18,present,safeDeck,977,4670
svjyonkeq3,13575,21/03/2022@12:41:42,"Mozilla/5.0 (Windows NT 10.0; Win64; x64) AppleWebKit/537.36 (KHTML, like Gecko) Chrome/99.0.4844.51 Safari/537.36",1280,720,1280,609,main,1964665,6,8,5,EE,Extreme,Easier than Reference,F,j,riskyDeck,safeDeck,-14,0,-7,right,0,0,25,present,safeDeck,1351,8544
svjyonkeq3,13575,21/03/2022@12:41:42,"Mozilla/5.0 (Windows NT 10.0; Win64; x64) AppleWebKit/537.36 (KHTML, like Gecko) Chrome/99.0.4844.51 Safari/537.36",1280,720,1280,609,main,1964665,7,8,5,HE,Extreme,Harder than Reference,D,k,riskyDeck,safeDeck,0,28,14,left,1,0,32,absent,riskyDeck,1092,6712
svjyonkeq3,13575,21/03/2022@12:41:42,"Mozilla/5.0 (Windows NT 10.0; Win64; x64) AppleWebKit/537.36 (KHTML, like Gecko) Chrome/99.0.4844.51 Safari/537.36",1280,720,1280,609,main,1964665,8,8,5,HM,Moderate,Harder than Reference,F,j,riskyDeck,safeDeck,14,0,7,right,0,0,39,present,safeDeck,1144,6313
svjyonkeq3,13575,21/03/2022@12:41:42,"Mozilla/5.0 (Windows NT 10.0; Win64; x64) AppleWebKit/537.36 (KHTML, like Gecko) Chrome/99.0.4844.51 Safari/537.36",1280,720,1280,609,main,1964665,9,8,5,EE,Extreme,Easier than Reference,D,k,riskyDeck,safeDeck,-14,0,-7,left,1,1,18,present,riskyDeck,1358,4725
svjyonkeq3,13575,21/03/2022@12:41:42,"Mozilla/5.0 (Windows NT 10.0; Win64; x64) AppleWebKit/537.36 (KHTML, like Gecko) Chrome/99.0.4844.51 Safari/537.36",1280,720,1280,609,main,1964665,10,8,6,HE,Extreme,Harder than Reference,D,k,safeDeck,riskyDeck,0,28,14,left,0,0,46,absent,safeDeck,644,11752
svjyonkeq3,13575,21/03/2022@12:41:42,"Mozilla/5.0 (Windows NT 10.0; Win64; x64) AppleWebKit/537.36 (KHTML, like Gecko) Chrome/99.0.4844.51 Safari/537.36",1280,720,1280,609,main,1964665,11,8,6,HM,Moderate,Harder than Reference,D,k,safeDeck,riskyDeck,14,0,7,left,0,0,39,absent,safeDeck,853,8352
svjyonkeq3,13575,21/03/2022@12:41:42,"Mozilla/5.0 (Windows NT 10.0; Win64; x64) AppleWebKit/537.36 (KHTML, like Gecko) Chrome/99.0.4844.51 Safari/537.36",1280,720,1280,609,main,1964665,12,9,6,EM,Moderate,Easier than Reference,D,j,safeDeck,riskyDeck,-28,0,-14,left,0,0,18,present,safeDeck,551,2153
svjyonkeq3,13575,21/03/2022@12:41:42,"Mozilla/5.0 (Windows NT 10.0; Win64; x64) AppleWebKit/537.36 (KHTML, like Gecko) Chrome/99.0.4844.51 Safari/537.36",1280,720,1280,609,main,1964665,13,9,6,HE,Extreme,Harder than Reference,D,k,riskyDeck,safeDeck,0,28,14,left,1,0,32,absent,riskyDeck,825,6006
svjyonkeq3,13575,21/03/2022@12:41:42,"Mozilla/5.0 (Windows NT 10.0; Win64; x64) AppleWebKit/537.36 (KHTML, like Gecko) Chrome/99.0.4844.51 Safari/537.36",1280,720,1280,609,main,1964665,14,9,6,EM,Moderate,Easier than Reference,D,j,safeDeck,riskyDeck,0,-28,-14,left,0,0,18,present,safeDeck,485,1132
svjyonkeq3,13575,21/03/2022@12:41:42,"Mozilla/5.0 (Windows NT 10.0; Win64; x64) AppleWebKit/537.36 (KHTML, like Gecko) Chrome/99.0.4844.51 Safari/537.36",1280,720,1280,609,main,1964665,15,9,6,EE,Extreme,Easier than Reference,D,k,riskyDeck,safeDeck,-14,0,-7,left,1,0,32,absent,riskyDeck,1176,4405
svjyonkeq3,13575,21/03/2022@12:41:42,"Mozilla/5.0 (Windows NT 10.0; Win64; x64) AppleWebKit/537.36 (KHTML, like Gecko) Chrome/99.0.4844.51 Safari/537.36",1280,720,1280,609,main,1964665,16,9,6,HM,Moderate,Harder than Reference,D,k,safeDeck,riskyDeck,14,0,7,left,0,0,39,absent,safeDeck,738,4005
svjyonkeq3,13575,21/03/2022@12:41:42,"Mozilla/5.0 (Windows NT 10.0; Win64; x64) AppleWebKit/537.36 (KHTML, like Gecko) Chrome/99.0.4844.51 Safari/537.36",1280,720,1280,609,main,1964665,17,9,6,EM,Moderate,Easier than Reference,D,j,safeDeck,riskyDeck,-28,0,-14,left,0,0,18,present,safeDeck,550,1426
svjyonkeq3,13575,21/03/2022@12:41:42,"Mozilla/5.0 (Windows NT 10.0; Win64; x64) AppleWebKit/537.36 (KHTML, like Gecko) Chrome/99.0.4844.51 Safari/537.36",1280,720,1280,609,main,1964665,18,9,7,HE,Extreme,Harder than Reference,F,k,safeDeck,riskyDeck,0,28,14,right,1,0,32,absent,riskyDeck,1295,4453
svjyonkeq3,13575,21/03/2022@12:41:42,"Mozilla/5.0 (Windows NT 10.0; Win64; x64) AppleWebKit/537.36 (KHTML, like Gecko) Chrome/99.0.4844.51 Safari/537.36",1280,720,1280,609,main,1964665,19,9,7,EE,Extreme,Easier than Reference,F,k,riskyDeck,safeDeck,0,-14,-7,right,0,0,25,absent,safeDeck,1090,3489
svjyonkeq3,13575,21/03/2022@12:41:42,"Mozilla/5.0 (Windows NT 10.0; Win64; x64) AppleWebKit/537.36 (KHTML, like Gecko) Chrome/99.0.4844.51 Safari/537.36",1280,720,1280,609,main,1964665,20,9,7,HM,Moderate,Harder than Reference,F,k,riskyDeck,safeDeck,14,0,7,right,0,0,39,absent,safeDeck,1155,7978
svjyonkeq3,13575,21/03/2022@12:41:42,"Mozilla/5.0 (Windows NT 10.0; Win64; x64) AppleWebKit/537.36 (KHTML, like Gecko) Chrome/99.0.4844.51 Safari/537.36",1280,720,1280,609,main,1964665,21,10,7,EE,Extreme,Easier than Reference,D,j,safeDeck,riskyDeck,-14,0,-7,left,0,0,25,present,safeDeck,515,4752
svjyonkeq3,13575,21/03/2022@12:41:42,"Mozilla/5.0 (Windows NT 10.0; Win64; x64) AppleWebKit/537.36 (KHTML, like Gecko) Chrome/99.0.4844.51 Safari/537.36",1280,720,1280,609,main,1964665,22,10,7,HM,Moderate,Harder than Reference,D,j,safeDeck,riskyDeck,0,14,7,left,0,0,39,present,safeDeck,633,3475
svjyonkeq3,13575,21/03/2022@12:41:42,"Mozilla/5.0 (Windows NT 10.0; Win64; x64) AppleWebKit/537.36 (KHTML, like Gecko) Chrome/99.0.4844.51 Safari/537.36",1280,720,1280,609,main,1964665,23,10,7,HE,Extreme,Harder than Reference,D,k,safeDeck,riskyDeck,28,0,14,left,0,0,46,absent,safeDeck,693,7208
svjyonkeq3,13575,21/03/2022@12:41:42,"Mozilla/5.0 (Windows NT 10.0; Win64; x64) AppleWebKit/537.36 (KHTML, like Gecko) Chrome/99.0.4844.51 Safari/537.36",1280,720,1280,609,main,1964665,24,10,7,EM,Moderate,Easier than Reference,D,k,safeDeck,riskyDeck,-28,0,-14,left,0,0,18,absent,safeDeck,703,4773
svjyonkeq3,13575,21/03/2022@12:41:42,"Mozilla/5.0 (Windows NT 10.0; Win64; x64) AppleWebKit/537.36 (KHTML, like Gecko) Chrome/99.0.4844.51 Safari/537.36",1280,720,1280,609,main,1964665,25,10,7,EE,Extreme,Easier than Reference,D,k,riskyDeck,safeDeck,-14,0,-7,left,1,0,32,absent,riskyDeck,633,4959
svjyonkeq3,13575,21/03/2022@12:41:42,"Mozilla/5.0 (Windows NT 10.0; Win64; x64) AppleWebKit/537.36 (KHTML, like Gecko) Chrome/99.0.4844.51 Safari/537.36",1280,720,1280,609,main,1964665,26,10,8,HM,Moderate,Harder than Reference,D,k,safeDeck,riskyDeck,0,14,7,left,0,0,39,absent,safeDeck,755,5371
svjyonkeq3,13575,21/03/2022@12:41:42,"Mozilla/5.0 (Windows NT 10.0; Win64; x64) AppleWebKit/537.36 (KHTML, like Gecko) Chrome/99.0.4844.51 Safari/537.36",1280,720,1280,609,main,1964665,27,10,8,HE,Extreme,Harder than Reference,D,k,safeDeck,riskyDeck,28,0,14,left,0,0,46,absent,safeDeck,982,6279
svjyonkeq3,13575,21/03/2022@12:41:42,"Mozilla/5.0 (Windows NT 10.0; Win64; x64) AppleWebKit/537.36 (KHTML, like Gecko) Chrome/99.0.4844.51 Safari/537.36",1280,720,1280,609,main,1964665,28,10,8,EM,Moderate,Easier than Reference,D,k,safeDeck,riskyDeck,0,-28,-14,left,0,0,18,absent,safeDeck,430,4541
svjyonkeq3,13575,21/03/2022@12:41:42,"Mozilla/5.0 (Windows NT 10.0; Win64; x64) AppleWebKit/537.36 (KHTML, like Gecko) Chrome/99.0.4844.51 Safari/537.36",1280,720,1280,609,main,1964665,29,11,8,EE,Extreme,Easier than Reference,F,k,riskyDeck,safeDeck,0,-14,-7,right,0,0,25,absent,safeDeck,918,3908
svjyonkeq3,13575,21/03/2022@12:41:42,"Mozilla/5.0 (Windows NT 10.0; Win64; x64) AppleWebKit/537.36 (KHTML, like Gecko) Chrome/99.0.4844.51 Safari/537.36",1280,720,1280,609,main,1964665,30,11,8,EM,Moderate,Easier than Reference,F,k,riskyDeck,safeDeck,0,-28,-14,right,0,0,18,absent,safeDeck,1070,3249
svjyonkeq3,13575,21/03/2022@12:41:42,"Mozilla/5.0 (Windows NT 10.0; Win64; x64) AppleWebKit/537.36 (KHTML, like Gecko) Chrome/99.0.4844.51 Safari/537.36",1280,720,1280,609,main,1964665,31,11,8,HM,Moderate,Harder than Reference,F,j,safeDeck,riskyDeck,0,14,7,right,1,0,46,present,riskyDeck,938,3614
svjyonkeq3,13575,21/03/2022@12:41:42,"Mozilla/5.0 (Windows NT 10.0; Win64; x64) AppleWebKit/537.36 (KHTML, like Gecko) Chrome/99.0.4844.51 Safari/537.36",1280,720,1280,609,main,1964665,32,11,8,HE,Extreme,Harder than Reference,F,k,riskyDeck,safeDeck,28,0,14,right,0,0,46,absent,safeDeck,892,5634
svjyonkeq3,13575,21/03/2022@12:41:42,"Mozilla/5.0 (Windows NT 10.0; Win64; x64) AppleWebKit/537.36 (KHTML, like Gecko) Chrome/99.0.4844.51 Safari/537.36",1280,720,1280,609,main,1964665,33,11,8,EE,Extreme,Easier than Reference,D,k,riskyDeck,safeDeck,-14,0,-7,left,1,0,18,absent,riskyDeck,1263,3292
svjyonkeq3,13575,21/03/2022@12:41:42,"Mozilla/5.0 (Windows NT 10.0; Win64; x64) AppleWebKit/537.36 (KHTML, like Gecko) Chrome/99.0.4844.51 Safari/537.36",1280,720,1280,609,main,1964665,34,11,8,HM,Moderate,Harder than Reference,F,k,riskyDeck,safeDeck,14,0,7,right,0,1,39,present,safeDeck,768,3009
svjyonkeq3,13575,21/03/2022@12:41:42,"Mozilla/5.0 (Windows NT 10.0; Win64; x64) AppleWebKit/537.36 (KHTML, like Gecko) Chrome/99.0.4844.51 Safari/537.36",1280,720,1280,609,main,1964665,35,11,9,EM,Moderate,Easier than Reference,D,k,safeDeck,riskyDeck,0,-28,-14,left,0,0,18,absent,safeDeck,571,2600
svjyonkeq3,13575,21/03/2022@12:41:42,"Mozilla/5.0 (Windows NT 10.0; Win64; x64) AppleWebKit/537.36 (KHTML, like Gecko) Chrome/99.0.4844.51 Safari/537.36",1280,720,1280,609,main,1964665,36,11,9,HE,Extreme,Harder than Reference,D,k,riskyDeck,safeDeck,0,28,14,left,1,0,32,absent,riskyDeck,920,4839
svjyonkeq3,13575,21/03/2022@12:41:42,"Mozilla/5.0 (Windows NT 10.0; Win64; x64) AppleWebKit/537.36 (KHTML, like Gecko) Chrome/99.0.4844.51 Safari/537.36",1280,720,1280,609,main,1964665,37,11,9,HE,Extreme,Harder than Reference,F,k,safeDeck,riskyDeck,0,28,14,right,1,0,32,absent,riskyDeck,1009,3628
svjyonkeq3,13575,21/03/2022@12:41:42,"Mozilla/5.0 (Windows NT 10.0; Win64; x64) AppleWebKit/537.36 (KHTML, like Gecko) Chrome/99.0.4844.51 Safari/537.36",1280,720,1280,609,main,1964665,38,12,9,HM,Moderate,Harder than Reference,D,k,safeDeck,riskyDeck,14,0,7,left,0,0,39,absent,safeDeck,883,7729
svjyonkeq3,13575,21/03/2022@12:41:42,"Mozilla/5.0 (Windows NT 10.0; Win64; x64) AppleWebKit/537.36 (KHTML, like Gecko) Chrome/99.0.4844.51 Safari/537.36",1280,720,1280,609,main,1964665,39,16,13,EM,Moderate,Easier than Reference,D,k,riskyDeck,safeDeck,-28,0,-14,left,1,0,4,absent,riskyDeck,2764,1474
svjyonkeq3,13575,21/03/2022@12:41:42,"Mozilla/5.0 (Windows NT 10.0; Win64; x64) AppleWebKit/537.36 (KHTML, like Gecko) Chrome/99.0.4844.51 Safari/537.36",1280,720,1280,609,main,1964665,40,16,13,EE,Extreme,Easier than Reference,D,j,safeDeck,riskyDeck,-14,0,-7,left,0,0,25,present,safeDeck,995,1766
svjyonkeq3,13575,21/03/2022@12:41:42,"Mozilla/5.0 (Windows NT 10.0; Win64; x64) AppleWebKit/537.36 (KHTML, like Gecko) Chrome/99.0.4844.51 Safari/537.36",1280,720,1280,609,main,1964665,41,16,14,EM,Moderate,Easier than Reference,F,j,riskyDeck,safeDeck,0,-28,-14,right,0,0,18,present,safeDeck,1057,1043
svjyonkeq3,13575,21/03/2022@12:41:42,"Mozilla/5.0 (Windows NT 10.0; Win64; x64) AppleWebKit/537.36 (KHTML, like Gecko) Chrome/99.0.4844.51 Safari/537.36",1280,720,1280,609,main,1964665,42,16,14,HE,Extreme,Harder than Reference,F,k,riskyDeck,safeDeck,28,0,14,right,0,0,46,absent,safeDeck,1915,4111
svjyonkeq3,13575,21/03/2022@12:41:42,"Mozilla/5.0 (Windows NT 10.0; Win64; x64) AppleWebKit/537.36 (KHTML, like Gecko) Chrome/99.0.4844.51 Safari/537.36",1280,720,1280,609,main,1964665,43,16,14,HM,Moderate,Harder than Reference,D,k,riskyDeck,safeDeck,0,14,7,left,1,0,46,absent,riskyDeck,1104,6204
svjyonkeq3,13575,21/03/2022@12:41:42,"Mozilla/5.0 (Windows NT 10.0; Win64; x64) AppleWebKit/537.36 (KHTML, like Gecko) Chrome/99.0.4844.51 Safari/537.36",1280,720,1280,609,main,1964665,44,17,14,EE,Extreme,Easier than Reference,D,j,safeDeck,riskyDeck,-14,0,-7,left,0,0,25,present,safeDeck,574,2323
svjyonkeq3,13575,21/03/2022@12:41:42,"Mozilla/5.0 (Windows NT 10.0; Win64; x64) AppleWebKit/537.36 (KHTML, like Gecko) Chrome/99.0.4844.51 Safari/537.36",1280,720,1280,609,main,1964665,45,17,14,EM,Moderate,Easier than Reference,F,j,riskyDeck,safeDeck,0,-28,-14,right,0,0,18,present,safeDeck,1002,1614
svjyonkeq3,13575,21/03/2022@12:41:42,"Mozilla/5.0 (Windows NT 10.0; Win64; x64) AppleWebKit/537.36 (KHTML, like Gecko) Chrome/99.0.4844.51 Safari/537.36",1280,720,1280,609,main,1964665,46,17,14,HM,Moderate,Harder than Reference,F,j,riskyDeck,safeDeck,0,14,7,right,0,0,39,present,safeDeck,1628,3111
svjyonkeq3,13575,21/03/2022@12:41:42,"Mozilla/5.0 (Windows NT 10.0; Win64; x64) AppleWebKit/537.36 (KHTML, like Gecko) Chrome/99.0.4844.51 Safari/537.36",1280,720,1280,609,main,1964665,47,17,14,EE,Extreme,Easier than Reference,D,k,riskyDeck,safeDeck,-14,0,-7,left,1,0,32,absent,riskyDeck,928,5692
svjyonkeq3,13575,21/03/2022@12:41:42,"Mozilla/5.0 (Windows NT 10.0; Win64; x64) AppleWebKit/537.36 (KHTML, like Gecko) Chrome/99.0.4844.51 Safari/537.36",1280,720,1280,609,main,1964665,48,17,14,HE,Extreme,Harder than Reference,F,k,safeDeck,riskyDeck,0,28,14,right,1,0,32,absent,riskyDeck,836,3648
svjyonkeq3,13575,21/03/2022@12:41:42,"Mozilla/5.0 (Windows NT 10.0; Win64; x64) AppleWebKit/537.36 (KHTML, like Gecko) Chrome/99.0.4844.51 Safari/537.36",1280,720,1280,609,main,1964665,49,17,14,EE,Extreme,Easier than Reference,D,j,safeDeck,riskyDeck,-14,0,-7,left,0,0,25,present,safeDeck,840,1179
svjyonkeq3,13575,21/03/2022@12:41:42,"Mozilla/5.0 (Windows NT 10.0; Win64; x64) AppleWebKit/537.36 (KHTML, like Gecko) Chrome/99.0.4844.51 Safari/537.36",1280,720,1280,609,main,1964665,50,17,15,HM,Moderate,Harder than Reference,D,k,riskyDeck,safeDeck,0,14,7,left,1,0,32,absent,riskyDeck,1024,4614
svjyonkeq3,13575,21/03/2022@12:41:42,"Mozilla/5.0 (Windows NT 10.0; Win64; x64) AppleWebKit/537.36 (KHTML, like Gecko) Chrome/99.0.4844.51 Safari/537.36",1280,720,1280,609,main,1964665,51,17,15,HE,Extreme,Harder than Reference,D,j,safeDeck,riskyDeck,28,0,14,left,0,0,46,present,safeDeck,936,2418
svjyonkeq3,13575,21/03/2022@12:41:42,"Mozilla/5.0 (Windows NT 10.0; Win64; x64) AppleWebKit/537.36 (KHTML, like Gecko) Chrome/99.0.4844.51 Safari/537.36",1280,720,1280,609,main,1964665,52,17,15,EM,Moderate,Easier than Reference,F,j,riskyDeck,safeDeck,-28,0,-14,right,0,0,18,present,safeDeck,929,1114
svjyonkeq3,13575,21/03/2022@12:41:42,"Mozilla/5.0 (Windows NT 10.0; Win64; x64) AppleWebKit/537.36 (KHTML, like Gecko) Chrome/99.0.4844.51 Safari/537.36",1280,720,1280,609,main,1964665,53,17,15,HM,Moderate,Harder than Reference,F,k,riskyDeck,safeDeck,14,0,7,right,0,0,39,absent,safeDeck,993,3751
svjyonkeq3,13575,21/03/2022@12:41:42,"Mozilla/5.0 (Windows NT 10.0; Win64; x64) AppleWebKit/537.36 (KHTML, like Gecko) Chrome/99.0.4844.51 Safari/537.36",1280,720,1280,609,main,1964665,54,18,15,EE,Extreme,Easier than Reference,D,k,riskyDeck,safeDeck,-14,0,-7,left,1,0,32,absent,riskyDeck,916,3531
svjyonkeq3,13575,21/03/2022@12:41:42,"Mozilla/5.0 (Windows NT 10.0; Win64; x64) AppleWebKit/537.36 (KHTML, like Gecko) Chrome/99.0.4844.51 Safari/537.36",1280,720,1280,609,main,1964665,55,18,15,EM,Moderate,Easier than Reference,F,j,riskyDeck,safeDeck,0,-28,-14,right,0,0,18,present,safeDeck,909,1741
svjyonkeq3,13575,21/03/2022@12:41:42,"Mozilla/5.0 (Windows NT 10.0; Win64; x64) AppleWebKit/537.36 (KHTML, like Gecko) Chrome/99.0.4844.51 Safari/537.36",1280,720,1280,609,main,1964665,56,18,15,HE,Extreme,Harder than Reference,D,j,riskyDeck,safeDeck,0,28,14,left,1,0,32,present,riskyDeck,1087,3211
svjyonkeq3,13575,21/03/2022@12:41:42,"Mozilla/5.0 (Windows NT 10.0; Win64; x64) AppleWebKit/537.36 (KHTML, like Gecko) Chrome/99.0.4844.51 Safari/537.36",1280,720,1280,609,main,1964665,57,18,15,EE,Extreme,Easier than Reference,F,j,riskyDeck,safeDeck,0,-14,-7,right,0,0,25,present,safeDeck,883,1800
svjyonkeq3,13575,21/03/2022@12:41:42,"Mozilla/5.0 (Windows NT 10.0; Win64; x64) AppleWebKit/537.36 (KHTML, like Gecko) Chrome/99.0.4844.51 Safari/537.36",1280,720,1280,609,main,1964665,58,18,15,HM,Moderate,Harder than Reference,D,k,riskyDeck,safeDeck,0,14,7,left,1,0,32,absent,riskyDeck,1427,3573
svjyonkeq3,13575,21/03/2022@12:41:42,"Mozilla/5.0 (Windows NT 10.0; Win64; x64) AppleWebKit/537.36 (KHTML, like Gecko) Chrome/99.0.4844.51 Safari/537.36",1280,720,1280,609,main,1964665,59,18,15,EM,Moderate,Easier than Reference,D,k,riskyDeck,safeDeck,-28,0,-14,left,1,1,32,present,riskyDeck,616,2523
svjyonkeq3,13575,21/03/2022@12:41:42,"Mozilla/5.0 (Windows NT 10.0; Win64; x64) AppleWebKit/537.36 (KHTML, like Gecko) Chrome/99.0.4844.51 Safari/537.36",1280,720,1280,609,main,1964665,60,18,15,HE,Extreme,Harder than Reference,F,k,safeDeck,riskyDeck,0,28,14,right,1,0,32,absent,riskyDeck,832,3551
svjyonkeq3,13575,21/03/2022@12:41:42,"Mozilla/5.0 (Windows NT 10.0; Win64; x64) AppleWebKit/537.36 (KHTML, like Gecko) Chrome/99.0.4844.51 Safari/537.36",1280,720,1280,609,main,1964665,61,18,16,EE,Extreme,Easier than Reference,D,k,riskyDeck,safeDeck,-14,0,-7,left,1,0,18,absent,riskyDeck,540,1538
svjyonkeq3,13575,21/03/2022@12:41:42,"Mozilla/5.0 (Windows NT 10.0; Win64; x64) AppleWebKit/537.36 (KHTML, like Gecko) Chrome/99.0.4844.51 Safari/537.36",1280,720,1280,609,main,1964665,62,18,16,HM,Moderate,Harder than Reference,D,k,riskyDeck,safeDeck,0,14,7,left,1,1,32,present,riskyDeck,920,3126
svjyonkeq3,13575,21/03/2022@12:41:42,"Mozilla/5.0 (Windows NT 10.0; Win64; x64) AppleWebKit/537.36 (KHTML, like Gecko) Chrome/99.0.4844.51 Safari/537.36",1280,720,1280,609,main,1964665,63,18,16,HE,Extreme,Harder than Reference,F,j,riskyDeck,safeDeck,28,0,14,right,0,0,46,present,safeDeck,1173,2153
svjyonkeq3,13575,21/03/2022@12:41:42,"Mozilla/5.0 (Windows NT 10.0; Win64; x64) AppleWebKit/537.36 (KHTML, like Gecko) Chrome/99.0.4844.51 Safari/537.36",1280,720,1280,609,main,1964665,64,18,16,EM,Moderate,Easier than Reference,D,k,riskyDeck,safeDeck,-28,0,-14,left,1,0,32,absent,riskyDeck,724,3315
svjyonkeq3,13575,21/03/2022@12:41:42,"Mozilla/5.0 (Windows NT 10.0; Win64; x64) AppleWebKit/537.36 (KHTML, like Gecko) Chrome/99.0.4844.51 Safari/537.36",1280,720,1280,609,main,1964665,65,19,16,EM,Moderate,Easier than Reference,D,k,safeDeck,riskyDeck,-28,0,-14,left,0,0,18,absent,safeDeck,567,3938
svjyonkeq3,13575,21/03/2022@12:41:42,"Mozilla/5.0 (Windows NT 10.0; Win64; x64) AppleWebKit/537.36 (KHTML, like Gecko) Chrome/99.0.4844.51 Safari/537.36",1280,720,1280,609,main,1964665,66,19,16,HM,Moderate,Harder than Reference,F,j,riskyDeck,safeDeck,14,0,7,right,0,0,39,present,safeDeck,781,1873
svjyonkeq3,13575,21/03/2022@12:41:42,"Mozilla/5.0 (Windows NT 10.0; Win64; x64) AppleWebKit/537.36 (KHTML, like Gecko) Chrome/99.0.4844.51 Safari/537.36",1280,720,1280,609,main,1964665,67,19,16,EE,Extreme,Easier than Reference,D,j,safeDeck,riskyDeck,0,-14,-7,left,0,0,25,present,safeDeck,625,4060
svjyonkeq3,13575,21/03/2022@12:41:42,"Mozilla/5.0 (Windows NT 10.0; Win64; x64) AppleWebKit/537.36 (KHTML, like Gecko) Chrome/99.0.4844.51 Safari/537.36",1280,720,1280,609,main,1964665,68,19,16,HE,Extreme,Harder than Reference,D,k,riskyDeck,safeDeck,0,28,14,left,1,1,60,present,riskyDeck,1026,5834
svjyonkeq3,13575,21/03/2022@12:41:42,"Mozilla/5.0 (Windows NT 10.0; Win64; x64) AppleWebKit/537.36 (KHTML, like Gecko) Chrome/99.0.4844.51 Safari/537.36",1280,720,1280,609,main,1964665,69,19,16,EE,Extreme,Easier than Reference,F,k,riskyDeck,safeDeck,-14,0,-7,right,0,0,25,absent,safeDeck,1140,4340
svjyonkeq3,13575,21/03/2022@12:41:42,"Mozilla/5.0 (Windows NT 10.0; Win64; x64) AppleWebKit/537.36 (KHTML, like Gecko) Chrome/99.0.4844.51 Safari/537.36",1280,720,1280,609,main,1964665,70,19,17,HE,Extreme,Harder than Reference,F,j,riskyDeck,safeDeck,0,28,14,right,0,1,46,absent,safeDeck,1960,4210
svjyonkeq3,13575,21/03/2022@12:41:42,"Mozilla/5.0 (Windows NT 10.0; Win64; x64) AppleWebKit/537.36 (KHTML, like Gecko) Chrome/99.0.4844.51 Safari/537.36",1280,720,1280,609,main,1964665,71,19,17,HM,Moderate,Harder than Reference,F,k,safeDeck,riskyDeck,0,14,7,right,1,0,32,absent,riskyDeck,1070,5024
svjyonkeq3,13575,21/03/2022@12:41:42,"Mozilla/5.0 (Windows NT 10.0; Win64; x64) AppleWebKit/537.36 (KHTML, like Gecko) Chrome/99.0.4844.51 Safari/537.36",1280,720,1280,609,main,1964665,72,19,17,EM,Moderate,Easier than Reference,D,j,safeDeck,riskyDeck,0,-28,-14,left,0,0,18,present,safeDeck,965,1100
svjyonkeq3,13575,21/03/2022@12:41:42,"Mozilla/5.0 (Windows NT 10.0; Win64; x64) AppleWebKit/537.36 (KHTML, like Gecko) Chrome/99.0.4844.51 Safari/537.36",1280,720,1280,609,main,1964665,73,19,17,EM,Moderate,Easier than Reference,D,j,safeDeck,riskyDeck,0,-28,-14,left,0,0,18,present,safeDeck,511,1966
svjyonkeq3,13575,21/03/2022@12:41:42,"Mozilla/5.0 (Windows NT 10.0; Win64; x64) AppleWebKit/537.36 (KHTML, like Gecko) Chrome/99.0.4844.51 Safari/537.36",1280,720,1280,609,main,1964665,74,20,17,HE,Extreme,Harder than Reference,F,k,safeDeck,riskyDeck,0,28,14,right,1,0,32,absent,riskyDeck,992,3837
svjyonkeq3,13575,21/03/2022@12:41:42,"Mozilla/5.0 (Windows NT 10.0; Win64; x64) AppleWebKit/537.36 (KHTML, like Gecko) Chrome/99.0.4844.51 Safari/537.36",1280,720,1280,609,main,1964665,75,20,17,HM,Moderate,Harder than Reference,D,j,safeDeck,riskyDeck,14,0,7,left,0,0,39,present,safeDeck,694,1858
svjyonkeq3,13575,21/03/2022@12:41:42,"Mozilla/5.0 (Windows NT 10.0; Win64; x64) AppleWebKit/537.36 (KHTML, like Gecko) Chrome/99.0.4844.51 Safari/537.36",1280,720,1280,609,main,1964665,76,20,17,EE,Extreme,Easier than Reference,D,j,riskyDeck,safeDeck,-14,0,-7,left,1,0,32,present,riskyDeck,1018,1720
svjyonkeq3,13575,21/03/2022@12:41:42,"Mozilla/5.0 (Windows NT 10.0; Win64; x64) AppleWebKit/537.36 (KHTML, like Gecko) Chrome/99.0.4844.51 Safari/537.36",1280,720,1280,609,main,1964665,77,21,19,EM,Moderate,Easier than Reference,D,k,safeDeck,riskyDeck,0,-28,-14,left,0,0,18,absent,safeDeck,2584,3648
svjyonkeq3,13575,21/03/2022@12:41:42,"Mozilla/5.0 (Windows NT 10.0; Win64; x64) AppleWebKit/537.36 (KHTML, like Gecko) Chrome/99.0.4844.51 Safari/537.36",1280,720,1280,609,main,1964665,78,21,19,EE,Extreme,Easier than Reference,D,k,riskyDeck,safeDeck,-14,0,-7,left,1,1,32,present,riskyDeck,1151,3143
svjyonkeq3,13575,21/03/2022@12:41:42,"Mozilla/5.0 (Windows NT 10.0; Win64; x64) AppleWebKit/537.36 (KHTML, like Gecko) Chrome/99.0.4844.51 Safari/537.36",1280,720,1280,609,main,1964665,79,22,19,HE,Extreme,Harder than Reference,F,j,safeDeck,riskyDeck,28,0,14,right,1,1,60,absent,riskyDeck,1070,7966
svjyonkeq3,13575,21/03/2022@12:41:42,"Mozilla/5.0 (Windows NT 10.0; Win64; x64) AppleWebKit/537.36 (KHTML, like Gecko) Chrome/99.0.4844.51 Safari/537.36",1280,720,1280,609,main,1964665,80,22,19,HM,Moderate,Harder than Reference,F,j,riskyDeck,safeDeck,0,14,7,right,0,0,39,present,safeDeck,1344,2117
svjyonkeq3,13575,21/03/2022@12:41:42,"Mozilla/5.0 (Windows NT 10.0; Win64; x64) AppleWebKit/537.36 (KHTML, like Gecko) Chrome/99.0.4844.51 Safari/537.36",1280,720,1280,609,main,1964665,81,22,19,EM,Moderate,Easier than Reference,F,k,riskyDeck,safeDeck,0,-28,-14,right,0,0,18,absent,safeDeck,1108,2743
svjyonkeq3,13575,21/03/2022@12:41:42,"Mozilla/5.0 (Windows NT 10.0; Win64; x64) AppleWebKit/537.36 (KHTML, like Gecko) Chrome/99.0.4844.51 Safari/537.36",1280,720,1280,609,main,1964665,82,22,19,HE,Extreme,Harder than Reference,F,k,riskyDeck,safeDeck,28,0,14,right,0,0,46,absent,safeDeck,842,5997
svjyonkeq3,13575,21/03/2022@12:41:42,"Mozilla/5.0 (Windows NT 10.0; Win64; x64) AppleWebKit/537.36 (KHTML, like Gecko) Chrome/99.0.4844.51 Safari/537.36",1280,720,1280,609,main,1964665,83,22,20,HM,Moderate,Harder than Reference,F,k,riskyDeck,safeDeck,14,0,7,right,0,0,39,absent,safeDeck,692,7831
svjyonkeq3,13575,21/03/2022@12:41:42,"Mozilla/5.0 (Windows NT 10.0; Win64; x64) AppleWebKit/537.36 (KHTML, like Gecko) Chrome/99.0.4844.51 Safari/537.36",1280,720,1280,609,main,1964665,84,22,20,EE,Extreme,Easier than Reference,D,j,safeDeck,riskyDeck,-14,0,-7,left,0,0,25,present,safeDeck,657,1315
svjyonkeq3,13575,21/03/2022@12:41:42,"Mozilla/5.0 (Windows NT 10.0; Win64; x64) AppleWebKit/537.36 (KHTML, like Gecko) Chrome/99.0.4844.51 Safari/537.36",1280,720,1280,609,main,1964665,85,22,20,EM,Moderate,Easier than Reference,D,k,riskyDeck,safeDeck,-28,0,-14,left,1,0,4,absent,riskyDeck,922,1749
svjyonkeq3,13575,21/03/2022@12:41:42,"Mozilla/5.0 (Windows NT 10.0; Win64; x64) AppleWebKit/537.36 (KHTML, like Gecko) Chrome/99.0.4844.51 Safari/537.36",1280,720,1280,609,main,1964665,86,22,20,HE,Extreme,Harder than Reference,F,k,safeDeck,riskyDeck,0,28,14,right,1,0,60,absent,riskyDeck,921,7777
svjyonkeq3,13575,21/03/2022@12:41:42,"Mozilla/5.0 (Windows NT 10.0; Win64; x64) AppleWebKit/537.36 (KHTML, like Gecko) Chrome/99.0.4844.51 Safari/537.36",1280,720,1280,609,main,1964665,87,23,20,EE,Extreme,Easier than Reference,D,k,safeDeck,riskyDeck,-14,0,-7,left,0,0,25,absent,safeDeck,452,2747
svjyonkeq3,13575,21/03/2022@12:41:42,"Mozilla/5.0 (Windows NT 10.0; Win64; x64) AppleWebKit/537.36 (KHTML, like Gecko) Chrome/99.0.4844.51 Safari/537.36",1280,720,1280,609,main,1964665,88,23,20,HM,Moderate,Harder than Reference,D,k,safeDeck,riskyDeck,14,0,7,left,0,1,39,present,safeDeck,845,5316
svjyonkeq3,13575,21/03/2022@12:41:42,"Mozilla/5.0 (Windows NT 10.0; Win64; x64) AppleWebKit/537.36 (KHTML, like Gecko) Chrome/99.0.4844.51 Safari/537.36",1280,720,1280,609,main,1964665,89,23,20,HE,Extreme,Harder than Reference,F,j,safeDeck,riskyDeck,0,28,14,right,1,0,60,present,riskyDeck,896,2011
svjyonkeq3,13575,21/03/2022@12:41:42,"Mozilla/5.0 (Windows NT 10.0; Win64; x64) AppleWebKit/537.36 (KHTML, like Gecko) Chrome/99.0.4844.51 Safari/537.36",1280,720,1280,609,main,1964665,90,23,20,EE,Extreme,Easier than Reference,D,j,safeDeck,riskyDeck,0,-14,-7,left,0,0,25,present,safeDeck,605,3289
svjyonkeq3,13575,21/03/2022@12:41:42,"Mozilla/5.0 (Windows NT 10.0; Win64; x64) AppleWebKit/537.36 (KHTML, like Gecko) Chrome/99.0.4844.51 Safari/537.36",1280,720,1280,609,main,1964665,91,23,20,EM,Moderate,Easier than Reference,F,k,riskyDeck,safeDeck,0,-28,-14,right,0,0,18,absent,safeDeck,857,3308
svjyonkeq3,13575,21/03/2022@12:41:42,"Mozilla/5.0 (Windows NT 10.0; Win64; x64) AppleWebKit/537.36 (KHTML, like Gecko) Chrome/99.0.4844.51 Safari/537.36",1280,720,1280,609,main,1964665,92,23,21,HM,Moderate,Harder than Reference,D,k,safeDeck,riskyDeck,14,0,7,left,0,0,39,absent,safeDeck,956,8487
svjyonkeq3,13575,21/03/2022@12:41:42,"Mozilla/5.0 (Windows NT 10.0; Win64; x64) AppleWebKit/537.36 (KHTML, like Gecko) Chrome/99.0.4844.51 Safari/537.36",1280,720,1280,609,main,1964665,93,23,21,HM,Moderate,Harder than Reference,D,j,safeDeck,riskyDeck,0,14,7,left,0,0,39,present,safeDeck,896,3277
svjyonkeq3,13575,21/03/2022@12:41:42,"Mozilla/5.0 (Windows NT 10.0; Win64; x64) AppleWebKit/537.36 (KHTML, like Gecko) Chrome/99.0.4844.51 Safari/537.36",1280,720,1280,609,main,1964665,94,23,21,HE,Extreme,Harder than Reference,D,k,safeDeck,riskyDeck,28,0,14,left,0,1,46,present,safeDeck,761,7545
svjyonkeq3,13575,21/03/2022@12:41:42,"Mozilla/5.0 (Windows NT 10.0; Win64; x64) AppleWebKit/537.36 (KHTML, like Gecko) Chrome/99.0.4844.51 Safari/537.36",1280,720,1280,609,main,1964665,95,24,21,EE,Extreme,Easier than Reference,D,j,safeDeck,riskyDeck,0,-14,-7,left,0,0,25,present,safeDeck,500,2669
svjyonkeq3,13575,21/03/2022@12:41:42,"Mozilla/5.0 (Windows NT 10.0; Win64; x64) AppleWebKit/537.36 (KHTML, like Gecko) Chrome/99.0.4844.51 Safari/537.36",1280,720,1280,609,main,1964665,96,24,21,EM,Moderate,Easier than Reference,D,k,safeDeck,riskyDeck,0,-28,-14,left,0,0,18,absent,safeDeck,566,3230
svjyonkeq3,13575,21/03/2022@12:41:42,"Mozilla/5.0 (Windows NT 10.0; Win64; x64) AppleWebKit/537.36 (KHTML, like Gecko) Chrome/99.0.4844.51 Safari/537.36",1280,720,1280,609,main,1964665,97,24,21,HE,Extreme,Harder than Reference,F,k,riskyDeck,safeDeck,0,28,14,right,0,0,46,absent,safeDeck,1236,7217
svjyonkeq3,13575,21/03/2022@12:41:42,"Mozilla/5.0 (Windows NT 10.0; Win64; x64) AppleWebKit/537.36 (KHTML, like Gecko) Chrome/99.0.4844.51 Safari/537.36",1280,720,1280,609,main,1964665,98,24,21,EM,Moderate,Easier than Reference,D,j,riskyDeck,safeDeck,-28,0,-14,left,1,0,32,present,riskyDeck,1577,2195
svjyonkeq3,13575,21/03/2022@12:41:42,"Mozilla/5.0 (Windows NT 10.0; Win64; x64) AppleWebKit/537.36 (KHTML, like Gecko) Chrome/99.0.4844.51 Safari/537.36",1280,720,1280,609,main,1964665,99,24,21,HM,Moderate,Harder than Reference,F,j,riskyDeck,safeDeck,0,14,7,right,0,0,39,present,safeDeck,1323,2092
svjyonkeq3,13575,21/03/2022@12:41:42,"Mozilla/5.0 (Windows NT 10.0; Win64; x64) AppleWebKit/537.36 (KHTML, like Gecko) Chrome/99.0.4844.51 Safari/537.36",1280,720,1280,609,main,1964665,100,24,21,EE,Extreme,Easier than Reference,D,j,riskyDeck,safeDeck,-14,0,-7,left,1,0,18,present,riskyDeck,1396,1555
svjyonkeq3,13575,21/03/2022@12:41:42,"Mozilla/5.0 (Windows NT 10.0; Win64; x64) AppleWebKit/537.36 (KHTML, like Gecko) Chrome/99.0.4844.51 Safari/537.36",1280,720,1280,609,main,1964665,101,24,21,EM,Moderate,Easier than Reference,D,k,riskyDeck,safeDeck,0,-28,-14,left,1,0,4,absent,riskyDeck,1157,1060
svjyonkeq3,13575,21/03/2022@12:41:42,"Mozilla/5.0 (Windows NT 10.0; Win64; x64) AppleWebKit/537.36 (KHTML, like Gecko) Chrome/99.0.4844.51 Safari/537.36",1280,720,1280,609,main,1964665,102,24,22,EE,Extreme,Easier than Reference,D,k,safeDeck,riskyDeck,-14,0,-7,left,0,0,25,absent,safeDeck,595,4277
svjyonkeq3,13575,21/03/2022@12:41:42,"Mozilla/5.0 (Windows NT 10.0; Win64; x64) AppleWebKit/537.36 (KHTML, like Gecko) Chrome/99.0.4844.51 Safari/537.36",1280,720,1280,609,main,1964665,103,24,22,HM,Moderate,Harder than Reference,F,k,riskyDeck,safeDeck,14,0,7,right,0,0,39,absent,safeDeck,839,4459
svjyonkeq3,13575,21/03/2022@12:41:42,"Mozilla/5.0 (Windows NT 10.0; Win64; x64) AppleWebKit/537.36 (KHTML, like Gecko) Chrome/99.0.4844.51 Safari/537.36",1280,720,1280,609,main,1964665,104,24,22,HE,Extreme,Harder than Reference,F,k,riskyDeck,safeDeck,28,0,14,right,0,1,46,present,safeDeck,789,5950
svjyonkeq3,13575,21/03/2022@12:41:42,"Mozilla/5.0 (Windows NT 10.0; Win64; x64) AppleWebKit/537.36 (KHTML, like Gecko) Chrome/99.0.4844.51 Safari/537.36",1280,720,1280,609,main,1964665,105,25,22,HM,Moderate,Harder than Reference,F,j,riskyDeck,safeDeck,14,0,7,right,0,0,39,present,safeDeck,933,2746
svjyonkeq3,13575,21/03/2022@12:41:42,"Mozilla/5.0 (Windows NT 10.0; Win64; x64) AppleWebKit/537.36 (KHTML, like Gecko) Chrome/99.0.4844.51 Safari/537.36",1280,720,1280,609,main,1964665,106,25,22,HE,Extreme,Harder than Reference,F,k,riskyDeck,safeDeck,28,0,14,right,0,0,46,absent,safeDeck,809,8176
svjyonkeq3,13575,21/03/2022@12:41:42,"Mozilla/5.0 (Windows NT 10.0; Win64; x64) AppleWebKit/537.36 (KHTML, like Gecko) Chrome/99.0.4844.51 Safari/537.36",1280,720,1280,609,main,1964665,107,25,22,EE,Extreme,Easier than Reference,D,j,riskyDeck,safeDeck,0,-14,-7,left,1,0,18,present,riskyDeck,1158,1660
svjyonkeq3,13575,21/03/2022@12:41:42,"Mozilla/5.0 (Windows NT 10.0; Win64; x64) AppleWebKit/537.36 (KHTML, like Gecko) Chrome/99.0.4844.51 Safari/537.36",1280,720,1280,609,main,1964665,108,25,22,EM,Moderate,Easier than Reference,D,k,riskyDeck,safeDeck,0,-28,-14,left,1,0,32,absent,riskyDeck,888,3075
svjyonkeq3,13575,21/03/2022@12:41:42,"Mozilla/5.0 (Windows NT 10.0; Win64; x64) AppleWebKit/537.36 (KHTML, like Gecko) Chrome/99.0.4844.51 Safari/537.36",1280,720,1280,609,main,1964665,109,25,23,HE,Extreme,Harder than Reference,D,k,safeDeck,riskyDeck,28,0,14,left,0,1,46,present,safeDeck,1812,9473
svjyonkeq3,13575,21/03/2022@12:41:42,"Mozilla/5.0 (Windows NT 10.0; Win64; x64) AppleWebKit/537.36 (KHTML, like Gecko) Chrome/99.0.4844.51 Safari/537.36",1280,720,1280,609,main,1964665,110,25,23,HM,Moderate,Harder than Reference,D,k,safeDeck,riskyDeck,0,14,7,left,0,0,39,absent,safeDeck,1283,7234
svjyonkeq3,13575,21/03/2022@12:41:42,"Mozilla/5.0 (Windows NT 10.0; Win64; x64) AppleWebKit/537.36 (KHTML, like Gecko) Chrome/99.0.4844.51 Safari/537.36",1280,720,1280,609,main,1964665,111,25,23,EM,Moderate,Easier than Reference,D,k,riskyDeck,safeDeck,-28,0,-14,left,1,0,4,absent,riskyDeck,907,1939
svjyonkeq3,13575,21/03/2022@12:41:42,"Mozilla/5.0 (Windows NT 10.0; Win64; x64) AppleWebKit/537.36 (KHTML, like Gecko) Chrome/99.0.4844.51 Safari/537.36",1280,720,1280,609,main,1964665,112,26,23,EE,Extreme,Easier than Reference,D,k,safeDeck,riskyDeck,0,-14,-7,left,0,0,25,absent,safeDeck,724,4354
svjyonkeq3,13575,21/03/2022@12:41:42,"Mozilla/5.0 (Windows NT 10.0; Win64; x64) AppleWebKit/537.36 (KHTML, like Gecko) Chrome/99.0.4844.51 Safari/537.36",1280,720,1280,609,main,1964665,113,26,23,HM,Moderate,Harder than Reference,F,k,riskyDeck,safeDeck,0,14,7,right,0,0,39,absent,safeDeck,1668,3847
svjyonkeq3,13575,21/03/2022@12:41:42,"Mozilla/5.0 (Windows NT 10.0; Win64; x64) AppleWebKit/537.36 (KHTML, like Gecko) Chrome/99.0.4844.51 Safari/537.36",1280,720,1280,609,main,1964665,114,26,23,EM,Moderate,Easier than Reference,D,j,riskyDeck,safeDeck,-28,0,-14,left,1,0,4,present,riskyDeck,927,2074
svjyonkeq3,13575,21/03/2022@12:41:42,"Mozilla/5.0 (Windows NT 10.0; Win64; x64) AppleWebKit/537.36 (KHTML, like Gecko) Chrome/99.0.4844.51 Safari/537.36",1280,720,1280,609,main,1964665,115,32,29,EE,Extreme,Easier than Reference,D,k,safeDeck,riskyDeck,0,-14,-7,left,0,0,25,absent,safeDeck,4669,3235
svjyonkeq3,13575,21/03/2022@12:41:42,"Mozilla/5.0 (Windows NT 10.0; Win64; x64) AppleWebKit/537.36 (KHTML, like Gecko) Chrome/99.0.4844.51 Safari/537.36",1280,720,1280,609,main,1964665,116,32,29,HE,Extreme,Harder than Reference,F,j,riskyDeck,safeDeck,28,0,14,right,0,0,46,present,safeDeck,1101,2323
svjyonkeq3,13575,21/03/2022@12:41:42,"Mozilla/5.0 (Windows NT 10.0; Win64; x64) AppleWebKit/537.36 (KHTML, like Gecko) Chrome/99.0.4844.51 Safari/537.36",1280,720,1280,609,main,1964665,117,32,29,EE,Extreme,Easier than Reference,D,j,riskyDeck,safeDeck,0,-14,-7,left,1,0,32,present,riskyDeck,1269,3749
svjyonkeq3,13575,21/03/2022@12:41:42,"Mozilla/5.0 (Windows NT 10.0; Win64; x64) AppleWebKit/537.36 (KHTML, like Gecko) Chrome/99.0.4844.51 Safari/537.36",1280,720,1280,609,main,1964665,118,32,29,EM,Moderate,Easier than Reference,D,k,safeDeck,riskyDeck,0,-28,-14,left,0,0,18,absent,safeDeck,779,3235
svjyonkeq3,13575,21/03/2022@12:41:42,"Mozilla/5.0 (Windows NT 10.0; Win64; x64) AppleWebKit/537.36 (KHTML, like Gecko) Chrome/99.0.4844.51 Safari/537.36",1280,720,1280,609,main,1964665,119,32,29,HM,Moderate,Harder than Reference,D,k,safeDeck,riskyDeck,0,14,7,left,0,0,39,absent,safeDeck,762,7357
svjyonkeq3,13575,21/03/2022@12:41:42,"Mozilla/5.0 (Windows NT 10.0; Win64; x64) AppleWebKit/537.36 (KHTML, like Gecko) Chrome/99.0.4844.51 Safari/537.36",1280,720,1280,609,main,1964665,120,32,30,HE,Extreme,Harder than Reference,F,k,riskyDeck,safeDeck,28,0,14,right,0,0,46,absent,safeDeck,754,8394
svjyonkeq3,13575,21/03/2022@12:41:42,"Mozilla/5.0 (Windows NT 10.0; Win64; x64) AppleWebKit/537.36 (KHTML, like Gecko) Chrome/99.0.4844.51 Safari/537.36",1280,720,1280,609,main,1964665,121,32,30,HE,Extreme,Harder than Reference,F,j,riskyDeck,safeDeck,0,28,14,right,0,0,46,present,safeDeck,982,3529
svjyonkeq3,13575,21/03/2022@12:41:42,"Mozilla/5.0 (Windows NT 10.0; Win64; x64) AppleWebKit/537.36 (KHTML, like Gecko) Chrome/99.0.4844.51 Safari/537.36",1280,720,1280,609,main,1964665,122,32,30,HM,Moderate,Harder than Reference,D,j,safeDeck,riskyDeck,14,0,7,left,0,0,39,present,safeDeck,753,2880
svjyonkeq3,13575,21/03/2022@12:41:42,"Mozilla/5.0 (Windows NT 10.0; Win64; x64) AppleWebKit/537.36 (KHTML, like Gecko) Chrome/99.0.4844.51 Safari/537.36",1280,720,1280,609,main,1964665,123,33,30,EE,Extreme,Easier than Reference,D,j,safeDeck,riskyDeck,-14,0,-7,left,0,0,25,present,safeDeck,566,2758
svjyonkeq3,13575,21/03/2022@12:41:42,"Mozilla/5.0 (Windows NT 10.0; Win64; x64) AppleWebKit/537.36 (KHTML, like Gecko) Chrome/99.0.4844.51 Safari/537.36",1280,720,1280,609,main,1964665,124,33,30,EM,Moderate,Easier than Reference,D,k,riskyDeck,safeDeck,0,-28,-14,left,1,0,4,absent,riskyDeck,1034,1152
svjyonkeq3,13575,21/03/2022@12:41:42,"Mozilla/5.0 (Windows NT 10.0; Win64; x64) AppleWebKit/537.36 (KHTML, like Gecko) Chrome/99.0.4844.51 Safari/537.36",1280,720,1280,609,main,1964665,125,33,30,EM,Moderate,Easier than Reference,D,k,safeDeck,riskyDeck,-28,0,-14,left,0,0,18,absent,safeDeck,653,2517
svjyonkeq3,13575,21/03/2022@12:41:42,"Mozilla/5.0 (Windows NT 10.0; Win64; x64) AppleWebKit/537.36 (KHTML, like Gecko) Chrome/99.0.4844.51 Safari/537.36",1280,720,1280,609,main,1964665,126,33,30,HM,Moderate,Harder than Reference,D,j,safeDeck,riskyDeck,14,0,7,left,0,0,39,present,safeDeck,717,1030
svjyonkeq3,13575,21/03/2022@12:41:42,"Mozilla/5.0 (Windows NT 10.0; Win64; x64) AppleWebKit/537.36 (KHTML, like Gecko) Chrome/99.0.4844.51 Safari/537.36",1280,720,1280,609,main,1964665,127,33,30,HE,Extreme,Harder than Reference,D,k,safeDeck,riskyDeck,28,0,14,left,0,0,46,absent,safeDeck,1255,7880
svjyonkeq3,13575,21/03/2022@12:41:42,"Mozilla/5.0 (Windows NT 10.0; Win64; x64) AppleWebKit/537.36 (KHTML, like Gecko) Chrome/99.0.4844.51 Safari/537.36",1280,720,1280,609,main,1964665,128,33,30,EE,Extreme,Easier than Reference,D,k,safeDeck,riskyDeck,0,-14,-7,left,0,0,25,absent,safeDeck,490,3607
svjyonkeq3,13575,21/03/2022@12:41:42,"Mozilla/5.0 (Windows NT 10.0; Win64; x64) AppleWebKit/537.36 (KHTML, like Gecko) Chrome/99.0.4844.51 Safari/537.36",1280,720,1280,609,main,1964665,129,33,31,HE,Extreme,Harder than Reference,D,j,safeDeck,riskyDeck,28,0,14,left,0,0,46,present,safeDeck,1233,3816
svjyonkeq3,13575,21/03/2022@12:41:42,"Mozilla/5.0 (Windows NT 10.0; Win64; x64) AppleWebKit/537.36 (KHTML, like Gecko) Chrome/99.0.4844.51 Safari/537.36",1280,720,1280,609,main,1964665,130,33,31,EE,Extreme,Easier than Reference,D,j,safeDeck,riskyDeck,0,-14,-7,left,0,0,25,present,safeDeck,767,2753
svjyonkeq3,13575,21/03/2022@12:41:42,"Mozilla/5.0 (Windows NT 10.0; Win64; x64) AppleWebKit/537.36 (KHTML, like Gecko) Chrome/99.0.4844.51 Safari/537.36",1280,720,1280,609,main,1964665,131,33,31,HM,Moderate,Harder than Reference,D,k,safeDeck,riskyDeck,0,14,7,left,0,0,39,absent,safeDeck,608,3688
svjyonkeq3,13575,21/03/2022@12:41:42,"Mozilla/5.0 (Windows NT 10.0; Win64; x64) AppleWebKit/537.36 (KHTML, like Gecko) Chrome/99.0.4844.51 Safari/537.36",1280,720,1280,609,main,1964665,132,33,31,EM,Moderate,Easier than Reference,D,k,riskyDeck,safeDeck,0,-28,-14,left,1,0,32,absent,riskyDeck,766,5118
svjyonkeq3,13575,21/03/2022@12:41:42,"Mozilla/5.0 (Windows NT 10.0; Win64; x64) AppleWebKit/537.36 (KHTML, like Gecko) Chrome/99.0.4844.51 Safari/537.36",1280,720,1280,609,main,1964665,133,34,31,HE,Extreme,Harder than Reference,F,k,riskyDeck,safeDeck,28,0,14,right,0,0,46,absent,safeDeck,920,4609
svjyonkeq3,13575,21/03/2022@12:41:42,"Mozilla/5.0 (Windows NT 10.0; Win64; x64) AppleWebKit/537.36 (KHTML, like Gecko) Chrome/99.0.4844.51 Safari/537.36",1280,720,1280,609,main,1964665,134,34,31,EM,Moderate,Easier than Reference,D,j,safeDeck,riskyDeck,0,-28,-14,left,0,0,18,present,safeDeck,465,1257
svjyonkeq3,13575,21/03/2022@12:41:42,"Mozilla/5.0 (Windows NT 10.0; Win64; x64) AppleWebKit/537.36 (KHTML, like Gecko) Chrome/99.0.4844.51 Safari/537.36",1280,720,1280,609,main,1964665,135,34,31,HM,Moderate,Harder than Reference,F,k,riskyDeck,safeDeck,14,0,7,right,0,0,39,absent,safeDeck,808,5273
svjyonkeq3,13575,21/03/2022@12:41:42,"Mozilla/5.0 (Windows NT 10.0; Win64; x64) AppleWebKit/537.36 (KHTML, like Gecko) Chrome/99.0.4844.51 Safari/537.36",1280,720,1280,609,main,1964665,136,34,31,EE,Extreme,Easier than Reference,D,j,safeDeck,riskyDeck,0,-14,-7,left,0,0,25,present,safeDeck,524,2661
svjyonkeq3,13575,21/03/2022@12:41:42,"Mozilla/5.0 (Windows NT 10.0; Win64; x64) AppleWebKit/537.36 (KHTML, like Gecko) Chrome/99.0.4844.51 Safari/537.36",1280,720,1280,609,main,1964665,137,34,31,HE,Extreme,Harder than Reference,D,k,safeDeck,riskyDeck,0,28,14,left,0,1,46,present,safeDeck,759,6996
svjyonkeq3,13575,21/03/2022@12:41:42,"Mozilla/5.0 (Windows NT 10.0; Win64; x64) AppleWebKit/537.36 (KHTML, like Gecko) Chrome/99.0.4844.51 Safari/537.36",1280,720,1280,609,main,1964665,138,34,31,EE,Extreme,Easier than Reference,D,j,safeDeck,riskyDeck,-14,0,-7,left,0,0,25,present,safeDeck,514,1428
svjyonkeq3,13575,21/03/2022@12:41:42,"Mozilla/5.0 (Windows NT 10.0; Win64; x64) AppleWebKit/537.36 (KHTML, like Gecko) Chrome/99.0.4844.51 Safari/537.36",1280,720,1280,609,main,1964665,139,34,32,EM,Moderate,Easier than Reference,D,k,safeDeck,riskyDeck,0,-28,-14,left,0,0,18,absent,safeDeck,482,3618
svjyonkeq3,13575,21/03/2022@12:41:42,"Mozilla/5.0 (Windows NT 10.0; Win64; x64) AppleWebKit/537.36 (KHTML, like Gecko) Chrome/99.0.4844.51 Safari/537.36",1280,720,1280,609,main,1964665,140,34,32,HM,Moderate,Harder than Reference,F,j,riskyDeck,safeDeck,0,14,7,right,0,0,39,present,safeDeck,1486,3133
svjyonkeq3,13575,21/03/2022@12:41:42,"Mozilla/5.0 (Windows NT 10.0; Win64; x64) AppleWebKit/537.36 (KHTML, like Gecko) Chrome/99.0.4844.51 Safari/537.36",1280,720,1280,609,main,1964665,141,34,32,EE,Extreme,Easier than Reference,D,k,riskyDeck,safeDeck,0,-14,-7,left,1,0,32,absent,riskyDeck,819,4283
svjyonkeq3,13575,21/03/2022@12:41:42,"Mozilla/5.0 (Windows NT 10.0; Win64; x64) AppleWebKit/537.36 (KHTML, like Gecko) Chrome/99.0.4844.51 Safari/537.36",1280,720,1280,609,main,1964665,142,34,32,HM,Moderate,Harder than Reference,F,j,riskyDeck,safeDeck,14,0,7,right,0,0,39,present,safeDeck,802,2295
svjyonkeq3,13575,21/03/2022@12:41:42,"Mozilla/5.0 (Windows NT 10.0; Win64; x64) AppleWebKit/537.36 (KHTML, like Gecko) Chrome/99.0.4844.51 Safari/537.36",1280,720,1280,609,main,1964665,143,35,32,HE,Extreme,Harder than Reference,F,k,riskyDeck,safeDeck,0,28,14,right,0,0,46,absent,safeDeck,916,3624
svjyonkeq3,13575,21/03/2022@12:41:42,"Mozilla/5.0 (Windows NT 10.0; Win64; x64) AppleWebKit/537.36 (KHTML, like Gecko) Chrome/99.0.4844.51 Safari/537.36",1280,720,1280,609,main,1964665,144,35,32,EM,Moderate,Easier than Reference,D,k,riskyDeck,safeDeck,0,-28,-14,left,1,0,4,absent,riskyDeck,1061,878
svjyonkeq3,13575,21/03/2022@12:41:42,"Mozilla/5.0 (Windows NT 10.0; Win64; x64) AppleWebKit/537.36 (KHTML, like Gecko) Chrome/99.0.4844.51 Safari/537.36",1280,720,1280,609,main,1964665,145,35,32,HE,Extreme,Harder than Reference,F,j,safeDeck,riskyDeck,0,28,14,right,1,0,32,present,riskyDeck,961,2459
svjyonkeq3,13575,21/03/2022@12:41:42,"Mozilla/5.0 (Windows NT 10.0; Win64; x64) AppleWebKit/537.36 (KHTML, like Gecko) Chrome/99.0.4844.51 Safari/537.36",1280,720,1280,609,main,1964665,146,35,32,EE,Extreme,Easier than Reference,D,j,riskyDeck,safeDeck,-14,0,-7,left,1,0,18,present,riskyDeck,715,1774
svjyonkeq3,13575,21/03/2022@12:41:42,"Mozilla/5.0 (Windows NT 10.0; Win64; x64) AppleWebKit/537.36 (KHTML, like Gecko) Chrome/99.0.4844.51 Safari/537.36",1280,720,1280,609,main,1964665,147,35,32,HM,Moderate,Harder than Reference,D,k,riskyDeck,safeDeck,0,14,7,left,1,0,32,absent,riskyDeck,1882,3463
svjyonkeq3,13575,21/03/2022@12:41:42,"Mozilla/5.0 (Windows NT 10.0; Win64; x64) AppleWebKit/537.36 (KHTML, like Gecko) Chrome/99.0.4844.51 Safari/537.36",1280,720,1280,609,main,1964665,148,35,32,EM,Moderate,Easier than Reference,D,j,safeDeck,riskyDeck,-28,0,-14,left,0,0,18,present,safeDeck,475,1611
svjyonkeq3,13575,21/03/2022@12:41:42,"Mozilla/5.0 (Windows NT 10.0; Win64; x64) AppleWebKit/537.36 (KHTML, like Gecko) Chrome/99.0.4844.51 Safari/537.36",1280,720,1280,609,main,1964665,149,35,32,HE,Extreme,Harder than Reference,F,k,safeDeck,riskyDeck,0,28,14,right,1,0,32,absent,riskyDeck,888,3890
svjyonkeq3,13575,21/03/2022@12:41:42,"Mozilla/5.0 (Windows NT 10.0; Win64; x64) AppleWebKit/537.36 (KHTML, like Gecko) Chrome/99.0.4844.51 Safari/537.36",1280,720,1280,609,main,1964665,150,35,33,HM,Moderate,Harder than Reference,D,k,safeDeck,riskyDeck,0,14,7,left,0,0,39,absent,safeDeck,729,3469
svjyonkeq3,13575,21/03/2022@12:41:42,"Mozilla/5.0 (Windows NT 10.0; Win64; x64) AppleWebKit/537.36 (KHTML, like Gecko) Chrome/99.0.4844.51 Safari/537.36",1280,720,1280,609,main,1964665,151,35,33,EE,Extreme,Easier than Reference,D,k,safeDeck,riskyDeck,0,-14,-7,left,0,0,25,absent,safeDeck,454,2106
svjyonkeq3,13575,21/03/2022@12:41:42,"Mozilla/5.0 (Windows NT 10.0; Win64; x64) AppleWebKit/537.36 (KHTML, like Gecko) Chrome/99.0.4844.51 Safari/537.36",1280,720,1280,609,main,1964665,152,35,33,EM,Moderate,Easier than Reference,D,j,safeDeck,riskyDeck,0,-28,-14,left,0,0,18,present,safeDeck,525,1579
rlh54dvjgfm,13614,20/03/2022@22:50:36,"Mozilla/5.0 (Macintosh; Intel Mac OS X 10_15_7) AppleWebKit/537.36 (KHTML, like Gecko) Chrome/99.0.4844.51 Safari/537.36",1440,900,1440,702,main,1019677,1,5,4,EE,Extreme,Easier than Reference,F,j,safeDeck,riskyDeck,-14,0,-7,right,1,0,32,present,riskyDeck,4003,9597
rlh54dvjgfm,13614,20/03/2022@22:50:36,"Mozilla/5.0 (Macintosh; Intel Mac OS X 10_15_7) AppleWebKit/537.36 (KHTML, like Gecko) Chrome/99.0.4844.51 Safari/537.36",1440,900,1440,702,main,1019677,2,5,4,HE,Extreme,Harder than Reference,D,j,riskyDeck,safeDeck,0,28,14,left,1,0,32,present,riskyDeck,1346,1648
rlh54dvjgfm,13614,20/03/2022@22:50:36,"Mozilla/5.0 (Macintosh; Intel Mac OS X 10_15_7) AppleWebKit/537.36 (KHTML, like Gecko) Chrome/99.0.4844.51 Safari/537.36",1440,900,1440,702,main,1019677,3,5,4,EM,Moderate,Easier than Reference,D,k,riskyDeck,safeDeck,-28,0,-14,left,1,1,4,present,riskyDeck,970,3197
rlh54dvjgfm,13614,20/03/2022@22:50:36,"Mozilla/5.0 (Macintosh; Intel Mac OS X 10_15_7) AppleWebKit/537.36 (KHTML, like Gecko) Chrome/99.0.4844.51 Safari/537.36",1440,900,1440,702,main,1019677,4,5,4,HM,Moderate,Harder than Reference,F,j,safeDeck,riskyDeck,14,0,7,right,1,0,46,present,riskyDeck,1529,1201
rlh54dvjgfm,13614,20/03/2022@22:50:36,"Mozilla/5.0 (Macintosh; Intel Mac OS X 10_15_7) AppleWebKit/537.36 (KHTML, like Gecko) Chrome/99.0.4844.51 Safari/537.36",1440,900,1440,702,main,1019677,5,6,4,HE,Extreme,Harder than Reference,D,k,riskyDeck,safeDeck,0,28,14,left,1,0,32,absent,riskyDeck,771,2783
rlh54dvjgfm,13614,20/03/2022@22:50:36,"Mozilla/5.0 (Macintosh; Intel Mac OS X 10_15_7) AppleWebKit/537.36 (KHTML, like Gecko) Chrome/99.0.4844.51 Safari/537.36",1440,900,1440,702,main,1019677,6,6,4,EE,Extreme,Easier than Reference,D,k,riskyDeck,safeDeck,0,-14,-7,left,1,0,18,absent,riskyDeck,764,2733
rlh54dvjgfm,13614,20/03/2022@22:50:36,"Mozilla/5.0 (Macintosh; Intel Mac OS X 10_15_7) AppleWebKit/537.36 (KHTML, like Gecko) Chrome/99.0.4844.51 Safari/537.36",1440,900,1440,702,main,1019677,7,6,4,EM,Moderate,Easier than Reference,F,k,safeDeck,riskyDeck,0,-28,-14,right,1,0,4,absent,riskyDeck,2133,2048
rlh54dvjgfm,13614,20/03/2022@22:50:36,"Mozilla/5.0 (Macintosh; Intel Mac OS X 10_15_7) AppleWebKit/537.36 (KHTML, like Gecko) Chrome/99.0.4844.51 Safari/537.36",1440,900,1440,702,main,1019677,8,6,4,HM,Moderate,Harder than Reference,D,j,riskyDeck,safeDeck,14,0,7,left,1,0,32,present,riskyDeck,752,1978
rlh54dvjgfm,13614,20/03/2022@22:50:36,"Mozilla/5.0 (Macintosh; Intel Mac OS X 10_15_7) AppleWebKit/537.36 (KHTML, like Gecko) Chrome/99.0.4844.51 Safari/537.36",1440,900,1440,702,main,1019677,9,6,4,EE,Extreme,Easier than Reference,F,k,safeDeck,riskyDeck,-14,0,-7,right,1,1,18,present,riskyDeck,1301,3236
rlh54dvjgfm,13614,20/03/2022@22:50:36,"Mozilla/5.0 (Macintosh; Intel Mac OS X 10_15_7) AppleWebKit/537.36 (KHTML, like Gecko) Chrome/99.0.4844.51 Safari/537.36",1440,900,1440,702,main,1019677,10,6,4,HM,Moderate,Harder than Reference,D,j,riskyDeck,safeDeck,14,0,7,left,1,1,32,absent,riskyDeck,492,1514
rlh54dvjgfm,13614,20/03/2022@22:50:36,"Mozilla/5.0 (Macintosh; Intel Mac OS X 10_15_7) AppleWebKit/537.36 (KHTML, like Gecko) Chrome/99.0.4844.51 Safari/537.36",1440,900,1440,702,main,1019677,11,6,5,HE,Extreme,Harder than Reference,F,j,safeDeck,riskyDeck,28,0,14,right,1,0,60,present,riskyDeck,584,1156
rlh54dvjgfm,13614,20/03/2022@22:50:36,"Mozilla/5.0 (Macintosh; Intel Mac OS X 10_15_7) AppleWebKit/537.36 (KHTML, like Gecko) Chrome/99.0.4844.51 Safari/537.36",1440,900,1440,702,main,1019677,12,6,5,EM,Moderate,Easier than Reference,F,k,safeDeck,riskyDeck,-28,0,-14,right,1,0,4,absent,riskyDeck,472,978
rlh54dvjgfm,13614,20/03/2022@22:50:36,"Mozilla/5.0 (Macintosh; Intel Mac OS X 10_15_7) AppleWebKit/537.36 (KHTML, like Gecko) Chrome/99.0.4844.51 Safari/537.36",1440,900,1440,702,main,1019677,13,6,5,EE,Extreme,Easier than Reference,D,k,riskyDeck,safeDeck,0,-14,-7,left,1,0,18,absent,riskyDeck,596,3397
rlh54dvjgfm,13614,20/03/2022@22:50:36,"Mozilla/5.0 (Macintosh; Intel Mac OS X 10_15_7) AppleWebKit/537.36 (KHTML, like Gecko) Chrome/99.0.4844.51 Safari/537.36",1440,900,1440,702,main,1019677,14,6,5,HE,Extreme,Harder than Reference,F,j,safeDeck,riskyDeck,0,28,14,right,1,0,32,present,riskyDeck,681,1873
rlh54dvjgfm,13614,20/03/2022@22:50:36,"Mozilla/5.0 (Macintosh; Intel Mac OS X 10_15_7) AppleWebKit/537.36 (KHTML, like Gecko) Chrome/99.0.4844.51 Safari/537.36",1440,900,1440,702,main,1019677,15,6,5,EM,Moderate,Easier than Reference,D,j,riskyDeck,safeDeck,-28,0,-14,left,1,1,32,absent,riskyDeck,565,1078
rlh54dvjgfm,13614,20/03/2022@22:50:36,"Mozilla/5.0 (Macintosh; Intel Mac OS X 10_15_7) AppleWebKit/537.36 (KHTML, like Gecko) Chrome/99.0.4844.51 Safari/537.36",1440,900,1440,702,main,1019677,16,6,5,HM,Moderate,Harder than Reference,D,j,riskyDeck,safeDeck,14,0,7,left,1,0,32,present,riskyDeck,516,902
rlh54dvjgfm,13614,20/03/2022@22:50:36,"Mozilla/5.0 (Macintosh; Intel Mac OS X 10_15_7) AppleWebKit/537.36 (KHTML, like Gecko) Chrome/99.0.4844.51 Safari/537.36",1440,900,1440,702,main,1019677,17,7,5,EE,Extreme,Easier than Reference,F,j,safeDeck,riskyDeck,0,-14,-7,right,1,0,32,present,riskyDeck,576,662
rlh54dvjgfm,13614,20/03/2022@22:50:36,"Mozilla/5.0 (Macintosh; Intel Mac OS X 10_15_7) AppleWebKit/537.36 (KHTML, like Gecko) Chrome/99.0.4844.51 Safari/537.36",1440,900,1440,702,main,1019677,18,7,5,HM,Moderate,Harder than Reference,D,j,riskyDeck,safeDeck,14,0,7,left,1,1,32,absent,riskyDeck,571,750
rlh54dvjgfm,13614,20/03/2022@22:50:36,"Mozilla/5.0 (Macintosh; Intel Mac OS X 10_15_7) AppleWebKit/537.36 (KHTML, like Gecko) Chrome/99.0.4844.51 Safari/537.36",1440,900,1440,702,main,1019677,19,7,5,EM,Moderate,Easier than Reference,D,j,riskyDeck,safeDeck,-28,0,-14,left,1,1,32,absent,riskyDeck,433,1083
rlh54dvjgfm,13614,20/03/2022@22:50:36,"Mozilla/5.0 (Macintosh; Intel Mac OS X 10_15_7) AppleWebKit/537.36 (KHTML, like Gecko) Chrome/99.0.4844.51 Safari/537.36",1440,900,1440,702,main,1019677,20,7,5,HE,Extreme,Harder than Reference,D,j,riskyDeck,safeDeck,0,28,14,left,1,0,60,present,riskyDeck,520,853
rlh54dvjgfm,13614,20/03/2022@22:50:36,"Mozilla/5.0 (Macintosh; Intel Mac OS X 10_15_7) AppleWebKit/537.36 (KHTML, like Gecko) Chrome/99.0.4844.51 Safari/537.36",1440,900,1440,702,main,1019677,21,7,5,EM,Moderate,Easier than Reference,D,j,riskyDeck,safeDeck,0,-28,-14,left,1,0,32,present,riskyDeck,502,854
rlh54dvjgfm,13614,20/03/2022@22:50:36,"Mozilla/5.0 (Macintosh; Intel Mac OS X 10_15_7) AppleWebKit/537.36 (KHTML, like Gecko) Chrome/99.0.4844.51 Safari/537.36",1440,900,1440,702,main,1019677,22,7,5,HM,Moderate,Harder than Reference,F,j,safeDeck,riskyDeck,0,14,7,right,1,0,32,present,riskyDeck,509,951
rlh54dvjgfm,13614,20/03/2022@22:50:36,"Mozilla/5.0 (Macintosh; Intel Mac OS X 10_15_7) AppleWebKit/537.36 (KHTML, like Gecko) Chrome/99.0.4844.51 Safari/537.36",1440,900,1440,702,main,1019677,23,7,6,HE,Extreme,Harder than Reference,D,j,riskyDeck,safeDeck,0,28,14,left,1,1,60,absent,riskyDeck,619,769
rlh54dvjgfm,13614,20/03/2022@22:50:36,"Mozilla/5.0 (Macintosh; Intel Mac OS X 10_15_7) AppleWebKit/537.36 (KHTML, like Gecko) Chrome/99.0.4844.51 Safari/537.36",1440,900,1440,702,main,1019677,24,7,6,EE,Extreme,Easier than Reference,F,j,safeDeck,riskyDeck,-14,0,-7,right,1,0,32,present,riskyDeck,426,1072
rlh54dvjgfm,13614,20/03/2022@22:50:36,"Mozilla/5.0 (Macintosh; Intel Mac OS X 10_15_7) AppleWebKit/537.36 (KHTML, like Gecko) Chrome/99.0.4844.51 Safari/537.36",1440,900,1440,702,main,1019677,25,7,6,EE,Extreme,Easier than Reference,F,j,safeDeck,riskyDeck,-14,0,-7,right,1,0,32,present,riskyDeck,579,669
rlh54dvjgfm,13614,20/03/2022@22:50:36,"Mozilla/5.0 (Macintosh; Intel Mac OS X 10_15_7) AppleWebKit/537.36 (KHTML, like Gecko) Chrome/99.0.4844.51 Safari/537.36",1440,900,1440,702,main,1019677,26,7,6,HE,Extreme,Harder than Reference,D,j,riskyDeck,safeDeck,0,28,14,left,1,1,60,absent,riskyDeck,577,2406
rlh54dvjgfm,13614,20/03/2022@22:50:36,"Mozilla/5.0 (Macintosh; Intel Mac OS X 10_15_7) AppleWebKit/537.36 (KHTML, like Gecko) Chrome/99.0.4844.51 Safari/537.36",1440,900,1440,702,main,1019677,27,7,6,HM,Moderate,Harder than Reference,F,j,safeDeck,riskyDeck,0,14,7,right,1,1,46,absent,riskyDeck,454,2365
rlh54dvjgfm,13614,20/03/2022@22:50:36,"Mozilla/5.0 (Macintosh; Intel Mac OS X 10_15_7) AppleWebKit/537.36 (KHTML, like Gecko) Chrome/99.0.4844.51 Safari/537.36",1440,900,1440,702,main,1019677,28,7,6,EM,Moderate,Easier than Reference,F,k,safeDeck,riskyDeck,-28,0,-14,right,1,0,4,absent,riskyDeck,531,1780
rlh54dvjgfm,13614,20/03/2022@22:50:36,"Mozilla/5.0 (Macintosh; Intel Mac OS X 10_15_7) AppleWebKit/537.36 (KHTML, like Gecko) Chrome/99.0.4844.51 Safari/537.36",1440,900,1440,702,main,1019677,29,8,6,EM,Moderate,Easier than Reference,D,k,riskyDeck,safeDeck,0,-28,-14,left,1,0,4,absent,riskyDeck,520,1162
rlh54dvjgfm,13614,20/03/2022@22:50:36,"Mozilla/5.0 (Macintosh; Intel Mac OS X 10_15_7) AppleWebKit/537.36 (KHTML, like Gecko) Chrome/99.0.4844.51 Safari/537.36",1440,900,1440,702,main,1019677,30,8,6,HE,Extreme,Harder than Reference,F,j,safeDeck,riskyDeck,0,28,14,right,1,1,60,absent,riskyDeck,623,996
rlh54dvjgfm,13614,20/03/2022@22:50:36,"Mozilla/5.0 (Macintosh; Intel Mac OS X 10_15_7) AppleWebKit/537.36 (KHTML, like Gecko) Chrome/99.0.4844.51 Safari/537.36",1440,900,1440,702,main,1019677,31,8,6,EE,Extreme,Easier than Reference,D,j,riskyDeck,safeDeck,0,-14,-7,left,1,1,18,absent,riskyDeck,388,806
rlh54dvjgfm,13614,20/03/2022@22:50:36,"Mozilla/5.0 (Macintosh; Intel Mac OS X 10_15_7) AppleWebKit/537.36 (KHTML, like Gecko) Chrome/99.0.4844.51 Safari/537.36",1440,900,1440,702,main,1019677,32,8,6,HM,Moderate,Harder than Reference,F,k,safeDeck,riskyDeck,14,0,7,right,1,0,32,absent,riskyDeck,381,1899
rlh54dvjgfm,13614,20/03/2022@22:50:36,"Mozilla/5.0 (Macintosh; Intel Mac OS X 10_15_7) AppleWebKit/537.36 (KHTML, like Gecko) Chrome/99.0.4844.51 Safari/537.36",1440,900,1440,702,main,1019677,33,8,6,EM,Moderate,Easier than Reference,D,k,riskyDeck,safeDeck,0,-28,-14,left,1,0,4,absent,riskyDeck,447,1025
rlh54dvjgfm,13614,20/03/2022@22:50:36,"Mozilla/5.0 (Macintosh; Intel Mac OS X 10_15_7) AppleWebKit/537.36 (KHTML, like Gecko) Chrome/99.0.4844.51 Safari/537.36",1440,900,1440,702,main,1019677,34,8,6,HM,Moderate,Harder than Reference,F,k,safeDeck,riskyDeck,14,0,7,right,1,1,32,present,riskyDeck,377,1597
rlh54dvjgfm,13614,20/03/2022@22:50:36,"Mozilla/5.0 (Macintosh; Intel Mac OS X 10_15_7) AppleWebKit/537.36 (KHTML, like Gecko) Chrome/99.0.4844.51 Safari/537.36",1440,900,1440,702,main,1019677,35,8,7,EE,Extreme,Easier than Reference,F,j,safeDeck,riskyDeck,0,-14,-7,right,1,1,18,absent,riskyDeck,455,1413
rlh54dvjgfm,13614,20/03/2022@22:50:36,"Mozilla/5.0 (Macintosh; Intel Mac OS X 10_15_7) AppleWebKit/537.36 (KHTML, like Gecko) Chrome/99.0.4844.51 Safari/537.36",1440,900,1440,702,main,1019677,36,8,7,HE,Extreme,Harder than Reference,D,j,riskyDeck,safeDeck,28,0,14,left,1,0,32,present,riskyDeck,453,1406
rlh54dvjgfm,13614,20/03/2022@22:50:36,"Mozilla/5.0 (Macintosh; Intel Mac OS X 10_15_7) AppleWebKit/537.36 (KHTML, like Gecko) Chrome/99.0.4844.51 Safari/537.36",1440,900,1440,702,main,1019677,37,8,7,HE,Extreme,Harder than Reference,D,j,riskyDeck,safeDeck,28,0,14,left,1,1,32,absent,riskyDeck,469,745
rlh54dvjgfm,13614,20/03/2022@22:50:36,"Mozilla/5.0 (Macintosh; Intel Mac OS X 10_15_7) AppleWebKit/537.36 (KHTML, like Gecko) Chrome/99.0.4844.51 Safari/537.36",1440,900,1440,702,main,1019677,38,8,7,EE,Extreme,Easier than Reference,D,j,riskyDeck,safeDeck,0,-14,-7,left,1,1,32,absent,riskyDeck,416,647
rlh54dvjgfm,13614,20/03/2022@22:50:36,"Mozilla/5.0 (Macintosh; Intel Mac OS X 10_15_7) AppleWebKit/537.36 (KHTML, like Gecko) Chrome/99.0.4844.51 Safari/537.36",1440,900,1440,702,main,1019677,39,8,7,EM,Moderate,Easier than Reference,D,j,riskyDeck,safeDeck,0,-28,-14,left,1,0,32,present,riskyDeck,566,761
rlh54dvjgfm,13614,20/03/2022@22:50:36,"Mozilla/5.0 (Macintosh; Intel Mac OS X 10_15_7) AppleWebKit/537.36 (KHTML, like Gecko) Chrome/99.0.4844.51 Safari/537.36",1440,900,1440,702,main,1019677,40,9,7,HM,Moderate,Harder than Reference,D,j,riskyDeck,safeDeck,0,14,7,left,1,0,32,present,riskyDeck,459,2932
rlh54dvjgfm,13614,20/03/2022@22:50:36,"Mozilla/5.0 (Macintosh; Intel Mac OS X 10_15_7) AppleWebKit/537.36 (KHTML, like Gecko) Chrome/99.0.4844.51 Safari/537.36",1440,900,1440,702,main,1019677,41,9,7,EE,Extreme,Easier than Reference,D,j,riskyDeck,safeDeck,-14,0,-7,left,1,0,32,present,riskyDeck,766,741
rlh54dvjgfm,13614,20/03/2022@22:50:36,"Mozilla/5.0 (Macintosh; Intel Mac OS X 10_15_7) AppleWebKit/537.36 (KHTML, like Gecko) Chrome/99.0.4844.51 Safari/537.36",1440,900,1440,702,main,1019677,42,9,7,HM,Moderate,Harder than Reference,D,k,riskyDeck,safeDeck,0,14,7,left,1,0,46,absent,riskyDeck,783,1019
rlh54dvjgfm,13614,20/03/2022@22:50:36,"Mozilla/5.0 (Macintosh; Intel Mac OS X 10_15_7) AppleWebKit/537.36 (KHTML, like Gecko) Chrome/99.0.4844.51 Safari/537.36",1440,900,1440,702,main,1019677,43,9,7,EM,Moderate,Easier than Reference,D,k,riskyDeck,safeDeck,0,-28,-14,left,1,0,4,absent,riskyDeck,586,862
rlh54dvjgfm,13614,20/03/2022@22:50:36,"Mozilla/5.0 (Macintosh; Intel Mac OS X 10_15_7) AppleWebKit/537.36 (KHTML, like Gecko) Chrome/99.0.4844.51 Safari/537.36",1440,900,1440,702,main,1019677,44,9,7,HE,Extreme,Harder than Reference,F,j,safeDeck,riskyDeck,28,0,14,right,1,1,32,absent,riskyDeck,465,1069
rlh54dvjgfm,13614,20/03/2022@22:50:36,"Mozilla/5.0 (Macintosh; Intel Mac OS X 10_15_7) AppleWebKit/537.36 (KHTML, like Gecko) Chrome/99.0.4844.51 Safari/537.36",1440,900,1440,702,main,1019677,45,9,7,EM,Moderate,Easier than Reference,D,j,riskyDeck,safeDeck,-28,0,-14,left,1,1,32,absent,riskyDeck,413,661
rlh54dvjgfm,13614,20/03/2022@22:50:36,"Mozilla/5.0 (Macintosh; Intel Mac OS X 10_15_7) AppleWebKit/537.36 (KHTML, like Gecko) Chrome/99.0.4844.51 Safari/537.36",1440,900,1440,702,main,1019677,46,9,7,HM,Moderate,Harder than Reference,D,k,riskyDeck,safeDeck,14,0,7,left,1,1,32,present,riskyDeck,532,1331
rlh54dvjgfm,13614,20/03/2022@22:50:36,"Mozilla/5.0 (Macintosh; Intel Mac OS X 10_15_7) AppleWebKit/537.36 (KHTML, like Gecko) Chrome/99.0.4844.51 Safari/537.36",1440,900,1440,702,main,1019677,47,9,8,HE,Extreme,Harder than Reference,F,k,safeDeck,riskyDeck,0,28,14,right,1,1,60,present,riskyDeck,631,1013
rlh54dvjgfm,13614,20/03/2022@22:50:36,"Mozilla/5.0 (Macintosh; Intel Mac OS X 10_15_7) AppleWebKit/537.36 (KHTML, like Gecko) Chrome/99.0.4844.51 Safari/537.36",1440,900,1440,702,main,1019677,48,9,8,EE,Extreme,Easier than Reference,F,j,safeDeck,riskyDeck,0,-14,-7,right,1,1,18,absent,riskyDeck,2362,506
rlh54dvjgfm,13614,20/03/2022@22:50:36,"Mozilla/5.0 (Macintosh; Intel Mac OS X 10_15_7) AppleWebKit/537.36 (KHTML, like Gecko) Chrome/99.0.4844.51 Safari/537.36",1440,900,1440,702,main,1019677,49,9,8,HE,Extreme,Harder than Reference,F,j,safeDeck,riskyDeck,0,28,14,right,1,1,60,absent,riskyDeck,426,1032
rlh54dvjgfm,13614,20/03/2022@22:50:36,"Mozilla/5.0 (Macintosh; Intel Mac OS X 10_15_7) AppleWebKit/537.36 (KHTML, like Gecko) Chrome/99.0.4844.51 Safari/537.36",1440,900,1440,702,main,1019677,50,9,8,EE,Extreme,Easier than Reference,F,j,safeDeck,riskyDeck,0,-14,-7,right,1,1,18,absent,riskyDeck,501,1229
rlh54dvjgfm,13614,20/03/2022@22:50:36,"Mozilla/5.0 (Macintosh; Intel Mac OS X 10_15_7) AppleWebKit/537.36 (KHTML, like Gecko) Chrome/99.0.4844.51 Safari/537.36",1440,900,1440,702,main,1019677,51,10,8,HM,Moderate,Harder than Reference,F,j,safeDeck,riskyDeck,0,14,7,right,1,1,46,absent,riskyDeck,399,589
rlh54dvjgfm,13614,20/03/2022@22:50:36,"Mozilla/5.0 (Macintosh; Intel Mac OS X 10_15_7) AppleWebKit/537.36 (KHTML, like Gecko) Chrome/99.0.4844.51 Safari/537.36",1440,900,1440,702,main,1019677,52,10,8,EM,Moderate,Easier than Reference,D,j,riskyDeck,safeDeck,-28,0,-14,left,1,0,32,present,riskyDeck,379,588
rlh54dvjgfm,13614,20/03/2022@22:50:36,"Mozilla/5.0 (Macintosh; Intel Mac OS X 10_15_7) AppleWebKit/537.36 (KHTML, like Gecko) Chrome/99.0.4844.51 Safari/537.36",1440,900,1440,702,main,1019677,53,10,8,HE,Extreme,Harder than Reference,D,j,riskyDeck,safeDeck,0,28,14,left,1,0,60,present,riskyDeck,403,687
rlh54dvjgfm,13614,20/03/2022@22:50:36,"Mozilla/5.0 (Macintosh; Intel Mac OS X 10_15_7) AppleWebKit/537.36 (KHTML, like Gecko) Chrome/99.0.4844.51 Safari/537.36",1440,900,1440,702,main,1019677,54,10,8,EM,Moderate,Easier than Reference,D,j,safeDeck,riskyDeck,0,-28,-14,left,0,0,18,present,safeDeck,58,1455
rlh54dvjgfm,13614,20/03/2022@22:50:36,"Mozilla/5.0 (Macintosh; Intel Mac OS X 10_15_7) AppleWebKit/537.36 (KHTML, like Gecko) Chrome/99.0.4844.51 Safari/537.36",1440,900,1440,702,main,1019677,55,10,8,EE,Extreme,Easier than Reference,D,j,riskyDeck,safeDeck,-14,0,-7,left,1,1,32,absent,riskyDeck,535,818
rlh54dvjgfm,13614,20/03/2022@22:50:36,"Mozilla/5.0 (Macintosh; Intel Mac OS X 10_15_7) AppleWebKit/537.36 (KHTML, like Gecko) Chrome/99.0.4844.51 Safari/537.36",1440,900,1440,702,main,1019677,56,10,8,HM,Moderate,Harder than Reference,F,j,safeDeck,riskyDeck,0,14,7,right,1,1,46,absent,riskyDeck,590,582
rlh54dvjgfm,13614,20/03/2022@22:50:36,"Mozilla/5.0 (Macintosh; Intel Mac OS X 10_15_7) AppleWebKit/537.36 (KHTML, like Gecko) Chrome/99.0.4844.51 Safari/537.36",1440,900,1440,702,main,1019677,57,10,9,HE,Extreme,Harder than Reference,F,j,safeDeck,riskyDeck,0,28,14,right,1,1,60,absent,riskyDeck,2078,930
rlh54dvjgfm,13614,20/03/2022@22:50:36,"Mozilla/5.0 (Macintosh; Intel Mac OS X 10_15_7) AppleWebKit/537.36 (KHTML, like Gecko) Chrome/99.0.4844.51 Safari/537.36",1440,900,1440,702,main,1019677,58,10,9,EM,Moderate,Easier than Reference,F,j,safeDeck,riskyDeck,-28,0,-14,right,1,1,32,absent,riskyDeck,478,676
rlh54dvjgfm,13614,20/03/2022@22:50:36,"Mozilla/5.0 (Macintosh; Intel Mac OS X 10_15_7) AppleWebKit/537.36 (KHTML, like Gecko) Chrome/99.0.4844.51 Safari/537.36",1440,900,1440,702,main,1019677,59,10,9,EE,Extreme,Easier than Reference,D,k,riskyDeck,safeDeck,0,-14,-7,left,1,1,18,present,riskyDeck,425,1021
rlh54dvjgfm,13614,20/03/2022@22:50:36,"Mozilla/5.0 (Macintosh; Intel Mac OS X 10_15_7) AppleWebKit/537.36 (KHTML, like Gecko) Chrome/99.0.4844.51 Safari/537.36",1440,900,1440,702,main,1019677,60,10,9,HM,Moderate,Harder than Reference,F,j,safeDeck,riskyDeck,0,14,7,right,1,0,32,present,riskyDeck,432,765
rlh54dvjgfm,13614,20/03/2022@22:50:36,"Mozilla/5.0 (Macintosh; Intel Mac OS X 10_15_7) AppleWebKit/537.36 (KHTML, like Gecko) Chrome/99.0.4844.51 Safari/537.36",1440,900,1440,702,main,1019677,61,10,9,EM,Moderate,Easier than Reference,F,j,safeDeck,riskyDeck,0,-28,-14,right,1,0,32,present,riskyDeck,409,764
rlh54dvjgfm,13614,20/03/2022@22:50:36,"Mozilla/5.0 (Macintosh; Intel Mac OS X 10_15_7) AppleWebKit/537.36 (KHTML, like Gecko) Chrome/99.0.4844.51 Safari/537.36",1440,900,1440,702,main,1019677,62,10,9,EE,Extreme,Easier than Reference,F,j,safeDeck,riskyDeck,-14,0,-7,right,1,1,32,absent,riskyDeck,407,470
rlh54dvjgfm,13614,20/03/2022@22:50:36,"Mozilla/5.0 (Macintosh; Intel Mac OS X 10_15_7) AppleWebKit/537.36 (KHTML, like Gecko) Chrome/99.0.4844.51 Safari/537.36",1440,900,1440,702,main,1019677,63,11,9,HE,Extreme,Harder than Reference,F,j,safeDeck,riskyDeck,28,0,14,right,1,0,32,present,riskyDeck,384,735
rlh54dvjgfm,13614,20/03/2022@22:50:36,"Mozilla/5.0 (Macintosh; Intel Mac OS X 10_15_7) AppleWebKit/537.36 (KHTML, like Gecko) Chrome/99.0.4844.51 Safari/537.36",1440,900,1440,702,main,1019677,64,11,9,HM,Moderate,Harder than Reference,F,j,safeDeck,riskyDeck,14,0,7,right,1,0,46,present,riskyDeck,907,1326
rlh54dvjgfm,13614,20/03/2022@22:50:36,"Mozilla/5.0 (Macintosh; Intel Mac OS X 10_15_7) AppleWebKit/537.36 (KHTML, like Gecko) Chrome/99.0.4844.51 Safari/537.36",1440,900,1440,702,main,1019677,65,11,9,EE,Extreme,Easier than Reference,D,j,riskyDeck,safeDeck,-14,0,-7,left,1,1,32,absent,riskyDeck,789,2081
rlh54dvjgfm,13614,20/03/2022@22:50:36,"Mozilla/5.0 (Macintosh; Intel Mac OS X 10_15_7) AppleWebKit/537.36 (KHTML, like Gecko) Chrome/99.0.4844.51 Safari/537.36",1440,900,1440,702,main,1019677,66,11,9,HM,Moderate,Harder than Reference,D,j,riskyDeck,safeDeck,14,0,7,left,1,1,32,absent,riskyDeck,502,787
rlh54dvjgfm,13614,20/03/2022@22:50:36,"Mozilla/5.0 (Macintosh; Intel Mac OS X 10_15_7) AppleWebKit/537.36 (KHTML, like Gecko) Chrome/99.0.4844.51 Safari/537.36",1440,900,1440,702,main,1019677,67,11,9,EM,Moderate,Easier than Reference,D,k,riskyDeck,safeDeck,0,-28,-14,left,1,1,4,present,riskyDeck,730,885
rlh54dvjgfm,13614,20/03/2022@22:50:36,"Mozilla/5.0 (Macintosh; Intel Mac OS X 10_15_7) AppleWebKit/537.36 (KHTML, like Gecko) Chrome/99.0.4844.51 Safari/537.36",1440,900,1440,702,main,1019677,68,11,10,HE,Extreme,Harder than Reference,F,j,safeDeck,riskyDeck,28,0,14,right,1,0,60,present,riskyDeck,527,818
rlh54dvjgfm,13614,20/03/2022@22:50:36,"Mozilla/5.0 (Macintosh; Intel Mac OS X 10_15_7) AppleWebKit/537.36 (KHTML, like Gecko) Chrome/99.0.4844.51 Safari/537.36",1440,900,1440,702,main,1019677,69,11,10,HE,Extreme,Harder than Reference,D,j,riskyDeck,safeDeck,0,28,14,left,1,1,60,absent,riskyDeck,510,812
rlh54dvjgfm,13614,20/03/2022@22:50:36,"Mozilla/5.0 (Macintosh; Intel Mac OS X 10_15_7) AppleWebKit/537.36 (KHTML, like Gecko) Chrome/99.0.4844.51 Safari/537.36",1440,900,1440,702,main,1019677,70,11,10,EM,Moderate,Easier than Reference,F,k,safeDeck,riskyDeck,-28,0,-14,right,1,1,4,present,riskyDeck,478,1129
rlh54dvjgfm,13614,20/03/2022@22:50:36,"Mozilla/5.0 (Macintosh; Intel Mac OS X 10_15_7) AppleWebKit/537.36 (KHTML, like Gecko) Chrome/99.0.4844.51 Safari/537.36",1440,900,1440,702,main,1019677,71,11,10,EE,Extreme,Easier than Reference,F,j,safeDeck,riskyDeck,0,-14,-7,right,1,1,32,absent,riskyDeck,342,1075
rlh54dvjgfm,13614,20/03/2022@22:50:36,"Mozilla/5.0 (Macintosh; Intel Mac OS X 10_15_7) AppleWebKit/537.36 (KHTML, like Gecko) Chrome/99.0.4844.51 Safari/537.36",1440,900,1440,702,main,1019677,72,11,10,HM,Moderate,Harder than Reference,F,j,safeDeck,riskyDeck,14,0,7,right,1,1,46,absent,riskyDeck,383,707
rlh54dvjgfm,13614,20/03/2022@22:50:36,"Mozilla/5.0 (Macintosh; Intel Mac OS X 10_15_7) AppleWebKit/537.36 (KHTML, like Gecko) Chrome/99.0.4844.51 Safari/537.36",1440,900,1440,702,main,1019677,73,11,10,HE,Extreme,Harder than Reference,F,k,safeDeck,riskyDeck,0,28,14,right,1,0,60,absent,riskyDeck,338,389
rlh54dvjgfm,13614,20/03/2022@22:50:36,"Mozilla/5.0 (Macintosh; Intel Mac OS X 10_15_7) AppleWebKit/537.36 (KHTML, like Gecko) Chrome/99.0.4844.51 Safari/537.36",1440,900,1440,702,main,1019677,74,12,10,HM,Moderate,Harder than Reference,F,k,safeDeck,riskyDeck,0,14,7,right,1,1,32,present,riskyDeck,473,654
rlh54dvjgfm,13614,20/03/2022@22:50:36,"Mozilla/5.0 (Macintosh; Intel Mac OS X 10_15_7) AppleWebKit/537.36 (KHTML, like Gecko) Chrome/99.0.4844.51 Safari/537.36",1440,900,1440,702,main,1019677,75,12,10,EM,Moderate,Easier than Reference,D,j,riskyDeck,safeDeck,0,-28,-14,left,1,1,32,absent,riskyDeck,447,822
rlh54dvjgfm,13614,20/03/2022@22:50:36,"Mozilla/5.0 (Macintosh; Intel Mac OS X 10_15_7) AppleWebKit/537.36 (KHTML, like Gecko) Chrome/99.0.4844.51 Safari/537.36",1440,900,1440,702,main,1019677,76,12,10,EE,Extreme,Easier than Reference,F,j,riskyDeck,safeDeck,0,-14,-7,right,0,0,25,present,safeDeck,508,2706
rlh54dvjgfm,13614,20/03/2022@22:50:36,"Mozilla/5.0 (Macintosh; Intel Mac OS X 10_15_7) AppleWebKit/537.36 (KHTML, like Gecko) Chrome/99.0.4844.51 Safari/537.36",1440,900,1440,702,main,1019677,77,12,10,HE,Extreme,Harder than Reference,F,j,safeDeck,riskyDeck,0,28,14,right,1,0,32,present,riskyDeck,1132,294
rlh54dvjgfm,13614,20/03/2022@22:50:36,"Mozilla/5.0 (Macintosh; Intel Mac OS X 10_15_7) AppleWebKit/537.36 (KHTML, like Gecko) Chrome/99.0.4844.51 Safari/537.36",1440,900,1440,702,main,1019677,78,12,10,HM,Moderate,Harder than Reference,F,j,safeDeck,riskyDeck,0,14,7,right,1,1,46,absent,riskyDeck,287,587
rlh54dvjgfm,13614,20/03/2022@22:50:36,"Mozilla/5.0 (Macintosh; Intel Mac OS X 10_15_7) AppleWebKit/537.36 (KHTML, like Gecko) Chrome/99.0.4844.51 Safari/537.36",1440,900,1440,702,main,1019677,79,12,11,EE,Extreme,Easier than Reference,F,k,riskyDeck,safeDeck,-14,0,-7,right,0,1,25,present,safeDeck,274,600
rlh54dvjgfm,13614,20/03/2022@22:50:36,"Mozilla/5.0 (Macintosh; Intel Mac OS X 10_15_7) AppleWebKit/537.36 (KHTML, like Gecko) Chrome/99.0.4844.51 Safari/537.36",1440,900,1440,702,main,1019677,80,12,11,EM,Moderate,Easier than Reference,D,j,riskyDeck,safeDeck,0,-28,-14,left,1,1,4,absent,riskyDeck,278,763
rlh54dvjgfm,13614,20/03/2022@22:50:36,"Mozilla/5.0 (Macintosh; Intel Mac OS X 10_15_7) AppleWebKit/537.36 (KHTML, like Gecko) Chrome/99.0.4844.51 Safari/537.36",1440,900,1440,702,main,1019677,81,12,11,HM,Moderate,Harder than Reference,D,k,safeDeck,riskyDeck,0,14,7,left,0,1,39,present,safeDeck,467,582
rlh54dvjgfm,13614,20/03/2022@22:50:36,"Mozilla/5.0 (Macintosh; Intel Mac OS X 10_15_7) AppleWebKit/537.36 (KHTML, like Gecko) Chrome/99.0.4844.51 Safari/537.36",1440,900,1440,702,main,1019677,82,12,11,EE,Extreme,Easier than Reference,F,j,safeDeck,riskyDeck,0,-14,-7,right,1,1,32,absent,riskyDeck,384,428
rlh54dvjgfm,13614,20/03/2022@22:50:36,"Mozilla/5.0 (Macintosh; Intel Mac OS X 10_15_7) AppleWebKit/537.36 (KHTML, like Gecko) Chrome/99.0.4844.51 Safari/537.36",1440,900,1440,702,main,1019677,83,12,11,HE,Extreme,Harder than Reference,F,j,safeDeck,riskyDeck,0,28,14,right,1,1,32,absent,riskyDeck,37,449
rlh54dvjgfm,13614,20/03/2022@22:50:36,"Mozilla/5.0 (Macintosh; Intel Mac OS X 10_15_7) AppleWebKit/537.36 (KHTML, like Gecko) Chrome/99.0.4844.51 Safari/537.36",1440,900,1440,702,main,1019677,84,13,11,EM,Moderate,Easier than Reference,D,k,riskyDeck,safeDeck,-28,0,-14,left,1,1,4,present,riskyDeck,435,472
rlh54dvjgfm,13614,20/03/2022@22:50:36,"Mozilla/5.0 (Macintosh; Intel Mac OS X 10_15_7) AppleWebKit/537.36 (KHTML, like Gecko) Chrome/99.0.4844.51 Safari/537.36",1440,900,1440,702,main,1019677,85,13,11,EM,Moderate,Easier than Reference,D,j,riskyDeck,safeDeck,-28,0,-14,left,1,1,32,absent,riskyDeck,385,324
rlh54dvjgfm,13614,20/03/2022@22:50:36,"Mozilla/5.0 (Macintosh; Intel Mac OS X 10_15_7) AppleWebKit/537.36 (KHTML, like Gecko) Chrome/99.0.4844.51 Safari/537.36",1440,900,1440,702,main,1019677,86,13,11,HM,Moderate,Harder than Reference,F,j,safeDeck,riskyDeck,0,14,7,right,1,0,32,present,riskyDeck,760,433
rlh54dvjgfm,13614,20/03/2022@22:50:36,"Mozilla/5.0 (Macintosh; Intel Mac OS X 10_15_7) AppleWebKit/537.36 (KHTML, like Gecko) Chrome/99.0.4844.51 Safari/537.36",1440,900,1440,702,main,1019677,87,13,11,HE,Extreme,Harder than Reference,D,j,riskyDeck,safeDeck,0,28,14,left,1,0,60,present,riskyDeck,455,666
rlh54dvjgfm,13614,20/03/2022@22:50:36,"Mozilla/5.0 (Macintosh; Intel Mac OS X 10_15_7) AppleWebKit/537.36 (KHTML, like Gecko) Chrome/99.0.4844.51 Safari/537.36",1440,900,1440,702,main,1019677,88,13,11,EE,Extreme,Easier than Reference,F,j,safeDeck,riskyDeck,-14,0,-7,right,1,0,32,present,riskyDeck,500,508
rlh54dvjgfm,13614,20/03/2022@22:50:36,"Mozilla/5.0 (Macintosh; Intel Mac OS X 10_15_7) AppleWebKit/537.36 (KHTML, like Gecko) Chrome/99.0.4844.51 Safari/537.36",1440,900,1440,702,main,1019677,89,13,11,HE,Extreme,Harder than Reference,F,j,safeDeck,riskyDeck,28,0,14,right,1,1,60,absent,riskyDeck,395,528
rlh54dvjgfm,13614,20/03/2022@22:50:36,"Mozilla/5.0 (Macintosh; Intel Mac OS X 10_15_7) AppleWebKit/537.36 (KHTML, like Gecko) Chrome/99.0.4844.51 Safari/537.36",1440,900,1440,702,main,1019677,90,13,12,EE,Extreme,Easier than Reference,F,k,safeDeck,riskyDeck,0,-14,-7,right,1,1,18,present,riskyDeck,360,310
rlh54dvjgfm,13614,20/03/2022@22:50:36,"Mozilla/5.0 (Macintosh; Intel Mac OS X 10_15_7) AppleWebKit/537.36 (KHTML, like Gecko) Chrome/99.0.4844.51 Safari/537.36",1440,900,1440,702,main,1019677,91,13,12,EM,Moderate,Easier than Reference,F,j,safeDeck,riskyDeck,-28,0,-14,right,1,0,32,present,riskyDeck,356,379
rlh54dvjgfm,13614,20/03/2022@22:50:36,"Mozilla/5.0 (Macintosh; Intel Mac OS X 10_15_7) AppleWebKit/537.36 (KHTML, like Gecko) Chrome/99.0.4844.51 Safari/537.36",1440,900,1440,702,main,1019677,92,13,12,HM,Moderate,Harder than Reference,F,j,safeDeck,riskyDeck,0,14,7,right,1,1,46,absent,riskyDeck,816,357
rlh54dvjgfm,13614,20/03/2022@22:50:36,"Mozilla/5.0 (Macintosh; Intel Mac OS X 10_15_7) AppleWebKit/537.36 (KHTML, like Gecko) Chrome/99.0.4844.51 Safari/537.36",1440,900,1440,702,main,1019677,93,13,12,HE,Extreme,Harder than Reference,F,j,riskyDeck,safeDeck,0,28,14,right,0,0,46,present,safeDeck,30,427
rlh54dvjgfm,13614,20/03/2022@22:50:36,"Mozilla/5.0 (Macintosh; Intel Mac OS X 10_15_7) AppleWebKit/537.36 (KHTML, like Gecko) Chrome/99.0.4844.51 Safari/537.36",1440,900,1440,702,main,1019677,94,13,12,EE,Extreme,Easier than Reference,F,j,riskyDeck,safeDeck,0,-14,-7,right,0,1,25,absent,safeDeck,416,410
rlh54dvjgfm,13614,20/03/2022@22:50:36,"Mozilla/5.0 (Macintosh; Intel Mac OS X 10_15_7) AppleWebKit/537.36 (KHTML, like Gecko) Chrome/99.0.4844.51 Safari/537.36",1440,900,1440,702,main,1019677,95,13,12,EM,Moderate,Easier than Reference,F,j,safeDeck,riskyDeck,-28,0,-14,right,1,1,4,absent,riskyDeck,469,520
rlh54dvjgfm,13614,20/03/2022@22:50:36,"Mozilla/5.0 (Macintosh; Intel Mac OS X 10_15_7) AppleWebKit/537.36 (KHTML, like Gecko) Chrome/99.0.4844.51 Safari/537.36",1440,900,1440,702,main,1019677,96,14,12,HM,Moderate,Harder than Reference,D,j,safeDeck,riskyDeck,14,0,7,left,0,0,39,present,safeDeck,427,357
rlh54dvjgfm,13614,20/03/2022@22:50:36,"Mozilla/5.0 (Macintosh; Intel Mac OS X 10_15_7) AppleWebKit/537.36 (KHTML, like Gecko) Chrome/99.0.4844.51 Safari/537.36",1440,900,1440,702,main,1019677,97,14,12,HM,Moderate,Harder than Reference,F,j,safeDeck,riskyDeck,14,0,7,right,1,1,46,absent,riskyDeck,769,651
rlh54dvjgfm,13614,20/03/2022@22:50:36,"Mozilla/5.0 (Macintosh; Intel Mac OS X 10_15_7) AppleWebKit/537.36 (KHTML, like Gecko) Chrome/99.0.4844.51 Safari/537.36",1440,900,1440,702,main,1019677,98,14,12,EE,Extreme,Easier than Reference,D,j,riskyDeck,safeDeck,-14,0,-7,left,1,1,32,absent,riskyDeck,464,402
rlh54dvjgfm,13614,20/03/2022@22:50:36,"Mozilla/5.0 (Macintosh; Intel Mac OS X 10_15_7) AppleWebKit/537.36 (KHTML, like Gecko) Chrome/99.0.4844.51 Safari/537.36",1440,900,1440,702,main,1019677,99,14,12,HE,Extreme,Harder than Reference,F,k,riskyDeck,safeDeck,0,28,14,right,0,0,46,absent,safeDeck,476,375
rlh54dvjgfm,13614,20/03/2022@22:50:36,"Mozilla/5.0 (Macintosh; Intel Mac OS X 10_15_7) AppleWebKit/537.36 (KHTML, like Gecko) Chrome/99.0.4844.51 Safari/537.36",1440,900,1440,702,main,1019677,100,14,12,EM,Moderate,Easier than Reference,D,k,riskyDeck,safeDeck,0,-28,-14,left,1,0,4,absent,riskyDeck,455,569
rlh54dvjgfm,13614,20/03/2022@22:50:36,"Mozilla/5.0 (Macintosh; Intel Mac OS X 10_15_7) AppleWebKit/537.36 (KHTML, like Gecko) Chrome/99.0.4844.51 Safari/537.36",1440,900,1440,702,main,1019677,101,14,12,EE,Extreme,Easier than Reference,D,k,riskyDeck,safeDeck,0,-14,-7,left,1,1,18,present,riskyDeck,315,660
rlh54dvjgfm,13614,20/03/2022@22:50:36,"Mozilla/5.0 (Macintosh; Intel Mac OS X 10_15_7) AppleWebKit/537.36 (KHTML, like Gecko) Chrome/99.0.4844.51 Safari/537.36",1440,900,1440,702,main,1019677,102,14,13,HM,Moderate,Harder than Reference,D,j,riskyDeck,safeDeck,14,0,7,left,1,0,46,present,riskyDeck,466,307
rlh54dvjgfm,13614,20/03/2022@22:50:36,"Mozilla/5.0 (Macintosh; Intel Mac OS X 10_15_7) AppleWebKit/537.36 (KHTML, like Gecko) Chrome/99.0.4844.51 Safari/537.36",1440,900,1440,702,main,1019677,103,14,13,HE,Extreme,Harder than Reference,D,j,riskyDeck,safeDeck,0,28,14,left,1,1,60,absent,riskyDeck,409,321
rlh54dvjgfm,13614,20/03/2022@22:50:36,"Mozilla/5.0 (Macintosh; Intel Mac OS X 10_15_7) AppleWebKit/537.36 (KHTML, like Gecko) Chrome/99.0.4844.51 Safari/537.36",1440,900,1440,702,main,1019677,104,14,13,EM,Moderate,Easier than Reference,F,k,safeDeck,riskyDeck,0,-28,-14,right,1,1,4,present,riskyDeck,471,366
rlh54dvjgfm,13614,20/03/2022@22:50:36,"Mozilla/5.0 (Macintosh; Intel Mac OS X 10_15_7) AppleWebKit/537.36 (KHTML, like Gecko) Chrome/99.0.4844.51 Safari/537.36",1440,900,1440,702,main,1019677,105,14,13,EE,Extreme,Easier than Reference,D,j,riskyDeck,safeDeck,-14,0,-7,left,1,1,32,absent,riskyDeck,379,336
rlh54dvjgfm,13614,20/03/2022@22:50:36,"Mozilla/5.0 (Macintosh; Intel Mac OS X 10_15_7) AppleWebKit/537.36 (KHTML, like Gecko) Chrome/99.0.4844.51 Safari/537.36",1440,900,1440,702,main,1019677,106,14,13,HE,Extreme,Harder than Reference,F,j,safeDeck,riskyDeck,28,0,14,right,1,0,60,present,riskyDeck,2128,515
rlh54dvjgfm,13614,20/03/2022@22:50:36,"Mozilla/5.0 (Macintosh; Intel Mac OS X 10_15_7) AppleWebKit/537.36 (KHTML, like Gecko) Chrome/99.0.4844.51 Safari/537.36",1440,900,1440,702,main,1019677,107,14,13,EM,Moderate,Easier than Reference,D,k,safeDeck,riskyDeck,-28,0,-14,left,0,1,18,present,safeDeck,349,368
rlh54dvjgfm,13614,20/03/2022@22:50:36,"Mozilla/5.0 (Macintosh; Intel Mac OS X 10_15_7) AppleWebKit/537.36 (KHTML, like Gecko) Chrome/99.0.4844.51 Safari/537.36",1440,900,1440,702,main,1019677,108,15,13,HM,Moderate,Harder than Reference,F,j,safeDeck,riskyDeck,14,0,7,right,1,1,32,absent,riskyDeck,358,339
rlh54dvjgfm,13614,20/03/2022@22:50:36,"Mozilla/5.0 (Macintosh; Intel Mac OS X 10_15_7) AppleWebKit/537.36 (KHTML, like Gecko) Chrome/99.0.4844.51 Safari/537.36",1440,900,1440,702,main,1019677,109,15,13,EE,Extreme,Easier than Reference,D,k,riskyDeck,safeDeck,0,-14,-7,left,1,0,18,absent,riskyDeck,360,409
rlh54dvjgfm,13614,20/03/2022@22:50:36,"Mozilla/5.0 (Macintosh; Intel Mac OS X 10_15_7) AppleWebKit/537.36 (KHTML, like Gecko) Chrome/99.0.4844.51 Safari/537.36",1440,900,1440,702,main,1019677,110,15,13,HE,Extreme,Harder than Reference,F,k,safeDeck,riskyDeck,28,0,14,right,1,0,60,absent,riskyDeck,464,365
rlh54dvjgfm,13614,20/03/2022@22:50:36,"Mozilla/5.0 (Macintosh; Intel Mac OS X 10_15_7) AppleWebKit/537.36 (KHTML, like Gecko) Chrome/99.0.4844.51 Safari/537.36",1440,900,1440,702,main,1019677,111,15,13,EM,Moderate,Easier than Reference,F,k,safeDeck,riskyDeck,0,-28,-14,right,1,0,32,absent,riskyDeck,374,355
rlh54dvjgfm,13614,20/03/2022@22:50:36,"Mozilla/5.0 (Macintosh; Intel Mac OS X 10_15_7) AppleWebKit/537.36 (KHTML, like Gecko) Chrome/99.0.4844.51 Safari/537.36",1440,900,1440,702,main,1019677,112,15,13,HM,Moderate,Harder than Reference,D,k,riskyDeck,safeDeck,0,14,7,left,1,1,32,present,riskyDeck,472,326
rlh54dvjgfm,13614,20/03/2022@22:50:36,"Mozilla/5.0 (Macintosh; Intel Mac OS X 10_15_7) AppleWebKit/537.36 (KHTML, like Gecko) Chrome/99.0.4844.51 Safari/537.36",1440,900,1440,702,main,1019677,113,15,13,HM,Moderate,Harder than Reference,D,k,riskyDeck,safeDeck,14,0,7,left,1,0,46,absent,riskyDeck,410,459
rlh54dvjgfm,13614,20/03/2022@22:50:36,"Mozilla/5.0 (Macintosh; Intel Mac OS X 10_15_7) AppleWebKit/537.36 (KHTML, like Gecko) Chrome/99.0.4844.51 Safari/537.36",1440,900,1440,702,main,1019677,114,15,14,HE,Extreme,Harder than Reference,F,k,safeDeck,riskyDeck,0,28,14,right,1,1,32,present,riskyDeck,484,342
rlh54dvjgfm,13614,20/03/2022@22:50:36,"Mozilla/5.0 (Macintosh; Intel Mac OS X 10_15_7) AppleWebKit/537.36 (KHTML, like Gecko) Chrome/99.0.4844.51 Safari/537.36",1440,900,1440,702,main,1019677,115,15,14,EM,Moderate,Easier than Reference,D,j,riskyDeck,safeDeck,0,-28,-14,left,1,1,4,absent,riskyDeck,342,295
rlh54dvjgfm,13614,20/03/2022@22:50:36,"Mozilla/5.0 (Macintosh; Intel Mac OS X 10_15_7) AppleWebKit/537.36 (KHTML, like Gecko) Chrome/99.0.4844.51 Safari/537.36",1440,900,1440,702,main,1019677,116,15,14,EE,Extreme,Easier than Reference,F,j,safeDeck,riskyDeck,0,-14,-7,right,1,1,18,absent,riskyDeck,371,393
rlh54dvjgfm,13614,20/03/2022@22:50:36,"Mozilla/5.0 (Macintosh; Intel Mac OS X 10_15_7) AppleWebKit/537.36 (KHTML, like Gecko) Chrome/99.0.4844.51 Safari/537.36",1440,900,1440,702,main,1019677,117,15,14,EM,Moderate,Easier than Reference,F,j,safeDeck,riskyDeck,0,-28,-14,right,1,1,32,absent,riskyDeck,501,344
rlh54dvjgfm,13614,20/03/2022@22:50:36,"Mozilla/5.0 (Macintosh; Intel Mac OS X 10_15_7) AppleWebKit/537.36 (KHTML, like Gecko) Chrome/99.0.4844.51 Safari/537.36",1440,900,1440,702,main,1019677,118,15,14,EE,Extreme,Easier than Reference,D,k,riskyDeck,safeDeck,-14,0,-7,left,1,1,32,present,riskyDeck,365,322
rlh54dvjgfm,13614,20/03/2022@22:50:36,"Mozilla/5.0 (Macintosh; Intel Mac OS X 10_15_7) AppleWebKit/537.36 (KHTML, like Gecko) Chrome/99.0.4844.51 Safari/537.36",1440,900,1440,702,main,1019677,119,16,14,HM,Moderate,Harder than Reference,F,j,safeDeck,riskyDeck,0,14,7,right,1,0,46,present,riskyDeck,1585,361
rlh54dvjgfm,13614,20/03/2022@22:50:36,"Mozilla/5.0 (Macintosh; Intel Mac OS X 10_15_7) AppleWebKit/537.36 (KHTML, like Gecko) Chrome/99.0.4844.51 Safari/537.36",1440,900,1440,702,main,1019677,120,16,14,HE,Extreme,Harder than Reference,F,k,safeDeck,riskyDeck,0,28,14,right,1,0,60,absent,riskyDeck,448,326
rlh54dvjgfm,13614,20/03/2022@22:50:36,"Mozilla/5.0 (Macintosh; Intel Mac OS X 10_15_7) AppleWebKit/537.36 (KHTML, like Gecko) Chrome/99.0.4844.51 Safari/537.36",1440,900,1440,702,main,1019677,121,16,14,HE,Extreme,Harder than Reference,F,j,safeDeck,riskyDeck,28,0,14,right,1,1,32,absent,riskyDeck,429,375
rlh54dvjgfm,13614,20/03/2022@22:50:36,"Mozilla/5.0 (Macintosh; Intel Mac OS X 10_15_7) AppleWebKit/537.36 (KHTML, like Gecko) Chrome/99.0.4844.51 Safari/537.36",1440,900,1440,702,main,1019677,122,16,14,EM,Moderate,Easier than Reference,F,k,safeDeck,riskyDeck,0,-28,-14,right,1,1,4,present,riskyDeck,394,299
rlh54dvjgfm,13614,20/03/2022@22:50:36,"Mozilla/5.0 (Macintosh; Intel Mac OS X 10_15_7) AppleWebKit/537.36 (KHTML, like Gecko) Chrome/99.0.4844.51 Safari/537.36",1440,900,1440,702,main,1019677,123,16,14,EE,Extreme,Easier than Reference,F,j,riskyDeck,safeDeck,0,-14,-7,right,0,0,25,present,safeDeck,461,442
rlh54dvjgfm,13614,20/03/2022@22:50:36,"Mozilla/5.0 (Macintosh; Intel Mac OS X 10_15_7) AppleWebKit/537.36 (KHTML, like Gecko) Chrome/99.0.4844.51 Safari/537.36",1440,900,1440,702,main,1019677,124,16,14,HM,Moderate,Harder than Reference,D,k,riskyDeck,safeDeck,0,14,7,left,1,1,46,present,riskyDeck,441,265
rlh54dvjgfm,13614,20/03/2022@22:50:36,"Mozilla/5.0 (Macintosh; Intel Mac OS X 10_15_7) AppleWebKit/537.36 (KHTML, like Gecko) Chrome/99.0.4844.51 Safari/537.36",1440,900,1440,702,main,1019677,125,16,15,EE,Extreme,Easier than Reference,D,j,riskyDeck,safeDeck,0,-14,-7,left,1,0,32,present,riskyDeck,318,315
rlh54dvjgfm,13614,20/03/2022@22:50:36,"Mozilla/5.0 (Macintosh; Intel Mac OS X 10_15_7) AppleWebKit/537.36 (KHTML, like Gecko) Chrome/99.0.4844.51 Safari/537.36",1440,900,1440,702,main,1019677,126,16,15,HE,Extreme,Harder than Reference,D,j,riskyDeck,safeDeck,28,0,14,left,1,0,60,present,riskyDeck,494,298
rlh54dvjgfm,13614,20/03/2022@22:50:36,"Mozilla/5.0 (Macintosh; Intel Mac OS X 10_15_7) AppleWebKit/537.36 (KHTML, like Gecko) Chrome/99.0.4844.51 Safari/537.36",1440,900,1440,702,main,1019677,127,16,15,HM,Moderate,Harder than Reference,D,j,riskyDeck,safeDeck,0,14,7,left,1,1,46,absent,riskyDeck,417,300
rlh54dvjgfm,13614,20/03/2022@22:50:36,"Mozilla/5.0 (Macintosh; Intel Mac OS X 10_15_7) AppleWebKit/537.36 (KHTML, like Gecko) Chrome/99.0.4844.51 Safari/537.36",1440,900,1440,702,main,1019677,128,16,15,EM,Moderate,Easier than Reference,F,k,safeDeck,riskyDeck,-28,0,-14,right,1,0,32,absent,riskyDeck,501,346
rlh54dvjgfm,13614,20/03/2022@22:50:36,"Mozilla/5.0 (Macintosh; Intel Mac OS X 10_15_7) AppleWebKit/537.36 (KHTML, like Gecko) Chrome/99.0.4844.51 Safari/537.36",1440,900,1440,702,main,1019677,129,16,15,HM,Moderate,Harder than Reference,F,j,safeDeck,riskyDeck,14,0,7,right,1,0,46,present,riskyDeck,479,313
rlh54dvjgfm,13614,20/03/2022@22:50:36,"Mozilla/5.0 (Macintosh; Intel Mac OS X 10_15_7) AppleWebKit/537.36 (KHTML, like Gecko) Chrome/99.0.4844.51 Safari/537.36",1440,900,1440,702,main,1019677,130,16,15,EM,Moderate,Easier than Reference,D,k,riskyDeck,safeDeck,0,-28,-14,left,1,1,32,present,riskyDeck,560,526
rlh54dvjgfm,13614,20/03/2022@22:50:36,"Mozilla/5.0 (Macintosh; Intel Mac OS X 10_15_7) AppleWebKit/537.36 (KHTML, like Gecko) Chrome/99.0.4844.51 Safari/537.36",1440,900,1440,702,main,1019677,131,17,15,EE,Extreme,Easier than Reference,F,j,safeDeck,riskyDeck,0,-14,-7,right,1,0,18,present,riskyDeck,459,324
rlh54dvjgfm,13614,20/03/2022@22:50:36,"Mozilla/5.0 (Macintosh; Intel Mac OS X 10_15_7) AppleWebKit/537.36 (KHTML, like Gecko) Chrome/99.0.4844.51 Safari/537.36",1440,900,1440,702,main,1019677,132,17,15,HE,Extreme,Harder than Reference,D,j,riskyDeck,safeDeck,0,28,14,left,1,0,60,present,riskyDeck,462,322
rlh54dvjgfm,13614,20/03/2022@22:50:36,"Mozilla/5.0 (Macintosh; Intel Mac OS X 10_15_7) AppleWebKit/537.36 (KHTML, like Gecko) Chrome/99.0.4844.51 Safari/537.36",1440,900,1440,702,main,1019677,133,17,15,EE,Extreme,Easier than Reference,D,k,riskyDeck,safeDeck,0,-14,-7,left,1,1,18,present,riskyDeck,458,335
rlh54dvjgfm,13614,20/03/2022@22:50:36,"Mozilla/5.0 (Macintosh; Intel Mac OS X 10_15_7) AppleWebKit/537.36 (KHTML, like Gecko) Chrome/99.0.4844.51 Safari/537.36",1440,900,1440,702,main,1019677,134,17,15,EM,Moderate,Easier than Reference,D,k,riskyDeck,safeDeck,0,-28,-14,left,1,1,32,present,riskyDeck,281,314
rlh54dvjgfm,13614,20/03/2022@22:50:36,"Mozilla/5.0 (Macintosh; Intel Mac OS X 10_15_7) AppleWebKit/537.36 (KHTML, like Gecko) Chrome/99.0.4844.51 Safari/537.36",1440,900,1440,702,main,1019677,135,17,15,HE,Extreme,Harder than Reference,F,k,safeDeck,riskyDeck,0,28,14,right,1,0,60,absent,riskyDeck,472,380
rlh54dvjgfm,13614,20/03/2022@22:50:36,"Mozilla/5.0 (Macintosh; Intel Mac OS X 10_15_7) AppleWebKit/537.36 (KHTML, like Gecko) Chrome/99.0.4844.51 Safari/537.36",1440,900,1440,702,main,1019677,136,17,15,HM,Moderate,Harder than Reference,F,k,safeDeck,riskyDeck,14,0,7,right,1,0,32,absent,riskyDeck,508,305
rlh54dvjgfm,13614,20/03/2022@22:50:36,"Mozilla/5.0 (Macintosh; Intel Mac OS X 10_15_7) AppleWebKit/537.36 (KHTML, like Gecko) Chrome/99.0.4844.51 Safari/537.36",1440,900,1440,702,main,1019677,137,17,16,HM,Moderate,Harder than Reference,D,j,riskyDeck,safeDeck,14,0,7,left,1,1,32,absent,riskyDeck,407,308
rlh54dvjgfm,13614,20/03/2022@22:50:36,"Mozilla/5.0 (Macintosh; Intel Mac OS X 10_15_7) AppleWebKit/537.36 (KHTML, like Gecko) Chrome/99.0.4844.51 Safari/537.36",1440,900,1440,702,main,1019677,138,17,16,EE,Extreme,Easier than Reference,D,j,riskyDeck,safeDeck,0,-14,-7,left,1,1,18,absent,riskyDeck,269,269
rlh54dvjgfm,13614,20/03/2022@22:50:36,"Mozilla/5.0 (Macintosh; Intel Mac OS X 10_15_7) AppleWebKit/537.36 (KHTML, like Gecko) Chrome/99.0.4844.51 Safari/537.36",1440,900,1440,702,main,1019677,139,17,16,EM,Moderate,Easier than Reference,F,j,safeDeck,riskyDeck,0,-28,-14,right,1,0,32,present,riskyDeck,478,408
rlh54dvjgfm,13614,20/03/2022@22:50:36,"Mozilla/5.0 (Macintosh; Intel Mac OS X 10_15_7) AppleWebKit/537.36 (KHTML, like Gecko) Chrome/99.0.4844.51 Safari/537.36",1440,900,1440,702,main,1019677,140,17,16,HE,Extreme,Harder than Reference,D,k,riskyDeck,safeDeck,0,28,14,left,1,1,32,present,riskyDeck,336,309
rlh54dvjgfm,13614,20/03/2022@22:50:36,"Mozilla/5.0 (Macintosh; Intel Mac OS X 10_15_7) AppleWebKit/537.36 (KHTML, like Gecko) Chrome/99.0.4844.51 Safari/537.36",1440,900,1440,702,main,1019677,141,17,16,EE,Extreme,Easier than Reference,D,j,riskyDeck,safeDeck,-14,0,-7,left,1,1,32,absent,riskyDeck,322,264
rlh54dvjgfm,13614,20/03/2022@22:50:36,"Mozilla/5.0 (Macintosh; Intel Mac OS X 10_15_7) AppleWebKit/537.36 (KHTML, like Gecko) Chrome/99.0.4844.51 Safari/537.36",1440,900,1440,702,main,1019677,142,17,16,HE,Extreme,Harder than Reference,D,k,riskyDeck,safeDeck,0,28,14,left,1,1,60,present,riskyDeck,411,311
rlh54dvjgfm,13614,20/03/2022@22:50:36,"Mozilla/5.0 (Macintosh; Intel Mac OS X 10_15_7) AppleWebKit/537.36 (KHTML, like Gecko) Chrome/99.0.4844.51 Safari/537.36",1440,900,1440,702,main,1019677,143,18,16,EM,Moderate,Easier than Reference,D,k,riskyDeck,safeDeck,0,-28,-14,left,1,1,4,present,riskyDeck,334,312
rlh54dvjgfm,13614,20/03/2022@22:50:36,"Mozilla/5.0 (Macintosh; Intel Mac OS X 10_15_7) AppleWebKit/537.36 (KHTML, like Gecko) Chrome/99.0.4844.51 Safari/537.36",1440,900,1440,702,main,1019677,144,18,16,HM,Moderate,Harder than Reference,F,j,safeDeck,riskyDeck,0,14,7,right,1,1,46,absent,riskyDeck,481,359
rlh54dvjgfm,13614,20/03/2022@22:50:36,"Mozilla/5.0 (Macintosh; Intel Mac OS X 10_15_7) AppleWebKit/537.36 (KHTML, like Gecko) Chrome/99.0.4844.51 Safari/537.36",1440,900,1440,702,main,1019677,145,18,16,EM,Moderate,Easier than Reference,D,k,riskyDeck,safeDeck,0,-28,-14,left,1,1,32,present,riskyDeck,396,336
rlh54dvjgfm,13614,20/03/2022@22:50:36,"Mozilla/5.0 (Macintosh; Intel Mac OS X 10_15_7) AppleWebKit/537.36 (KHTML, like Gecko) Chrome/99.0.4844.51 Safari/537.36",1440,900,1440,702,main,1019677,146,18,16,HM,Moderate,Harder than Reference,D,k,riskyDeck,safeDeck,0,14,7,left,1,0,32,absent,riskyDeck,301,476
rlh54dvjgfm,13614,20/03/2022@22:50:36,"Mozilla/5.0 (Macintosh; Intel Mac OS X 10_15_7) AppleWebKit/537.36 (KHTML, like Gecko) Chrome/99.0.4844.51 Safari/537.36",1440,900,1440,702,main,1019677,147,18,16,EE,Extreme,Easier than Reference,D,k,riskyDeck,safeDeck,-14,0,-7,left,1,1,18,present,riskyDeck,403,378
rlh54dvjgfm,13614,20/03/2022@22:50:36,"Mozilla/5.0 (Macintosh; Intel Mac OS X 10_15_7) AppleWebKit/537.36 (KHTML, like Gecko) Chrome/99.0.4844.51 Safari/537.36",1440,900,1440,702,main,1019677,148,18,17,HE,Extreme,Harder than Reference,F,k,safeDeck,riskyDeck,0,28,14,right,1,1,32,present,riskyDeck,573,761
rlh54dvjgfm,13614,20/03/2022@22:50:36,"Mozilla/5.0 (Macintosh; Intel Mac OS X 10_15_7) AppleWebKit/537.36 (KHTML, like Gecko) Chrome/99.0.4844.51 Safari/537.36",1440,900,1440,702,main,1019677,149,18,17,EM,Moderate,Easier than Reference,F,j,safeDeck,riskyDeck,0,-28,-14,right,1,1,32,absent,riskyDeck,513,325
rlh54dvjgfm,13614,20/03/2022@22:50:36,"Mozilla/5.0 (Macintosh; Intel Mac OS X 10_15_7) AppleWebKit/537.36 (KHTML, like Gecko) Chrome/99.0.4844.51 Safari/537.36",1440,900,1440,702,main,1019677,150,18,17,HM,Moderate,Harder than Reference,F,j,safeDeck,riskyDeck,0,14,7,right,1,0,32,present,riskyDeck,529,369
rlh54dvjgfm,13614,20/03/2022@22:50:36,"Mozilla/5.0 (Macintosh; Intel Mac OS X 10_15_7) AppleWebKit/537.36 (KHTML, like Gecko) Chrome/99.0.4844.51 Safari/537.36",1440,900,1440,702,main,1019677,151,18,17,HE,Extreme,Harder than Reference,F,k,safeDeck,riskyDeck,0,28,14,right,1,1,60,present,riskyDeck,469,288
rlh54dvjgfm,13614,20/03/2022@22:50:36,"Mozilla/5.0 (Macintosh; Intel Mac OS X 10_15_7) AppleWebKit/537.36 (KHTML, like Gecko) Chrome/99.0.4844.51 Safari/537.36",1440,900,1440,702,main,1019677,152,18,17,EE,Extreme,Easier than Reference,F,j,safeDeck,riskyDeck,0,-14,-7,right,1,1,32,absent,riskyDeck,433,374
r31oari8p6,13494,21/03/2022@11:18:34,"Mozilla/5.0 (Macintosh; Intel Mac OS X 10_14_6) AppleWebKit/537.36 (KHTML, like Gecko) Chrome/98.0.4758.109 Safari/537.36",1440,900,1235,700,main,1220757,1,4,3,EM,Moderate,Easier than Reference,D,j,safeDeck,riskyDeck,-28,0,-14,left,0,0,18,present,safeDeck,3973,1575
r31oari8p6,13494,21/03/2022@11:18:34,"Mozilla/5.0 (Macintosh; Intel Mac OS X 10_14_6) AppleWebKit/537.36 (KHTML, like Gecko) Chrome/98.0.4758.109 Safari/537.36",1440,900,1235,700,main,1220757,2,4,3,HM,Moderate,Harder than Reference,D,j,riskyDeck,safeDeck,14,0,7,left,1,0,32,present,riskyDeck,5884,1309
r31oari8p6,13494,21/03/2022@11:18:34,"Mozilla/5.0 (Macintosh; Intel Mac OS X 10_14_6) AppleWebKit/537.36 (KHTML, like Gecko) Chrome/98.0.4758.109 Safari/537.36",1440,900,1235,700,main,1220757,3,5,3,EE,Extreme,Easier than Reference,D,j,riskyDeck,safeDeck,-14,0,-7,left,1,0,32,present,riskyDeck,2548,3024
r31oari8p6,13494,21/03/2022@11:18:34,"Mozilla/5.0 (Macintosh; Intel Mac OS X 10_14_6) AppleWebKit/537.36 (KHTML, like Gecko) Chrome/98.0.4758.109 Safari/537.36",1440,900,1235,700,main,1220757,4,5,3,HE,Extreme,Harder than Reference,D,j,safeDeck,riskyDeck,0,28,14,left,0,0,46,present,safeDeck,2412,2366
r31oari8p6,13494,21/03/2022@11:18:34,"Mozilla/5.0 (Macintosh; Intel Mac OS X 10_14_6) AppleWebKit/537.36 (KHTML, like Gecko) Chrome/98.0.4758.109 Safari/537.36",1440,900,1235,700,main,1220757,5,5,3,EE,Extreme,Easier than Reference,F,k,riskyDeck,safeDeck,-14,0,-7,right,0,0,25,absent,safeDeck,2801,2663
r31oari8p6,13494,21/03/2022@11:18:34,"Mozilla/5.0 (Macintosh; Intel Mac OS X 10_14_6) AppleWebKit/537.36 (KHTML, like Gecko) Chrome/98.0.4758.109 Safari/537.36",1440,900,1235,700,main,1220757,6,5,3,HM,Moderate,Harder than Reference,D,k,riskyDeck,safeDeck,0,14,7,left,1,0,32,absent,riskyDeck,2444,3271
r31oari8p6,13494,21/03/2022@11:18:34,"Mozilla/5.0 (Macintosh; Intel Mac OS X 10_14_6) AppleWebKit/537.36 (KHTML, like Gecko) Chrome/98.0.4758.109 Safari/537.36",1440,900,1235,700,main,1220757,7,5,3,HE,Extreme,Harder than Reference,F,k,riskyDeck,safeDeck,0,28,14,right,0,0,46,absent,safeDeck,916,4632
r31oari8p6,13494,21/03/2022@11:18:34,"Mozilla/5.0 (Macintosh; Intel Mac OS X 10_14_6) AppleWebKit/537.36 (KHTML, like Gecko) Chrome/98.0.4758.109 Safari/537.36",1440,900,1235,700,main,1220757,8,5,3,EM,Moderate,Easier than Reference,D,j,safeDeck,riskyDeck,0,-28,-14,left,0,0,18,present,safeDeck,1230,1142
r31oari8p6,13494,21/03/2022@11:18:34,"Mozilla/5.0 (Macintosh; Intel Mac OS X 10_14_6) AppleWebKit/537.36 (KHTML, like Gecko) Chrome/98.0.4758.109 Safari/537.36",1440,900,1235,700,main,1220757,9,5,3,EM,Moderate,Easier than Reference,D,k,riskyDeck,safeDeck,-28,0,-14,left,1,0,4,absent,riskyDeck,1464,923
r31oari8p6,13494,21/03/2022@11:18:34,"Mozilla/5.0 (Macintosh; Intel Mac OS X 10_14_6) AppleWebKit/537.36 (KHTML, like Gecko) Chrome/98.0.4758.109 Safari/537.36",1440,900,1235,700,main,1220757,10,5,4,HM,Moderate,Harder than Reference,D,k,safeDeck,riskyDeck,14,0,7,left,0,0,39,absent,safeDeck,1437,2867
r31oari8p6,13494,21/03/2022@11:18:34,"Mozilla/5.0 (Macintosh; Intel Mac OS X 10_14_6) AppleWebKit/537.36 (KHTML, like Gecko) Chrome/98.0.4758.109 Safari/537.36",1440,900,1235,700,main,1220757,11,5,4,EE,Extreme,Easier than Reference,D,k,riskyDeck,safeDeck,0,-14,-7,left,1,0,32,absent,riskyDeck,4260,3140
r31oari8p6,13494,21/03/2022@11:18:34,"Mozilla/5.0 (Macintosh; Intel Mac OS X 10_14_6) AppleWebKit/537.36 (KHTML, like Gecko) Chrome/98.0.4758.109 Safari/537.36",1440,900,1235,700,main,1220757,12,6,4,HE,Extreme,Harder than Reference,D,k,safeDeck,riskyDeck,0,28,14,left,0,0,46,absent,safeDeck,1604,5480
r31oari8p6,13494,21/03/2022@11:18:34,"Mozilla/5.0 (Macintosh; Intel Mac OS X 10_14_6) AppleWebKit/537.36 (KHTML, like Gecko) Chrome/98.0.4758.109 Safari/537.36",1440,900,1235,700,main,1220757,13,6,4,HE,Extreme,Harder than Reference,F,k,riskyDeck,safeDeck,28,0,14,right,0,0,46,absent,safeDeck,652,3321
r31oari8p6,13494,21/03/2022@11:18:34,"Mozilla/5.0 (Macintosh; Intel Mac OS X 10_14_6) AppleWebKit/537.36 (KHTML, like Gecko) Chrome/98.0.4758.109 Safari/537.36",1440,900,1235,700,main,1220757,14,6,4,HM,Moderate,Harder than Reference,D,k,safeDeck,riskyDeck,0,14,7,left,0,0,39,absent,safeDeck,747,3808
r31oari8p6,13494,21/03/2022@11:18:34,"Mozilla/5.0 (Macintosh; Intel Mac OS X 10_14_6) AppleWebKit/537.36 (KHTML, like Gecko) Chrome/98.0.4758.109 Safari/537.36",1440,900,1235,700,main,1220757,15,6,4,EM,Moderate,Easier than Reference,D,k,safeDeck,riskyDeck,-28,0,-14,left,0,0,18,absent,safeDeck,1586,2079
r31oari8p6,13494,21/03/2022@11:18:34,"Mozilla/5.0 (Macintosh; Intel Mac OS X 10_14_6) AppleWebKit/537.36 (KHTML, like Gecko) Chrome/98.0.4758.109 Safari/537.36",1440,900,1235,700,main,1220757,16,6,4,EE,Extreme,Easier than Reference,F,k,safeDeck,riskyDeck,-14,0,-7,right,1,0,18,absent,riskyDeck,1033,1891
r31oari8p6,13494,21/03/2022@11:18:34,"Mozilla/5.0 (Macintosh; Intel Mac OS X 10_14_6) AppleWebKit/537.36 (KHTML, like Gecko) Chrome/98.0.4758.109 Safari/537.36",1440,900,1235,700,main,1220757,17,6,4,EM,Moderate,Easier than Reference,F,k,safeDeck,riskyDeck,-28,0,-14,right,1,0,32,absent,riskyDeck,1552,2452
r31oari8p6,13494,21/03/2022@11:18:34,"Mozilla/5.0 (Macintosh; Intel Mac OS X 10_14_6) AppleWebKit/537.36 (KHTML, like Gecko) Chrome/98.0.4758.109 Safari/537.36",1440,900,1235,700,main,1220757,18,6,4,EE,Extreme,Easier than Reference,F,j,safeDeck,riskyDeck,-14,0,-7,right,1,0,32,present,riskyDeck,952,2852
r31oari8p6,13494,21/03/2022@11:18:34,"Mozilla/5.0 (Macintosh; Intel Mac OS X 10_14_6) AppleWebKit/537.36 (KHTML, like Gecko) Chrome/98.0.4758.109 Safari/537.36",1440,900,1235,700,main,1220757,19,6,4,HE,Extreme,Harder than Reference,D,k,safeDeck,riskyDeck,0,28,14,left,0,0,46,absent,safeDeck,1963,4613
r31oari8p6,13494,21/03/2022@11:18:34,"Mozilla/5.0 (Macintosh; Intel Mac OS X 10_14_6) AppleWebKit/537.36 (KHTML, like Gecko) Chrome/98.0.4758.109 Safari/537.36",1440,900,1235,700,main,1220757,20,6,5,HM,Moderate,Harder than Reference,F,j,safeDeck,riskyDeck,0,14,7,right,1,0,46,present,riskyDeck,1647,1010
r31oari8p6,13494,21/03/2022@11:18:34,"Mozilla/5.0 (Macintosh; Intel Mac OS X 10_14_6) AppleWebKit/537.36 (KHTML, like Gecko) Chrome/98.0.4758.109 Safari/537.36",1440,900,1235,700,main,1220757,21,6,5,EE,Extreme,Easier than Reference,F,k,safeDeck,riskyDeck,0,-14,-7,right,1,0,18,absent,riskyDeck,961,1368
r31oari8p6,13494,21/03/2022@11:18:34,"Mozilla/5.0 (Macintosh; Intel Mac OS X 10_14_6) AppleWebKit/537.36 (KHTML, like Gecko) Chrome/98.0.4758.109 Safari/537.36",1440,900,1235,700,main,1220757,22,7,5,EM,Moderate,Easier than Reference,F,k,safeDeck,riskyDeck,0,-28,-14,right,1,0,4,absent,riskyDeck,1424,898
r31oari8p6,13494,21/03/2022@11:18:34,"Mozilla/5.0 (Macintosh; Intel Mac OS X 10_14_6) AppleWebKit/537.36 (KHTML, like Gecko) Chrome/98.0.4758.109 Safari/537.36",1440,900,1235,700,main,1220757,23,7,5,HM,Moderate,Harder than Reference,D,k,riskyDeck,safeDeck,0,14,7,left,1,0,32,absent,riskyDeck,1718,2874
r31oari8p6,13494,21/03/2022@11:18:34,"Mozilla/5.0 (Macintosh; Intel Mac OS X 10_14_6) AppleWebKit/537.36 (KHTML, like Gecko) Chrome/98.0.4758.109 Safari/537.36",1440,900,1235,700,main,1220757,24,7,5,HE,Extreme,Harder than Reference,D,k,safeDeck,riskyDeck,28,0,14,left,0,0,46,absent,safeDeck,1999,3950
r31oari8p6,13494,21/03/2022@11:18:34,"Mozilla/5.0 (Macintosh; Intel Mac OS X 10_14_6) AppleWebKit/537.36 (KHTML, like Gecko) Chrome/98.0.4758.109 Safari/537.36",1440,900,1235,700,main,1220757,25,7,5,EE,Extreme,Easier than Reference,F,k,safeDeck,riskyDeck,0,-14,-7,right,1,0,32,absent,riskyDeck,1016,3202
r31oari8p6,13494,21/03/2022@11:18:34,"Mozilla/5.0 (Macintosh; Intel Mac OS X 10_14_6) AppleWebKit/537.36 (KHTML, like Gecko) Chrome/98.0.4758.109 Safari/537.36",1440,900,1235,700,main,1220757,26,7,5,HM,Moderate,Harder than Reference,F,j,riskyDeck,safeDeck,14,0,7,right,0,0,39,present,safeDeck,1217,2769
r31oari8p6,13494,21/03/2022@11:18:34,"Mozilla/5.0 (Macintosh; Intel Mac OS X 10_14_6) AppleWebKit/537.36 (KHTML, like Gecko) Chrome/98.0.4758.109 Safari/537.36",1440,900,1235,700,main,1220757,27,7,5,EM,Moderate,Easier than Reference,F,k,safeDeck,riskyDeck,0,-28,-14,right,1,0,4,absent,riskyDeck,1043,895
