"subject","choice_rt_m","choice_rt_sd","sona_id","curTime","userAgent","screenWidth","screenHeight","windowWidth","windowHeight","phase","phase_run_time","trial","exp_runtime_mins","phase_runtime_mins","condition","magnitude","direction","choice_response_key","search_response_key","left_deck_id","right_deck_id","risky_deck_outcome_top","risky_deck_outcome_bottom","safe_deck_outcome","selected_deck_location","selectedRiskyDeck","error","n_stimuli","present_or_absent","chosenDeckId","choice_rt","search_rt","selected_deck_location_num","ssd"
"1ngp7r1zkjh",831,266.176857005447,13398,"21/03/2022@19:30:26","Mozilla/5.0 (Windows NT 10.0; Win64; x64) AppleWebKit/537.36 (KHTML, like Gecko) Chrome/99.0.4844.82 Safari/537.36",1536,864,1536,746,"main",1002913,2,4,3,"EE","Extreme","Easier than Reference","F","k","safeDeck","riskyDeck",-14,0,-7,"right",1,0,18,"absent","riskyDeck",846,3062,1,0
"1ngp7r1zkjh",831,266.176857005447,13398,"21/03/2022@19:30:26","Mozilla/5.0 (Windows NT 10.0; Win64; x64) AppleWebKit/537.36 (KHTML, like Gecko) Chrome/99.0.4844.82 Safari/537.36",1536,864,1536,746,"main",1002913,4,4,3,"HE","Extreme","Harder than Reference","D","k","riskyDeck","safeDeck",0,28,14,"left",1,0,60,"absent","riskyDeck",1024,6313,-1,0
"1ngp7r1zkjh",831,266.176857005447,13398,"21/03/2022@19:30:26","Mozilla/5.0 (Windows NT 10.0; Win64; x64) AppleWebKit/537.36 (KHTML, like Gecko) Chrome/99.0.4844.82 Safari/537.36",1536,864,1536,746,"main",1002913,5,4,3,"EM","Moderate","Easier than Reference","F","j","safeDeck","riskyDeck",0,-28,-14,"right",1,0,4,"present","riskyDeck",978,1136,1,0
"1ngp7r1zkjh",831,266.176857005447,13398,"21/03/2022@19:30:26","Mozilla/5.0 (Windows NT 10.0; Win64; x64) AppleWebKit/537.36 (KHTML, like Gecko) Chrome/99.0.4844.82 Safari/537.36",1536,864,1536,746,"main",1002913,7,4,3,"EE","Extreme","Easier than Reference","D","j","riskyDeck","safeDeck",0,-14,-7,"left",1,0,18,"present","riskyDeck",1214,900,-1,0
"1ngp7r1zkjh",831,266.176857005447,13398,"21/03/2022@19:30:26","Mozilla/5.0 (Windows NT 10.0; Win64; x64) AppleWebKit/537.36 (KHTML, like Gecko) Chrome/99.0.4844.82 Safari/537.36",1536,864,1536,746,"main",1002913,8,4,3,"HM","Moderate","Harder than Reference","F","j","safeDeck","riskyDeck",0,14,7,"right",1,0,32,"present","riskyDeck",1187,2460,1,0
"1ngp7r1zkjh",831,266.176857005447,13398,"21/03/2022@19:30:26","Mozilla/5.0 (Windows NT 10.0; Win64; x64) AppleWebKit/537.36 (KHTML, like Gecko) Chrome/99.0.4844.82 Safari/537.36",1536,864,1536,746,"main",1002913,9,4,3,"HM","Moderate","Harder than Reference","D","j","riskyDeck","safeDeck",14,0,7,"left",1,0,32,"present","riskyDeck",948,1130,-1,0
"1ngp7r1zkjh",831,266.176857005447,13398,"21/03/2022@19:30:26","Mozilla/5.0 (Windows NT 10.0; Win64; x64) AppleWebKit/537.36 (KHTML, like Gecko) Chrome/99.0.4844.82 Safari/537.36",1536,864,1536,746,"main",1002913,10,4,3,"EM","Moderate","Easier than Reference","F","j","safeDeck","riskyDeck",0,-28,-14,"right",1,0,4,"present","riskyDeck",828,596,1,0
"1ngp7r1zkjh",831,266.176857005447,13398,"21/03/2022@19:30:26","Mozilla/5.0 (Windows NT 10.0; Win64; x64) AppleWebKit/537.36 (KHTML, like Gecko) Chrome/99.0.4844.82 Safari/537.36",1536,864,1536,746,"main",1002913,11,5,4,"EE","Extreme","Easier than Reference","F","k","safeDeck","riskyDeck",-14,0,-7,"right",1,0,18,"absent","riskyDeck",946,3280,1,0
"1ngp7r1zkjh",831,266.176857005447,13398,"21/03/2022@19:30:26","Mozilla/5.0 (Windows NT 10.0; Win64; x64) AppleWebKit/537.36 (KHTML, like Gecko) Chrome/99.0.4844.82 Safari/537.36",1536,864,1536,746,"main",1002913,12,5,4,"HE","Extreme","Harder than Reference","D","k","riskyDeck","safeDeck",0,28,14,"left",1,0,60,"absent","riskyDeck",988,6386,-1,0
"1ngp7r1zkjh",831,266.176857005447,13398,"21/03/2022@19:30:26","Mozilla/5.0 (Windows NT 10.0; Win64; x64) AppleWebKit/537.36 (KHTML, like Gecko) Chrome/99.0.4844.82 Safari/537.36",1536,864,1536,746,"main",1002913,13,5,4,"EE","Extreme","Easier than Reference","D","k","riskyDeck","safeDeck",-14,0,-7,"left",1,0,32,"absent","riskyDeck",872,4035,-1,0
"1ngp7r1zkjh",831,266.176857005447,13398,"21/03/2022@19:30:26","Mozilla/5.0 (Windows NT 10.0; Win64; x64) AppleWebKit/537.36 (KHTML, like Gecko) Chrome/99.0.4844.82 Safari/537.36",1536,864,1536,746,"main",1002913,14,5,4,"EM","Moderate","Easier than Reference","F","k","safeDeck","riskyDeck",-28,0,-14,"right",1,0,4,"absent","riskyDeck",872,849,1,0
"1ngp7r1zkjh",831,266.176857005447,13398,"21/03/2022@19:30:26","Mozilla/5.0 (Windows NT 10.0; Win64; x64) AppleWebKit/537.36 (KHTML, like Gecko) Chrome/99.0.4844.82 Safari/537.36",1536,864,1536,746,"main",1002913,15,5,4,"HM","Moderate","Harder than Reference","D","k","riskyDeck","safeDeck",0,14,7,"left",1,0,46,"absent","riskyDeck",1146,4524,-1,0
"1ngp7r1zkjh",831,266.176857005447,13398,"21/03/2022@19:30:26","Mozilla/5.0 (Windows NT 10.0; Win64; x64) AppleWebKit/537.36 (KHTML, like Gecko) Chrome/99.0.4844.82 Safari/537.36",1536,864,1536,746,"main",1002913,16,5,4,"HE","Extreme","Harder than Reference","D","j","riskyDeck","safeDeck",28,0,14,"left",1,0,32,"present","riskyDeck",941,1768,-1,0
"1ngp7r1zkjh",831,266.176857005447,13398,"21/03/2022@19:30:26","Mozilla/5.0 (Windows NT 10.0; Win64; x64) AppleWebKit/537.36 (KHTML, like Gecko) Chrome/99.0.4844.82 Safari/537.36",1536,864,1536,746,"main",1002913,18,5,4,"EE","Extreme","Easier than Reference","D","k","riskyDeck","safeDeck",-14,0,-7,"left",1,0,32,"absent","riskyDeck",1044,4888,-1,0
"1ngp7r1zkjh",831,266.176857005447,13398,"21/03/2022@19:30:26","Mozilla/5.0 (Windows NT 10.0; Win64; x64) AppleWebKit/537.36 (KHTML, like Gecko) Chrome/99.0.4844.82 Safari/537.36",1536,864,1536,746,"main",1002913,19,5,4,"EM","Moderate","Easier than Reference","F","j","safeDeck","riskyDeck",0,-28,-14,"right",1,0,32,"present","riskyDeck",749,1139,1,0
"1ngp7r1zkjh",831,266.176857005447,13398,"21/03/2022@19:30:26","Mozilla/5.0 (Windows NT 10.0; Win64; x64) AppleWebKit/537.36 (KHTML, like Gecko) Chrome/99.0.4844.82 Safari/537.36",1536,864,1536,746,"main",1002913,20,6,4,"HE","Extreme","Harder than Reference","F","k","safeDeck","riskyDeck",28,0,14,"right",1,0,32,"absent","riskyDeck",847,3049,1,0
"1ngp7r1zkjh",831,266.176857005447,13398,"21/03/2022@19:30:26","Mozilla/5.0 (Windows NT 10.0; Win64; x64) AppleWebKit/537.36 (KHTML, like Gecko) Chrome/99.0.4844.82 Safari/537.36",1536,864,1536,746,"main",1002913,21,6,5,"EE","Extreme","Easier than Reference","F","k","safeDeck","riskyDeck",-14,0,-7,"right",1,0,18,"absent","riskyDeck",529,2338,1,0
"1ngp7r1zkjh",831,266.176857005447,13398,"21/03/2022@19:30:26","Mozilla/5.0 (Windows NT 10.0; Win64; x64) AppleWebKit/537.36 (KHTML, like Gecko) Chrome/99.0.4844.82 Safari/537.36",1536,864,1536,746,"main",1002913,22,6,5,"HM","Moderate","Harder than Reference","D","j","riskyDeck","safeDeck",0,14,7,"left",1,0,32,"present","riskyDeck",875,1996,-1,0
"1ngp7r1zkjh",831,266.176857005447,13398,"21/03/2022@19:30:26","Mozilla/5.0 (Windows NT 10.0; Win64; x64) AppleWebKit/537.36 (KHTML, like Gecko) Chrome/99.0.4844.82 Safari/537.36",1536,864,1536,746,"main",1002913,23,6,5,"EM","Moderate","Easier than Reference","F","k","safeDeck","riskyDeck",-28,0,-14,"right",1,0,4,"absent","riskyDeck",1006,1212,1,0
"1ngp7r1zkjh",831,266.176857005447,13398,"21/03/2022@19:30:26","Mozilla/5.0 (Windows NT 10.0; Win64; x64) AppleWebKit/537.36 (KHTML, like Gecko) Chrome/99.0.4844.82 Safari/537.36",1536,864,1536,746,"main",1002913,24,6,5,"HE","Extreme","Harder than Reference","F","k","safeDeck","riskyDeck",0,28,14,"right",1,0,60,"absent","riskyDeck",699,7347,1,0
"1ngp7r1zkjh",831,266.176857005447,13398,"21/03/2022@19:30:26","Mozilla/5.0 (Windows NT 10.0; Win64; x64) AppleWebKit/537.36 (KHTML, like Gecko) Chrome/99.0.4844.82 Safari/537.36",1536,864,1536,746,"main",1002913,25,6,5,"HE","Extreme","Harder than Reference","D","j","riskyDeck","safeDeck",0,28,14,"left",1,0,60,"present","riskyDeck",857,1480,-1,0
"1ngp7r1zkjh",831,266.176857005447,13398,"21/03/2022@19:30:26","Mozilla/5.0 (Windows NT 10.0; Win64; x64) AppleWebKit/537.36 (KHTML, like Gecko) Chrome/99.0.4844.82 Safari/537.36",1536,864,1536,746,"main",1002913,26,6,5,"EE","Extreme","Easier than Reference","F","j","safeDeck","riskyDeck",-14,0,-7,"right",1,0,32,"present","riskyDeck",858,2568,1,0
"1ngp7r1zkjh",831,266.176857005447,13398,"21/03/2022@19:30:26","Mozilla/5.0 (Windows NT 10.0; Win64; x64) AppleWebKit/537.36 (KHTML, like Gecko) Chrome/99.0.4844.82 Safari/537.36",1536,864,1536,746,"main",1002913,27,6,5,"HM","Moderate","Harder than Reference","F","j","safeDeck","riskyDeck",0,14,7,"right",1,0,46,"present","riskyDeck",682,3855,1,0
"1ngp7r1zkjh",831,266.176857005447,13398,"21/03/2022@19:30:26","Mozilla/5.0 (Windows NT 10.0; Win64; x64) AppleWebKit/537.36 (KHTML, like Gecko) Chrome/99.0.4844.82 Safari/537.36",1536,864,1536,746,"main",1002913,28,6,5,"EM","Moderate","Easier than Reference","F","k","safeDeck","riskyDeck",0,-28,-14,"right",1,0,4,"absent","riskyDeck",506,582,1,0
"1ngp7r1zkjh",831,266.176857005447,13398,"21/03/2022@19:30:26","Mozilla/5.0 (Windows NT 10.0; Win64; x64) AppleWebKit/537.36 (KHTML, like Gecko) Chrome/99.0.4844.82 Safari/537.36",1536,864,1536,746,"main",1002913,30,6,5,"HM","Moderate","Harder than Reference","F","k","safeDeck","riskyDeck",0,14,7,"right",1,0,46,"absent","riskyDeck",754,5111,1,0
"1ngp7r1zkjh",831,266.176857005447,13398,"21/03/2022@19:30:26","Mozilla/5.0 (Windows NT 10.0; Win64; x64) AppleWebKit/537.36 (KHTML, like Gecko) Chrome/99.0.4844.82 Safari/537.36",1536,864,1536,746,"main",1002913,31,7,6,"HE","Extreme","Harder than Reference","D","k","riskyDeck","safeDeck",28,0,14,"left",1,0,60,"absent","riskyDeck",1101,6039,-1,0
"1ngp7r1zkjh",831,266.176857005447,13398,"21/03/2022@19:30:26","Mozilla/5.0 (Windows NT 10.0; Win64; x64) AppleWebKit/537.36 (KHTML, like Gecko) Chrome/99.0.4844.82 Safari/537.36",1536,864,1536,746,"main",1002913,32,7,6,"EM","Moderate","Easier than Reference","D","k","riskyDeck","safeDeck",0,-28,-14,"left",1,0,4,"absent","riskyDeck",870,1364,-1,0
"1ngp7r1zkjh",831,266.176857005447,13398,"21/03/2022@19:30:26","Mozilla/5.0 (Windows NT 10.0; Win64; x64) AppleWebKit/537.36 (KHTML, like Gecko) Chrome/99.0.4844.82 Safari/537.36",1536,864,1536,746,"main",1002913,33,7,6,"EM","Moderate","Easier than Reference","D","j","riskyDeck","safeDeck",0,-28,-14,"left",1,0,4,"present","riskyDeck",901,947,-1,0
"1ngp7r1zkjh",831,266.176857005447,13398,"21/03/2022@19:30:26","Mozilla/5.0 (Windows NT 10.0; Win64; x64) AppleWebKit/537.36 (KHTML, like Gecko) Chrome/99.0.4844.82 Safari/537.36",1536,864,1536,746,"main",1002913,34,7,6,"EE","Extreme","Easier than Reference","D","k","riskyDeck","safeDeck",-14,0,-7,"left",1,0,32,"absent","riskyDeck",954,4056,-1,0
"1ngp7r1zkjh",831,266.176857005447,13398,"21/03/2022@19:30:26","Mozilla/5.0 (Windows NT 10.0; Win64; x64) AppleWebKit/537.36 (KHTML, like Gecko) Chrome/99.0.4844.82 Safari/537.36",1536,864,1536,746,"main",1002913,35,7,6,"HM","Moderate","Harder than Reference","D","j","riskyDeck","safeDeck",14,0,7,"left",1,0,46,"present","riskyDeck",936,1796,-1,0
"1ngp7r1zkjh",831,266.176857005447,13398,"21/03/2022@19:30:26","Mozilla/5.0 (Windows NT 10.0; Win64; x64) AppleWebKit/537.36 (KHTML, like Gecko) Chrome/99.0.4844.82 Safari/537.36",1536,864,1536,746,"main",1002913,36,7,6,"HE","Extreme","Harder than Reference","D","j","riskyDeck","safeDeck",28,0,14,"left",1,0,60,"present","riskyDeck",699,7099,-1,0
"1ngp7r1zkjh",831,266.176857005447,13398,"21/03/2022@19:30:26","Mozilla/5.0 (Windows NT 10.0; Win64; x64) AppleWebKit/537.36 (KHTML, like Gecko) Chrome/99.0.4844.82 Safari/537.36",1536,864,1536,746,"main",1002913,37,7,6,"EE","Extreme","Easier than Reference","F","j","safeDeck","riskyDeck",-14,0,-7,"right",1,0,18,"present","riskyDeck",935,891,1,0
"1ngp7r1zkjh",831,266.176857005447,13398,"21/03/2022@19:30:26","Mozilla/5.0 (Windows NT 10.0; Win64; x64) AppleWebKit/537.36 (KHTML, like Gecko) Chrome/99.0.4844.82 Safari/537.36",1536,864,1536,746,"main",1002913,38,7,6,"HM","Moderate","Harder than Reference","D","j","riskyDeck","safeDeck",14,0,7,"left",1,0,32,"present","riskyDeck",643,2547,-1,0
"1ngp7r1zkjh",831,266.176857005447,13398,"21/03/2022@19:30:26","Mozilla/5.0 (Windows NT 10.0; Win64; x64) AppleWebKit/537.36 (KHTML, like Gecko) Chrome/99.0.4844.82 Safari/537.36",1536,864,1536,746,"main",1002913,39,7,6,"HE","Extreme","Harder than Reference","F","j","safeDeck","riskyDeck",0,28,14,"right",1,0,32,"present","riskyDeck",1183,2790,1,0
"1ngp7r1zkjh",831,266.176857005447,13398,"21/03/2022@19:30:26","Mozilla/5.0 (Windows NT 10.0; Win64; x64) AppleWebKit/537.36 (KHTML, like Gecko) Chrome/99.0.4844.82 Safari/537.36",1536,864,1536,746,"main",1002913,40,8,6,"EM","Moderate","Easier than Reference","D","k","riskyDeck","safeDeck",0,-28,-14,"left",1,0,32,"absent","riskyDeck",820,3684,-1,0
"1ngp7r1zkjh",831,266.176857005447,13398,"21/03/2022@19:30:26","Mozilla/5.0 (Windows NT 10.0; Win64; x64) AppleWebKit/537.36 (KHTML, like Gecko) Chrome/99.0.4844.82 Safari/537.36",1536,864,1536,746,"main",1002913,41,8,7,"EE","Extreme","Easier than Reference","F","k","safeDeck","riskyDeck",0,-14,-7,"right",1,0,32,"absent","riskyDeck",649,4829,1,0
"1ngp7r1zkjh",831,266.176857005447,13398,"21/03/2022@19:30:26","Mozilla/5.0 (Windows NT 10.0; Win64; x64) AppleWebKit/537.36 (KHTML, like Gecko) Chrome/99.0.4844.82 Safari/537.36",1536,864,1536,746,"main",1002913,42,8,7,"EM","Moderate","Easier than Reference","D","j","riskyDeck","safeDeck",0,-28,-14,"left",1,0,32,"present","riskyDeck",726,3129,-1,0
"1ngp7r1zkjh",831,266.176857005447,13398,"21/03/2022@19:30:26","Mozilla/5.0 (Windows NT 10.0; Win64; x64) AppleWebKit/537.36 (KHTML, like Gecko) Chrome/99.0.4844.82 Safari/537.36",1536,864,1536,746,"main",1002913,43,8,7,"HM","Moderate","Harder than Reference","F","j","safeDeck","riskyDeck",14,0,7,"right",1,0,32,"present","riskyDeck",604,2807,1,0
"1ngp7r1zkjh",831,266.176857005447,13398,"21/03/2022@19:30:26","Mozilla/5.0 (Windows NT 10.0; Win64; x64) AppleWebKit/537.36 (KHTML, like Gecko) Chrome/99.0.4844.82 Safari/537.36",1536,864,1536,746,"main",1002913,44,8,7,"HE","Extreme","Harder than Reference","F","k","safeDeck","riskyDeck",0,28,14,"right",1,0,32,"absent","riskyDeck",885,5524,1,0
"1ngp7r1zkjh",831,266.176857005447,13398,"21/03/2022@19:30:26","Mozilla/5.0 (Windows NT 10.0; Win64; x64) AppleWebKit/537.36 (KHTML, like Gecko) Chrome/99.0.4844.82 Safari/537.36",1536,864,1536,746,"main",1002913,45,8,7,"HE","Extreme","Harder than Reference","F","j","safeDeck","riskyDeck",0,28,14,"right",1,0,60,"present","riskyDeck",692,1855,1,0
"1ngp7r1zkjh",831,266.176857005447,13398,"21/03/2022@19:30:26","Mozilla/5.0 (Windows NT 10.0; Win64; x64) AppleWebKit/537.36 (KHTML, like Gecko) Chrome/99.0.4844.82 Safari/537.36",1536,864,1536,746,"main",1002913,46,8,7,"EE","Extreme","Easier than Reference","F","j","safeDeck","riskyDeck",0,-14,-7,"right",1,0,32,"present","riskyDeck",1261,1760,1,0
"1ngp7r1zkjh",831,266.176857005447,13398,"21/03/2022@19:30:26","Mozilla/5.0 (Windows NT 10.0; Win64; x64) AppleWebKit/537.36 (KHTML, like Gecko) Chrome/99.0.4844.82 Safari/537.36",1536,864,1536,746,"main",1002913,47,8,7,"EM","Moderate","Easier than Reference","D","j","riskyDeck","safeDeck",0,-28,-14,"left",1,0,32,"present","riskyDeck",678,3293,-1,0
"1ngp7r1zkjh",831,266.176857005447,13398,"21/03/2022@19:30:26","Mozilla/5.0 (Windows NT 10.0; Win64; x64) AppleWebKit/537.36 (KHTML, like Gecko) Chrome/99.0.4844.82 Safari/537.36",1536,864,1536,746,"main",1002913,48,8,7,"HM","Moderate","Harder than Reference","F","j","safeDeck","riskyDeck",0,14,7,"right",1,0,32,"present","riskyDeck",1277,921,1,0
"1ngp7r1zkjh",831,266.176857005447,13398,"21/03/2022@19:30:26","Mozilla/5.0 (Windows NT 10.0; Win64; x64) AppleWebKit/537.36 (KHTML, like Gecko) Chrome/99.0.4844.82 Safari/537.36",1536,864,1536,746,"main",1002913,49,8,7,"EE","Extreme","Easier than Reference","D","j","riskyDeck","safeDeck",-14,0,-7,"left",1,0,32,"present","riskyDeck",699,831,-1,0
"1ngp7r1zkjh",831,266.176857005447,13398,"21/03/2022@19:30:26","Mozilla/5.0 (Windows NT 10.0; Win64; x64) AppleWebKit/537.36 (KHTML, like Gecko) Chrome/99.0.4844.82 Safari/537.36",1536,864,1536,746,"main",1002913,50,8,7,"HE","Extreme","Harder than Reference","F","k","safeDeck","riskyDeck",28,0,14,"right",1,0,60,"absent","riskyDeck",754,5126,1,0
"1ngp7r1zkjh",831,266.176857005447,13398,"21/03/2022@19:30:26","Mozilla/5.0 (Windows NT 10.0; Win64; x64) AppleWebKit/537.36 (KHTML, like Gecko) Chrome/99.0.4844.82 Safari/537.36",1536,864,1536,746,"main",1002913,51,9,7,"HM","Moderate","Harder than Reference","F","j","safeDeck","riskyDeck",0,14,7,"right",1,0,46,"present","riskyDeck",848,2027,1,0
"1ngp7r1zkjh",831,266.176857005447,13398,"21/03/2022@19:30:26","Mozilla/5.0 (Windows NT 10.0; Win64; x64) AppleWebKit/537.36 (KHTML, like Gecko) Chrome/99.0.4844.82 Safari/537.36",1536,864,1536,746,"main",1002913,52,9,8,"EM","Moderate","Easier than Reference","D","k","riskyDeck","safeDeck",-28,0,-14,"left",1,0,32,"absent","riskyDeck",1357,3753,-1,0
"1ngp7r1zkjh",831,266.176857005447,13398,"21/03/2022@19:30:26","Mozilla/5.0 (Windows NT 10.0; Win64; x64) AppleWebKit/537.36 (KHTML, like Gecko) Chrome/99.0.4844.82 Safari/537.36",1536,864,1536,746,"main",1002913,53,9,8,"EE","Extreme","Easier than Reference","F","k","safeDeck","riskyDeck",-14,0,-7,"right",1,0,32,"absent","riskyDeck",696,3425,1,0
"1ngp7r1zkjh",831,266.176857005447,13398,"21/03/2022@19:30:26","Mozilla/5.0 (Windows NT 10.0; Win64; x64) AppleWebKit/537.36 (KHTML, like Gecko) Chrome/99.0.4844.82 Safari/537.36",1536,864,1536,746,"main",1002913,54,9,8,"HM","Moderate","Harder than Reference","D","j","riskyDeck","safeDeck",14,0,7,"left",1,0,46,"present","riskyDeck",629,1256,-1,0
"1ngp7r1zkjh",831,266.176857005447,13398,"21/03/2022@19:30:26","Mozilla/5.0 (Windows NT 10.0; Win64; x64) AppleWebKit/537.36 (KHTML, like Gecko) Chrome/99.0.4844.82 Safari/537.36",1536,864,1536,746,"main",1002913,55,9,8,"EM","Moderate","Easier than Reference","F","j","safeDeck","riskyDeck",0,-28,-14,"right",1,0,4,"present","riskyDeck",636,748,1,0
"1ngp7r1zkjh",831,266.176857005447,13398,"21/03/2022@19:30:26","Mozilla/5.0 (Windows NT 10.0; Win64; x64) AppleWebKit/537.36 (KHTML, like Gecko) Chrome/99.0.4844.82 Safari/537.36",1536,864,1536,746,"main",1002913,56,9,8,"HE","Extreme","Harder than Reference","D","k","riskyDeck","safeDeck",0,28,14,"left",1,0,32,"absent","riskyDeck",615,3286,-1,0
"1ngp7r1zkjh",831,266.176857005447,13398,"21/03/2022@19:30:26","Mozilla/5.0 (Windows NT 10.0; Win64; x64) AppleWebKit/537.36 (KHTML, like Gecko) Chrome/99.0.4844.82 Safari/537.36",1536,864,1536,746,"main",1002913,57,9,8,"HE","Extreme","Harder than Reference","D","k","riskyDeck","safeDeck",0,28,14,"left",1,0,60,"absent","riskyDeck",651,6439,-1,0
"1ngp7r1zkjh",831,266.176857005447,13398,"21/03/2022@19:30:26","Mozilla/5.0 (Windows NT 10.0; Win64; x64) AppleWebKit/537.36 (KHTML, like Gecko) Chrome/99.0.4844.82 Safari/537.36",1536,864,1536,746,"main",1002913,58,9,8,"EM","Moderate","Easier than Reference","D","j","riskyDeck","safeDeck",-28,0,-14,"left",1,0,32,"present","riskyDeck",730,2080,-1,0
"1ngp7r1zkjh",831,266.176857005447,13398,"21/03/2022@19:30:26","Mozilla/5.0 (Windows NT 10.0; Win64; x64) AppleWebKit/537.36 (KHTML, like Gecko) Chrome/99.0.4844.82 Safari/537.36",1536,864,1536,746,"main",1002913,59,9,8,"EE","Extreme","Easier than Reference","D","j","riskyDeck","safeDeck",-14,0,-7,"left",1,0,32,"present","riskyDeck",1044,1807,-1,0
"1ngp7r1zkjh",831,266.176857005447,13398,"21/03/2022@19:30:26","Mozilla/5.0 (Windows NT 10.0; Win64; x64) AppleWebKit/537.36 (KHTML, like Gecko) Chrome/99.0.4844.82 Safari/537.36",1536,864,1536,746,"main",1002913,60,9,8,"HM","Moderate","Harder than Reference","F","k","safeDeck","riskyDeck",0,14,7,"right",1,0,32,"absent","riskyDeck",872,3992,1,0
"1ngp7r1zkjh",831,266.176857005447,13398,"21/03/2022@19:30:26","Mozilla/5.0 (Windows NT 10.0; Win64; x64) AppleWebKit/537.36 (KHTML, like Gecko) Chrome/99.0.4844.82 Safari/537.36",1536,864,1536,746,"main",1002913,61,9,8,"HE","Extreme","Harder than Reference","F","j","safeDeck","riskyDeck",0,28,14,"right",1,0,32,"present","riskyDeck",847,2152,1,0
"1ngp7r1zkjh",831,266.176857005447,13398,"21/03/2022@19:30:26","Mozilla/5.0 (Windows NT 10.0; Win64; x64) AppleWebKit/537.36 (KHTML, like Gecko) Chrome/99.0.4844.82 Safari/537.36",1536,864,1536,746,"main",1002913,62,10,8,"EM","Moderate","Easier than Reference","D","k","riskyDeck","safeDeck",-28,0,-14,"left",1,0,32,"absent","riskyDeck",762,2562,-1,0
"1ngp7r1zkjh",831,266.176857005447,13398,"21/03/2022@19:30:26","Mozilla/5.0 (Windows NT 10.0; Win64; x64) AppleWebKit/537.36 (KHTML, like Gecko) Chrome/99.0.4844.82 Safari/537.36",1536,864,1536,746,"main",1002913,63,10,8,"EE","Extreme","Easier than Reference","D","j","riskyDeck","safeDeck",-14,0,-7,"left",1,0,18,"present","riskyDeck",572,1173,-1,0
"1ngp7r1zkjh",831,266.176857005447,13398,"21/03/2022@19:30:26","Mozilla/5.0 (Windows NT 10.0; Win64; x64) AppleWebKit/537.36 (KHTML, like Gecko) Chrome/99.0.4844.82 Safari/537.36",1536,864,1536,746,"main",1002913,64,10,9,"HM","Moderate","Harder than Reference","D","k","riskyDeck","safeDeck",0,14,7,"left",1,0,32,"absent","riskyDeck",961,2482,-1,0
"1ngp7r1zkjh",831,266.176857005447,13398,"21/03/2022@19:30:26","Mozilla/5.0 (Windows NT 10.0; Win64; x64) AppleWebKit/537.36 (KHTML, like Gecko) Chrome/99.0.4844.82 Safari/537.36",1536,864,1536,746,"main",1002913,65,10,9,"HE","Extreme","Harder than Reference","D","j","riskyDeck","safeDeck",0,28,14,"left",1,0,32,"present","riskyDeck",631,1394,-1,0
"1ngp7r1zkjh",831,266.176857005447,13398,"21/03/2022@19:30:26","Mozilla/5.0 (Windows NT 10.0; Win64; x64) AppleWebKit/537.36 (KHTML, like Gecko) Chrome/99.0.4844.82 Safari/537.36",1536,864,1536,746,"main",1002913,66,10,9,"EE","Extreme","Easier than Reference","D","k","riskyDeck","safeDeck",-14,0,-7,"left",1,0,18,"absent","riskyDeck",679,1963,-1,0
"1ngp7r1zkjh",831,266.176857005447,13398,"21/03/2022@19:30:26","Mozilla/5.0 (Windows NT 10.0; Win64; x64) AppleWebKit/537.36 (KHTML, like Gecko) Chrome/99.0.4844.82 Safari/537.36",1536,864,1536,746,"main",1002913,67,10,9,"HM","Moderate","Harder than Reference","F","k","safeDeck","riskyDeck",14,0,7,"right",1,0,32,"absent","riskyDeck",717,3145,1,0
"1ngp7r1zkjh",831,266.176857005447,13398,"21/03/2022@19:30:26","Mozilla/5.0 (Windows NT 10.0; Win64; x64) AppleWebKit/537.36 (KHTML, like Gecko) Chrome/99.0.4844.82 Safari/537.36",1536,864,1536,746,"main",1002913,68,10,9,"EM","Moderate","Easier than Reference","F","k","safeDeck","riskyDeck",0,-28,-14,"right",1,0,4,"absent","riskyDeck",583,1095,1,0
"1ngp7r1zkjh",831,266.176857005447,13398,"21/03/2022@19:30:26","Mozilla/5.0 (Windows NT 10.0; Win64; x64) AppleWebKit/537.36 (KHTML, like Gecko) Chrome/99.0.4844.82 Safari/537.36",1536,864,1536,746,"main",1002913,69,10,9,"HM","Moderate","Harder than Reference","F","k","safeDeck","riskyDeck",14,0,7,"right",1,0,46,"absent","riskyDeck",711,3674,1,0
"1ngp7r1zkjh",831,266.176857005447,13398,"21/03/2022@19:30:26","Mozilla/5.0 (Windows NT 10.0; Win64; x64) AppleWebKit/537.36 (KHTML, like Gecko) Chrome/99.0.4844.82 Safari/537.36",1536,864,1536,746,"main",1002913,70,10,9,"EM","Moderate","Easier than Reference","F","k","safeDeck","riskyDeck",-28,0,-14,"right",1,1,32,"present","riskyDeck",627,3877,1,0
"1ngp7r1zkjh",831,266.176857005447,13398,"21/03/2022@19:30:26","Mozilla/5.0 (Windows NT 10.0; Win64; x64) AppleWebKit/537.36 (KHTML, like Gecko) Chrome/99.0.4844.82 Safari/537.36",1536,864,1536,746,"main",1002913,71,10,9,"HE","Extreme","Harder than Reference","F","j","safeDeck","riskyDeck",0,28,14,"right",1,0,32,"present","riskyDeck",742,2133,1,0
"1ngp7r1zkjh",831,266.176857005447,13398,"21/03/2022@19:30:26","Mozilla/5.0 (Windows NT 10.0; Win64; x64) AppleWebKit/537.36 (KHTML, like Gecko) Chrome/99.0.4844.82 Safari/537.36",1536,864,1536,746,"main",1002913,72,10,9,"EE","Extreme","Easier than Reference","F","k","safeDeck","riskyDeck",-14,0,-7,"right",1,0,18,"absent","riskyDeck",799,2134,1,0
"1ngp7r1zkjh",831,266.176857005447,13398,"21/03/2022@19:30:26","Mozilla/5.0 (Windows NT 10.0; Win64; x64) AppleWebKit/537.36 (KHTML, like Gecko) Chrome/99.0.4844.82 Safari/537.36",1536,864,1536,746,"main",1002913,73,10,9,"EM","Moderate","Easier than Reference","D","k","riskyDeck","safeDeck",-28,0,-14,"left",1,0,4,"absent","riskyDeck",1130,803,-1,0
"1ngp7r1zkjh",831,266.176857005447,13398,"21/03/2022@19:30:26","Mozilla/5.0 (Windows NT 10.0; Win64; x64) AppleWebKit/537.36 (KHTML, like Gecko) Chrome/99.0.4844.82 Safari/537.36",1536,864,1536,746,"main",1002913,74,11,9,"EE","Extreme","Easier than Reference","D","k","riskyDeck","safeDeck",-14,0,-7,"left",1,0,18,"absent","riskyDeck",859,3225,-1,0
"1ngp7r1zkjh",831,266.176857005447,13398,"21/03/2022@19:30:26","Mozilla/5.0 (Windows NT 10.0; Win64; x64) AppleWebKit/537.36 (KHTML, like Gecko) Chrome/99.0.4844.82 Safari/537.36",1536,864,1536,746,"main",1002913,75,11,9,"HM","Moderate","Harder than Reference","D","j","riskyDeck","safeDeck",14,0,7,"left",1,0,32,"present","riskyDeck",582,1004,-1,0
"1ngp7r1zkjh",831,266.176857005447,13398,"21/03/2022@19:30:26","Mozilla/5.0 (Windows NT 10.0; Win64; x64) AppleWebKit/537.36 (KHTML, like Gecko) Chrome/99.0.4844.82 Safari/537.36",1536,864,1536,746,"main",1002913,76,11,10,"HE","Extreme","Harder than Reference","D","k","riskyDeck","safeDeck",0,28,14,"left",1,0,60,"absent","riskyDeck",960,6381,-1,0
"1ngp7r1zkjh",831,266.176857005447,13398,"21/03/2022@19:30:26","Mozilla/5.0 (Windows NT 10.0; Win64; x64) AppleWebKit/537.36 (KHTML, like Gecko) Chrome/99.0.4844.82 Safari/537.36",1536,864,1536,746,"main",1002913,77,11,10,"EM","Moderate","Easier than Reference","D","j","riskyDeck","safeDeck",0,-28,-14,"left",1,0,4,"present","riskyDeck",850,739,-1,0
"1ngp7r1zkjh",831,266.176857005447,13398,"21/03/2022@19:30:26","Mozilla/5.0 (Windows NT 10.0; Win64; x64) AppleWebKit/537.36 (KHTML, like Gecko) Chrome/99.0.4844.82 Safari/537.36",1536,864,1536,746,"main",1002913,78,11,10,"EE","Extreme","Easier than Reference","D","k","riskyDeck","safeDeck",-14,0,-7,"left",1,0,18,"absent","riskyDeck",724,2558,-1,0
"1ngp7r1zkjh",831,266.176857005447,13398,"21/03/2022@19:30:26","Mozilla/5.0 (Windows NT 10.0; Win64; x64) AppleWebKit/537.36 (KHTML, like Gecko) Chrome/99.0.4844.82 Safari/537.36",1536,864,1536,746,"main",1002913,79,11,10,"HM","Moderate","Harder than Reference","D","j","riskyDeck","safeDeck",0,14,7,"left",1,0,46,"present","riskyDeck",623,1435,-1,0
"1ngp7r1zkjh",831,266.176857005447,13398,"21/03/2022@19:30:26","Mozilla/5.0 (Windows NT 10.0; Win64; x64) AppleWebKit/537.36 (KHTML, like Gecko) Chrome/99.0.4844.82 Safari/537.36",1536,864,1536,746,"main",1002913,80,11,10,"HE","Extreme","Harder than Reference","D","k","riskyDeck","safeDeck",28,0,14,"left",1,0,60,"absent","riskyDeck",506,6832,-1,0
"1ngp7r1zkjh",831,266.176857005447,13398,"21/03/2022@19:30:26","Mozilla/5.0 (Windows NT 10.0; Win64; x64) AppleWebKit/537.36 (KHTML, like Gecko) Chrome/99.0.4844.82 Safari/537.36",1536,864,1536,746,"main",1002913,81,11,10,"EE","Extreme","Easier than Reference","D","j","safeDeck","riskyDeck",-14,0,-7,"left",0,0,25,"present","safeDeck",1067,1602,-1,1
"1ngp7r1zkjh",831,266.176857005447,13398,"21/03/2022@19:30:26","Mozilla/5.0 (Windows NT 10.0; Win64; x64) AppleWebKit/537.36 (KHTML, like Gecko) Chrome/99.0.4844.82 Safari/537.36",1536,864,1536,746,"main",1002913,82,11,10,"EM","Moderate","Easier than Reference","F","j","safeDeck","riskyDeck",0,-28,-14,"right",1,0,4,"present","riskyDeck",716,651,1,0
"1ngp7r1zkjh",831,266.176857005447,13398,"21/03/2022@19:30:26","Mozilla/5.0 (Windows NT 10.0; Win64; x64) AppleWebKit/537.36 (KHTML, like Gecko) Chrome/99.0.4844.82 Safari/537.36",1536,864,1536,746,"main",1002913,83,11,10,"HE","Extreme","Harder than Reference","F","k","safeDeck","riskyDeck",28,0,14,"right",1,0,60,"absent","riskyDeck",728,5593,1,0
"1ngp7r1zkjh",831,266.176857005447,13398,"21/03/2022@19:30:26","Mozilla/5.0 (Windows NT 10.0; Win64; x64) AppleWebKit/537.36 (KHTML, like Gecko) Chrome/99.0.4844.82 Safari/537.36",1536,864,1536,746,"main",1002913,84,12,10,"HM","Moderate","Harder than Reference","D","j","riskyDeck","safeDeck",0,14,7,"left",1,0,32,"present","riskyDeck",627,2954,-1,0
"1ngp7r1zkjh",831,266.176857005447,13398,"21/03/2022@19:30:26","Mozilla/5.0 (Windows NT 10.0; Win64; x64) AppleWebKit/537.36 (KHTML, like Gecko) Chrome/99.0.4844.82 Safari/537.36",1536,864,1536,746,"main",1002913,85,12,11,"EM","Moderate","Easier than Reference","D","j","riskyDeck","safeDeck",0,-28,-14,"left",1,0,32,"present","riskyDeck",946,3450,-1,0
"1ngp7r1zkjh",831,266.176857005447,13398,"21/03/2022@19:30:26","Mozilla/5.0 (Windows NT 10.0; Win64; x64) AppleWebKit/537.36 (KHTML, like Gecko) Chrome/99.0.4844.82 Safari/537.36",1536,864,1536,746,"main",1002913,86,12,11,"HE","Extreme","Harder than Reference","D","j","riskyDeck","safeDeck",28,0,14,"left",1,0,60,"present","riskyDeck",706,6903,-1,0
"1ngp7r1zkjh",831,266.176857005447,13398,"21/03/2022@19:30:26","Mozilla/5.0 (Windows NT 10.0; Win64; x64) AppleWebKit/537.36 (KHTML, like Gecko) Chrome/99.0.4844.82 Safari/537.36",1536,864,1536,746,"main",1002913,87,12,11,"EE","Extreme","Easier than Reference","D","j","riskyDeck","safeDeck",0,-14,-7,"left",1,0,32,"present","riskyDeck",460,820,-1,0
"1ngp7r1zkjh",831,266.176857005447,13398,"21/03/2022@19:30:26","Mozilla/5.0 (Windows NT 10.0; Win64; x64) AppleWebKit/537.36 (KHTML, like Gecko) Chrome/99.0.4844.82 Safari/537.36",1536,864,1536,746,"main",1002913,88,12,11,"HM","Moderate","Harder than Reference","F","j","safeDeck","riskyDeck",14,0,7,"right",1,0,32,"present","riskyDeck",1084,1065,1,0
"1ngp7r1zkjh",831,266.176857005447,13398,"21/03/2022@19:30:26","Mozilla/5.0 (Windows NT 10.0; Win64; x64) AppleWebKit/537.36 (KHTML, like Gecko) Chrome/99.0.4844.82 Safari/537.36",1536,864,1536,746,"main",1002913,89,12,11,"HE","Extreme","Harder than Reference","F","k","safeDeck","riskyDeck",0,28,14,"right",1,0,32,"absent","riskyDeck",1317,4903,1,0
"1ngp7r1zkjh",831,266.176857005447,13398,"21/03/2022@19:30:26","Mozilla/5.0 (Windows NT 10.0; Win64; x64) AppleWebKit/537.36 (KHTML, like Gecko) Chrome/99.0.4844.82 Safari/537.36",1536,864,1536,746,"main",1002913,90,12,11,"EM","Moderate","Easier than Reference","F","k","safeDeck","riskyDeck",-28,0,-14,"right",1,0,4,"absent","riskyDeck",833,1432,1,0
"1ngp7r1zkjh",831,266.176857005447,13398,"21/03/2022@19:30:26","Mozilla/5.0 (Windows NT 10.0; Win64; x64) AppleWebKit/537.36 (KHTML, like Gecko) Chrome/99.0.4844.82 Safari/537.36",1536,864,1536,746,"main",1002913,91,12,11,"HM","Moderate","Harder than Reference","F","k","safeDeck","riskyDeck",14,0,7,"right",1,0,32,"absent","riskyDeck",683,4455,1,0
"1ngp7r1zkjh",831,266.176857005447,13398,"21/03/2022@19:30:26","Mozilla/5.0 (Windows NT 10.0; Win64; x64) AppleWebKit/537.36 (KHTML, like Gecko) Chrome/99.0.4844.82 Safari/537.36",1536,864,1536,746,"main",1002913,92,12,11,"EE","Extreme","Easier than Reference","D","j","riskyDeck","safeDeck",0,-14,-7,"left",1,0,32,"present","riskyDeck",809,1169,-1,0
"1ngp7r1zkjh",831,266.176857005447,13398,"21/03/2022@19:30:26","Mozilla/5.0 (Windows NT 10.0; Win64; x64) AppleWebKit/537.36 (KHTML, like Gecko) Chrome/99.0.4844.82 Safari/537.36",1536,864,1536,746,"main",1002913,93,12,11,"EM","Moderate","Easier than Reference","D","j","riskyDeck","safeDeck",0,-28,-14,"left",1,0,32,"present","riskyDeck",726,1306,-1,0
"1ngp7r1zkjh",831,266.176857005447,13398,"21/03/2022@19:30:26","Mozilla/5.0 (Windows NT 10.0; Win64; x64) AppleWebKit/537.36 (KHTML, like Gecko) Chrome/99.0.4844.82 Safari/537.36",1536,864,1536,746,"main",1002913,94,12,11,"HM","Moderate","Harder than Reference","D","k","riskyDeck","safeDeck",0,14,7,"left",1,0,46,"absent","riskyDeck",731,4888,-1,0
"1ngp7r1zkjh",831,266.176857005447,13398,"21/03/2022@19:30:26","Mozilla/5.0 (Windows NT 10.0; Win64; x64) AppleWebKit/537.36 (KHTML, like Gecko) Chrome/99.0.4844.82 Safari/537.36",1536,864,1536,746,"main",1002913,95,13,11,"EE","Extreme","Easier than Reference","F","j","safeDeck","riskyDeck",-14,0,-7,"right",1,0,18,"present","riskyDeck",630,1578,1,0
"1ngp7r1zkjh",831,266.176857005447,13398,"21/03/2022@19:30:26","Mozilla/5.0 (Windows NT 10.0; Win64; x64) AppleWebKit/537.36 (KHTML, like Gecko) Chrome/99.0.4844.82 Safari/537.36",1536,864,1536,746,"main",1002913,96,13,12,"HE","Extreme","Harder than Reference","D","j","riskyDeck","safeDeck",28,0,14,"left",1,0,60,"present","riskyDeck",514,893,-1,0
"1ngp7r1zkjh",831,266.176857005447,13398,"21/03/2022@19:30:26","Mozilla/5.0 (Windows NT 10.0; Win64; x64) AppleWebKit/537.36 (KHTML, like Gecko) Chrome/99.0.4844.82 Safari/537.36",1536,864,1536,746,"main",1002913,97,13,12,"HE","Extreme","Harder than Reference","D","j","riskyDeck","safeDeck",0,28,14,"left",1,0,60,"present","riskyDeck",731,6807,-1,0
"1ngp7r1zkjh",831,266.176857005447,13398,"21/03/2022@19:30:26","Mozilla/5.0 (Windows NT 10.0; Win64; x64) AppleWebKit/537.36 (KHTML, like Gecko) Chrome/99.0.4844.82 Safari/537.36",1536,864,1536,746,"main",1002913,98,13,12,"EE","Extreme","Easier than Reference","F","j","safeDeck","riskyDeck",-14,0,-7,"right",1,0,18,"present","riskyDeck",815,1156,1,0
"1ngp7r1zkjh",831,266.176857005447,13398,"21/03/2022@19:30:26","Mozilla/5.0 (Windows NT 10.0; Win64; x64) AppleWebKit/537.36 (KHTML, like Gecko) Chrome/99.0.4844.82 Safari/537.36",1536,864,1536,746,"main",1002913,99,13,12,"EM","Moderate","Easier than Reference","F","k","safeDeck","riskyDeck",-28,0,-14,"right",1,0,32,"absent","riskyDeck",794,3204,1,0
"1ngp7r1zkjh",831,266.176857005447,13398,"21/03/2022@19:30:26","Mozilla/5.0 (Windows NT 10.0; Win64; x64) AppleWebKit/537.36 (KHTML, like Gecko) Chrome/99.0.4844.82 Safari/537.36",1536,864,1536,746,"main",1002913,100,13,12,"HM","Moderate","Harder than Reference","D","k","riskyDeck","safeDeck",14,0,7,"left",1,1,46,"present","riskyDeck",721,5259,-1,0
"1ngp7r1zkjh",831,266.176857005447,13398,"21/03/2022@19:30:26","Mozilla/5.0 (Windows NT 10.0; Win64; x64) AppleWebKit/537.36 (KHTML, like Gecko) Chrome/99.0.4844.82 Safari/537.36",1536,864,1536,746,"main",1002913,101,13,12,"EE","Extreme","Easier than Reference","D","k","riskyDeck","safeDeck",0,-14,-7,"left",1,0,18,"absent","riskyDeck",708,2076,-1,0
"1ngp7r1zkjh",831,266.176857005447,13398,"21/03/2022@19:30:26","Mozilla/5.0 (Windows NT 10.0; Win64; x64) AppleWebKit/537.36 (KHTML, like Gecko) Chrome/99.0.4844.82 Safari/537.36",1536,864,1536,746,"main",1002913,102,13,12,"EM","Moderate","Easier than Reference","D","k","riskyDeck","safeDeck",-28,0,-14,"left",1,0,4,"absent","riskyDeck",618,787,-1,0
"1ngp7r1zkjh",831,266.176857005447,13398,"21/03/2022@19:30:26","Mozilla/5.0 (Windows NT 10.0; Win64; x64) AppleWebKit/537.36 (KHTML, like Gecko) Chrome/99.0.4844.82 Safari/537.36",1536,864,1536,746,"main",1002913,103,13,12,"HM","Moderate","Harder than Reference","F","k","safeDeck","riskyDeck",14,0,7,"right",1,0,46,"absent","riskyDeck",604,6420,1,0
"1ngp7r1zkjh",831,266.176857005447,13398,"21/03/2022@19:30:26","Mozilla/5.0 (Windows NT 10.0; Win64; x64) AppleWebKit/537.36 (KHTML, like Gecko) Chrome/99.0.4844.82 Safari/537.36",1536,864,1536,746,"main",1002913,104,13,12,"HE","Extreme","Harder than Reference","D","j","riskyDeck","safeDeck",28,0,14,"left",1,0,60,"present","riskyDeck",607,1117,-1,0
"1ngp7r1zkjh",831,266.176857005447,13398,"21/03/2022@19:30:26","Mozilla/5.0 (Windows NT 10.0; Win64; x64) AppleWebKit/537.36 (KHTML, like Gecko) Chrome/99.0.4844.82 Safari/537.36",1536,864,1536,746,"main",1002913,105,14,12,"HM","Moderate","Harder than Reference","F","k","safeDeck","riskyDeck",14,0,7,"right",1,0,46,"absent","riskyDeck",691,4502,1,0
"1ngp7r1zkjh",831,266.176857005447,13398,"21/03/2022@19:30:26","Mozilla/5.0 (Windows NT 10.0; Win64; x64) AppleWebKit/537.36 (KHTML, like Gecko) Chrome/99.0.4844.82 Safari/537.36",1536,864,1536,746,"main",1002913,106,14,13,"EE","Extreme","Easier than Reference","F","j","safeDeck","riskyDeck",0,-14,-7,"right",1,0,32,"present","riskyDeck",683,761,1,0
"1ngp7r1zkjh",831,266.176857005447,13398,"21/03/2022@19:30:26","Mozilla/5.0 (Windows NT 10.0; Win64; x64) AppleWebKit/537.36 (KHTML, like Gecko) Chrome/99.0.4844.82 Safari/537.36",1536,864,1536,746,"main",1002913,107,14,13,"HE","Extreme","Harder than Reference","F","j","safeDeck","riskyDeck",0,28,14,"right",1,0,32,"present","riskyDeck",632,743,1,0
"1ngp7r1zkjh",831,266.176857005447,13398,"21/03/2022@19:30:26","Mozilla/5.0 (Windows NT 10.0; Win64; x64) AppleWebKit/537.36 (KHTML, like Gecko) Chrome/99.0.4844.82 Safari/537.36",1536,864,1536,746,"main",1002913,108,14,13,"EM","Moderate","Easier than Reference","F","k","safeDeck","riskyDeck",0,-28,-14,"right",1,0,32,"absent","riskyDeck",1191,4258,1,0
"1ngp7r1zkjh",831,266.176857005447,13398,"21/03/2022@19:30:26","Mozilla/5.0 (Windows NT 10.0; Win64; x64) AppleWebKit/537.36 (KHTML, like Gecko) Chrome/99.0.4844.82 Safari/537.36",1536,864,1536,746,"main",1002913,109,14,13,"EM","Moderate","Easier than Reference","F","j","safeDeck","riskyDeck",-28,0,-14,"right",1,0,4,"present","riskyDeck",644,563,1,0
"1ngp7r1zkjh",831,266.176857005447,13398,"21/03/2022@19:30:26","Mozilla/5.0 (Windows NT 10.0; Win64; x64) AppleWebKit/537.36 (KHTML, like Gecko) Chrome/99.0.4844.82 Safari/537.36",1536,864,1536,746,"main",1002913,110,14,13,"EE","Extreme","Easier than Reference","F","j","safeDeck","riskyDeck",0,-14,-7,"right",1,0,18,"present","riskyDeck",901,953,1,0
"1ngp7r1zkjh",831,266.176857005447,13398,"21/03/2022@19:30:26","Mozilla/5.0 (Windows NT 10.0; Win64; x64) AppleWebKit/537.36 (KHTML, like Gecko) Chrome/99.0.4844.82 Safari/537.36",1536,864,1536,746,"main",1002913,111,14,13,"HE","Extreme","Harder than Reference","D","j","riskyDeck","safeDeck",0,28,14,"left",1,0,60,"present","riskyDeck",1180,1492,-1,0
"1ngp7r1zkjh",831,266.176857005447,13398,"21/03/2022@19:30:26","Mozilla/5.0 (Windows NT 10.0; Win64; x64) AppleWebKit/537.36 (KHTML, like Gecko) Chrome/99.0.4844.82 Safari/537.36",1536,864,1536,746,"main",1002913,112,14,13,"HM","Moderate","Harder than Reference","D","k","riskyDeck","safeDeck",0,14,7,"left",1,0,46,"absent","riskyDeck",638,4493,-1,0
"1ngp7r1zkjh",831,266.176857005447,13398,"21/03/2022@19:30:26","Mozilla/5.0 (Windows NT 10.0; Win64; x64) AppleWebKit/537.36 (KHTML, like Gecko) Chrome/99.0.4844.82 Safari/537.36",1536,864,1536,746,"main",1002913,113,14,13,"EE","Extreme","Easier than Reference","D","k","riskyDeck","safeDeck",0,-14,-7,"left",1,0,32,"absent","riskyDeck",640,3273,-1,0
"1ngp7r1zkjh",831,266.176857005447,13398,"21/03/2022@19:30:26","Mozilla/5.0 (Windows NT 10.0; Win64; x64) AppleWebKit/537.36 (KHTML, like Gecko) Chrome/99.0.4844.82 Safari/537.36",1536,864,1536,746,"main",1002913,114,14,13,"HE","Extreme","Harder than Reference","D","j","riskyDeck","safeDeck",0,28,14,"left",1,0,60,"present","riskyDeck",747,5119,-1,0
"1ngp7r1zkjh",831,266.176857005447,13398,"21/03/2022@19:30:26","Mozilla/5.0 (Windows NT 10.0; Win64; x64) AppleWebKit/537.36 (KHTML, like Gecko) Chrome/99.0.4844.82 Safari/537.36",1536,864,1536,746,"main",1002913,115,14,13,"EM","Moderate","Easier than Reference","F","k","safeDeck","riskyDeck",-28,0,-14,"right",1,0,32,"absent","riskyDeck",825,3373,1,0
"1ngp7r1zkjh",831,266.176857005447,13398,"21/03/2022@19:30:26","Mozilla/5.0 (Windows NT 10.0; Win64; x64) AppleWebKit/537.36 (KHTML, like Gecko) Chrome/99.0.4844.82 Safari/537.36",1536,864,1536,746,"main",1002913,116,15,13,"HM","Moderate","Harder than Reference","D","j","riskyDeck","safeDeck",14,0,7,"left",1,0,32,"present","riskyDeck",849,2946,-1,0
"1ngp7r1zkjh",831,266.176857005447,13398,"21/03/2022@19:30:26","Mozilla/5.0 (Windows NT 10.0; Win64; x64) AppleWebKit/537.36 (KHTML, like Gecko) Chrome/99.0.4844.82 Safari/537.36",1536,864,1536,746,"main",1002913,117,15,14,"EE","Extreme","Easier than Reference","D","j","riskyDeck","safeDeck",-14,0,-7,"left",1,0,18,"present","riskyDeck",812,1484,-1,0
"1ngp7r1zkjh",831,266.176857005447,13398,"21/03/2022@19:30:26","Mozilla/5.0 (Windows NT 10.0; Win64; x64) AppleWebKit/537.36 (KHTML, like Gecko) Chrome/99.0.4844.82 Safari/537.36",1536,864,1536,746,"main",1002913,118,15,14,"HE","Extreme","Harder than Reference","F","k","safeDeck","riskyDeck",28,0,14,"right",1,0,32,"absent","riskyDeck",815,4297,1,0
"1ngp7r1zkjh",831,266.176857005447,13398,"21/03/2022@19:30:26","Mozilla/5.0 (Windows NT 10.0; Win64; x64) AppleWebKit/537.36 (KHTML, like Gecko) Chrome/99.0.4844.82 Safari/537.36",1536,864,1536,746,"main",1002913,119,15,14,"HM","Moderate","Harder than Reference","D","k","riskyDeck","safeDeck",14,0,7,"left",1,0,46,"absent","riskyDeck",711,5775,-1,0
"1ngp7r1zkjh",831,266.176857005447,13398,"21/03/2022@19:30:26","Mozilla/5.0 (Windows NT 10.0; Win64; x64) AppleWebKit/537.36 (KHTML, like Gecko) Chrome/99.0.4844.82 Safari/537.36",1536,864,1536,746,"main",1002913,120,15,14,"EM","Moderate","Easier than Reference","F","j","riskyDeck","safeDeck",0,-28,-14,"right",0,0,18,"present","safeDeck",910,860,1,1
"1ngp7r1zkjh",831,266.176857005447,13398,"21/03/2022@19:30:26","Mozilla/5.0 (Windows NT 10.0; Win64; x64) AppleWebKit/537.36 (KHTML, like Gecko) Chrome/99.0.4844.82 Safari/537.36",1536,864,1536,746,"main",1002913,122,15,14,"EM","Moderate","Easier than Reference","F","k","safeDeck","riskyDeck",0,-28,-14,"right",1,0,32,"absent","riskyDeck",863,3064,1,0
"1ngp7r1zkjh",831,266.176857005447,13398,"21/03/2022@19:30:26","Mozilla/5.0 (Windows NT 10.0; Win64; x64) AppleWebKit/537.36 (KHTML, like Gecko) Chrome/99.0.4844.82 Safari/537.36",1536,864,1536,746,"main",1002913,123,15,14,"HM","Moderate","Harder than Reference","D","j","riskyDeck","safeDeck",0,14,7,"left",1,0,46,"present","riskyDeck",766,2363,-1,0
"1ngp7r1zkjh",831,266.176857005447,13398,"21/03/2022@19:30:26","Mozilla/5.0 (Windows NT 10.0; Win64; x64) AppleWebKit/537.36 (KHTML, like Gecko) Chrome/99.0.4844.82 Safari/537.36",1536,864,1536,746,"main",1002913,124,15,14,"HE","Extreme","Harder than Reference","D","j","riskyDeck","safeDeck",0,28,14,"left",1,0,60,"present","riskyDeck",764,2189,-1,0
"1ngp7r1zkjh",831,266.176857005447,13398,"21/03/2022@19:30:26","Mozilla/5.0 (Windows NT 10.0; Win64; x64) AppleWebKit/537.36 (KHTML, like Gecko) Chrome/99.0.4844.82 Safari/537.36",1536,864,1536,746,"main",1002913,125,15,14,"EE","Extreme","Easier than Reference","F","j","safeDeck","riskyDeck",-14,0,-7,"right",1,0,18,"present","riskyDeck",655,1161,1,0
"1ngp7r1zkjh",831,266.176857005447,13398,"21/03/2022@19:30:26","Mozilla/5.0 (Windows NT 10.0; Win64; x64) AppleWebKit/537.36 (KHTML, like Gecko) Chrome/99.0.4844.82 Safari/537.36",1536,864,1536,746,"main",1002913,126,15,14,"EM","Moderate","Easier than Reference","F","j","safeDeck","riskyDeck",-28,0,-14,"right",1,0,32,"present","riskyDeck",757,657,1,0
"1ngp7r1zkjh",831,266.176857005447,13398,"21/03/2022@19:30:26","Mozilla/5.0 (Windows NT 10.0; Win64; x64) AppleWebKit/537.36 (KHTML, like Gecko) Chrome/99.0.4844.82 Safari/537.36",1536,864,1536,746,"main",1002913,127,16,14,"HM","Moderate","Harder than Reference","F","k","safeDeck","riskyDeck",0,14,7,"right",1,0,32,"absent","riskyDeck",771,2533,1,0
"1ngp7r1zkjh",831,266.176857005447,13398,"21/03/2022@19:30:26","Mozilla/5.0 (Windows NT 10.0; Win64; x64) AppleWebKit/537.36 (KHTML, like Gecko) Chrome/99.0.4844.82 Safari/537.36",1536,864,1536,746,"main",1002913,128,16,15,"HE","Extreme","Harder than Reference","F","k","safeDeck","riskyDeck",28,0,14,"right",1,0,32,"absent","riskyDeck",516,2436,1,0
"1ngp7r1zkjh",831,266.176857005447,13398,"21/03/2022@19:30:26","Mozilla/5.0 (Windows NT 10.0; Win64; x64) AppleWebKit/537.36 (KHTML, like Gecko) Chrome/99.0.4844.82 Safari/537.36",1536,864,1536,746,"main",1002913,129,16,15,"HE","Extreme","Harder than Reference","F","k","safeDeck","riskyDeck",0,28,14,"right",1,0,60,"absent","riskyDeck",699,5670,1,0
"1ngp7r1zkjh",831,266.176857005447,13398,"21/03/2022@19:30:26","Mozilla/5.0 (Windows NT 10.0; Win64; x64) AppleWebKit/537.36 (KHTML, like Gecko) Chrome/99.0.4844.82 Safari/537.36",1536,864,1536,746,"main",1002913,130,16,15,"HM","Moderate","Harder than Reference","F","j","riskyDeck","safeDeck",0,14,7,"right",0,0,39,"present","safeDeck",605,2354,1,1
"1ngp7r1zkjh",831,266.176857005447,13398,"21/03/2022@19:30:26","Mozilla/5.0 (Windows NT 10.0; Win64; x64) AppleWebKit/537.36 (KHTML, like Gecko) Chrome/99.0.4844.82 Safari/537.36",1536,864,1536,746,"main",1002913,131,16,15,"EE","Extreme","Easier than Reference","D","j","riskyDeck","safeDeck",0,-14,-7,"left",1,0,18,"present","riskyDeck",539,1359,-1,0
"1ngp7r1zkjh",831,266.176857005447,13398,"21/03/2022@19:30:26","Mozilla/5.0 (Windows NT 10.0; Win64; x64) AppleWebKit/537.36 (KHTML, like Gecko) Chrome/99.0.4844.82 Safari/537.36",1536,864,1536,746,"main",1002913,132,16,15,"EM","Moderate","Easier than Reference","D","k","riskyDeck","safeDeck",-28,0,-14,"left",1,0,4,"absent","riskyDeck",472,773,-1,0
"1ngp7r1zkjh",831,266.176857005447,13398,"21/03/2022@19:30:26","Mozilla/5.0 (Windows NT 10.0; Win64; x64) AppleWebKit/537.36 (KHTML, like Gecko) Chrome/99.0.4844.82 Safari/537.36",1536,864,1536,746,"main",1002913,133,16,15,"HE","Extreme","Harder than Reference","D","j","riskyDeck","safeDeck",0,28,14,"left",1,0,32,"present","riskyDeck",542,1014,-1,0
"1ngp7r1zkjh",831,266.176857005447,13398,"21/03/2022@19:30:26","Mozilla/5.0 (Windows NT 10.0; Win64; x64) AppleWebKit/537.36 (KHTML, like Gecko) Chrome/99.0.4844.82 Safari/537.36",1536,864,1536,746,"main",1002913,134,16,15,"HM","Moderate","Harder than Reference","D","k","riskyDeck","safeDeck",0,14,7,"left",1,0,32,"absent","riskyDeck",486,2727,-1,0
"1ngp7r1zkjh",831,266.176857005447,13398,"21/03/2022@19:30:26","Mozilla/5.0 (Windows NT 10.0; Win64; x64) AppleWebKit/537.36 (KHTML, like Gecko) Chrome/99.0.4844.82 Safari/537.36",1536,864,1536,746,"main",1002913,135,16,15,"EM","Moderate","Easier than Reference","D","k","riskyDeck","safeDeck",-28,0,-14,"left",1,0,4,"absent","riskyDeck",632,631,-1,0
"1ngp7r1zkjh",831,266.176857005447,13398,"21/03/2022@19:30:26","Mozilla/5.0 (Windows NT 10.0; Win64; x64) AppleWebKit/537.36 (KHTML, like Gecko) Chrome/99.0.4844.82 Safari/537.36",1536,864,1536,746,"main",1002913,136,16,15,"EE","Extreme","Easier than Reference","F","k","safeDeck","riskyDeck",-14,0,-7,"right",1,0,32,"absent","riskyDeck",721,3719,1,0
"1ngp7r1zkjh",831,266.176857005447,13398,"21/03/2022@19:30:26","Mozilla/5.0 (Windows NT 10.0; Win64; x64) AppleWebKit/537.36 (KHTML, like Gecko) Chrome/99.0.4844.82 Safari/537.36",1536,864,1536,746,"main",1002913,137,16,15,"EM","Moderate","Easier than Reference","F","j","safeDeck","riskyDeck",0,-28,-14,"right",1,0,32,"present","riskyDeck",752,1978,1,0
"1ngp7r1zkjh",831,266.176857005447,13398,"21/03/2022@19:30:26","Mozilla/5.0 (Windows NT 10.0; Win64; x64) AppleWebKit/537.36 (KHTML, like Gecko) Chrome/99.0.4844.82 Safari/537.36",1536,864,1536,746,"main",1002913,138,16,15,"HM","Moderate","Harder than Reference","D","j","safeDeck","riskyDeck",14,0,7,"left",0,0,39,"present","safeDeck",1059,4379,-1,1
"1ngp7r1zkjh",831,266.176857005447,13398,"21/03/2022@19:30:26","Mozilla/5.0 (Windows NT 10.0; Win64; x64) AppleWebKit/537.36 (KHTML, like Gecko) Chrome/99.0.4844.82 Safari/537.36",1536,864,1536,746,"main",1002913,139,17,15,"HE","Extreme","Harder than Reference","D","j","riskyDeck","safeDeck",28,0,14,"left",1,0,60,"present","riskyDeck",692,4962,-1,0
"1ngp7r1zkjh",831,266.176857005447,13398,"21/03/2022@19:30:26","Mozilla/5.0 (Windows NT 10.0; Win64; x64) AppleWebKit/537.36 (KHTML, like Gecko) Chrome/99.0.4844.82 Safari/537.36",1536,864,1536,746,"main",1002913,140,17,16,"EE","Extreme","Easier than Reference","D","j","riskyDeck","safeDeck",-14,0,-7,"left",1,0,18,"present","riskyDeck",625,845,-1,0
"1ngp7r1zkjh",831,266.176857005447,13398,"21/03/2022@19:30:26","Mozilla/5.0 (Windows NT 10.0; Win64; x64) AppleWebKit/537.36 (KHTML, like Gecko) Chrome/99.0.4844.82 Safari/537.36",1536,864,1536,746,"main",1002913,141,17,16,"HE","Extreme","Harder than Reference","D","j","riskyDeck","safeDeck",0,28,14,"left",1,0,32,"present","riskyDeck",797,2059,-1,0
"1ngp7r1zkjh",831,266.176857005447,13398,"21/03/2022@19:30:26","Mozilla/5.0 (Windows NT 10.0; Win64; x64) AppleWebKit/537.36 (KHTML, like Gecko) Chrome/99.0.4844.82 Safari/537.36",1536,864,1536,746,"main",1002913,142,17,16,"EM","Moderate","Easier than Reference","D","j","riskyDeck","safeDeck",-28,0,-14,"left",1,0,32,"present","riskyDeck",744,1722,-1,0
"1ngp7r1zkjh",831,266.176857005447,13398,"21/03/2022@19:30:26","Mozilla/5.0 (Windows NT 10.0; Win64; x64) AppleWebKit/537.36 (KHTML, like Gecko) Chrome/99.0.4844.82 Safari/537.36",1536,864,1536,746,"main",1002913,143,17,16,"HM","Moderate","Harder than Reference","D","k","riskyDeck","safeDeck",14,0,7,"left",1,0,46,"absent","riskyDeck",716,4639,-1,0
"1ngp7r1zkjh",831,266.176857005447,13398,"21/03/2022@19:30:26","Mozilla/5.0 (Windows NT 10.0; Win64; x64) AppleWebKit/537.36 (KHTML, like Gecko) Chrome/99.0.4844.82 Safari/537.36",1536,864,1536,746,"main",1002913,144,17,16,"EE","Extreme","Easier than Reference","F","k","safeDeck","riskyDeck",0,-14,-7,"right",1,0,32,"absent","riskyDeck",790,4775,1,0
"1ngp7r1zkjh",831,266.176857005447,13398,"21/03/2022@19:30:26","Mozilla/5.0 (Windows NT 10.0; Win64; x64) AppleWebKit/537.36 (KHTML, like Gecko) Chrome/99.0.4844.82 Safari/537.36",1536,864,1536,746,"main",1002913,145,17,16,"EE","Extreme","Easier than Reference","F","j","safeDeck","riskyDeck",0,-14,-7,"right",1,0,18,"present","riskyDeck",728,1452,1,0
"1ngp7r1zkjh",831,266.176857005447,13398,"21/03/2022@19:30:26","Mozilla/5.0 (Windows NT 10.0; Win64; x64) AppleWebKit/537.36 (KHTML, like Gecko) Chrome/99.0.4844.82 Safari/537.36",1536,864,1536,746,"main",1002913,147,17,16,"HM","Moderate","Harder than Reference","F","k","safeDeck","riskyDeck",14,0,7,"right",1,0,32,"absent","riskyDeck",812,3505,1,0
"1ngp7r1zkjh",831,266.176857005447,13398,"21/03/2022@19:30:26","Mozilla/5.0 (Windows NT 10.0; Win64; x64) AppleWebKit/537.36 (KHTML, like Gecko) Chrome/99.0.4844.82 Safari/537.36",1536,864,1536,746,"main",1002913,148,17,16,"HE","Extreme","Harder than Reference","F","k","safeDeck","riskyDeck",28,0,14,"right",1,0,32,"absent","riskyDeck",747,3690,1,0
"1ngp7r1zkjh",831,266.176857005447,13398,"21/03/2022@19:30:26","Mozilla/5.0 (Windows NT 10.0; Win64; x64) AppleWebKit/537.36 (KHTML, like Gecko) Chrome/99.0.4844.82 Safari/537.36",1536,864,1536,746,"main",1002913,149,17,16,"EE","Extreme","Easier than Reference","F","k","safeDeck","riskyDeck",0,-14,-7,"right",1,0,32,"absent","riskyDeck",707,3331,1,0
"1ngp7r1zkjh",831,266.176857005447,13398,"21/03/2022@19:30:26","Mozilla/5.0 (Windows NT 10.0; Win64; x64) AppleWebKit/537.36 (KHTML, like Gecko) Chrome/99.0.4844.82 Safari/537.36",1536,864,1536,746,"main",1002913,150,18,17,"HE","Extreme","Harder than Reference","F","j","safeDeck","riskyDeck",28,0,14,"right",1,0,60,"present","riskyDeck",508,6562,1,0
"1ngp7r1zkjh",831,266.176857005447,13398,"21/03/2022@19:30:26","Mozilla/5.0 (Windows NT 10.0; Win64; x64) AppleWebKit/537.36 (KHTML, like Gecko) Chrome/99.0.4844.82 Safari/537.36",1536,864,1536,746,"main",1002913,151,18,17,"EM","Moderate","Easier than Reference","F","j","safeDeck","riskyDeck",-28,0,-14,"right",1,0,32,"present","riskyDeck",929,1215,1,0
"1ngp7r1zkjh",831,266.176857005447,13398,"21/03/2022@19:30:26","Mozilla/5.0 (Windows NT 10.0; Win64; x64) AppleWebKit/537.36 (KHTML, like Gecko) Chrome/99.0.4844.82 Safari/537.36",1536,864,1536,746,"main",1002913,152,18,17,"HM","Moderate","Harder than Reference","D","k","riskyDeck","safeDeck",0,14,7,"left",1,0,32,"absent","riskyDeck",624,3448,-1,0
"554lfc19a2c",926.046979865772,570.05140042748,13624,"01/04/2022@17:23:40","Mozilla/5.0 (Windows NT 10.0; Win64; x64) AppleWebKit/537.36 (KHTML, like Gecko) Chrome/100.0.4896.60 Safari/537.36",1536,864,1412,738,"main",907892,2,4,3,"EM","Moderate","Easier than Reference","D","j","riskyDeck","safeDeck",-28,0,-14,"left",1,0,4,"present","riskyDeck",2034,1470,-1,0
"554lfc19a2c",926.046979865772,570.05140042748,13624,"01/04/2022@17:23:40","Mozilla/5.0 (Windows NT 10.0; Win64; x64) AppleWebKit/537.36 (KHTML, like Gecko) Chrome/100.0.4896.60 Safari/537.36",1536,864,1412,738,"main",907892,5,5,3,"EE","Extreme","Easier than Reference","F","k","safeDeck","riskyDeck",0,-14,-7,"right",1,0,32,"absent","riskyDeck",2006,4335,1,0
"554lfc19a2c",926.046979865772,570.05140042748,13624,"01/04/2022@17:23:40","Mozilla/5.0 (Windows NT 10.0; Win64; x64) AppleWebKit/537.36 (KHTML, like Gecko) Chrome/100.0.4896.60 Safari/537.36",1536,864,1412,738,"main",907892,6,5,4,"HE","Extreme","Harder than Reference","F","k","riskyDeck","safeDeck",28,0,14,"right",0,0,46,"absent","safeDeck",1738,3759,1,1
"554lfc19a2c",926.046979865772,570.05140042748,13624,"01/04/2022@17:23:40","Mozilla/5.0 (Windows NT 10.0; Win64; x64) AppleWebKit/537.36 (KHTML, like Gecko) Chrome/100.0.4896.60 Safari/537.36",1536,864,1412,738,"main",907892,7,5,4,"EM","Moderate","Easier than Reference","D","k","riskyDeck","safeDeck",0,-28,-14,"left",1,0,4,"absent","riskyDeck",898,1047,-1,0
"554lfc19a2c",926.046979865772,570.05140042748,13624,"01/04/2022@17:23:40","Mozilla/5.0 (Windows NT 10.0; Win64; x64) AppleWebKit/537.36 (KHTML, like Gecko) Chrome/100.0.4896.60 Safari/537.36",1536,864,1412,738,"main",907892,8,5,4,"HM","Moderate","Harder than Reference","D","k","riskyDeck","safeDeck",0,14,7,"left",1,0,46,"absent","riskyDeck",1261,3421,-1,0
"554lfc19a2c",926.046979865772,570.05140042748,13624,"01/04/2022@17:23:40","Mozilla/5.0 (Windows NT 10.0; Win64; x64) AppleWebKit/537.36 (KHTML, like Gecko) Chrome/100.0.4896.60 Safari/537.36",1536,864,1412,738,"main",907892,9,5,4,"EE","Extreme","Easier than Reference","D","k","riskyDeck","safeDeck",-14,0,-7,"left",1,0,18,"absent","riskyDeck",1107,2308,-1,0
"554lfc19a2c",926.046979865772,570.05140042748,13624,"01/04/2022@17:23:40","Mozilla/5.0 (Windows NT 10.0; Win64; x64) AppleWebKit/537.36 (KHTML, like Gecko) Chrome/100.0.4896.60 Safari/537.36",1536,864,1412,738,"main",907892,10,5,4,"EM","Moderate","Easier than Reference","D","j","riskyDeck","safeDeck",-28,0,-14,"left",1,0,32,"present","riskyDeck",806,2102,-1,0
"554lfc19a2c",926.046979865772,570.05140042748,13624,"01/04/2022@17:23:40","Mozilla/5.0 (Windows NT 10.0; Win64; x64) AppleWebKit/537.36 (KHTML, like Gecko) Chrome/100.0.4896.60 Safari/537.36",1536,864,1412,738,"main",907892,11,5,4,"HE","Extreme","Harder than Reference","F","k","safeDeck","riskyDeck",0,28,14,"right",1,0,60,"absent","riskyDeck",1937,3712,1,0
"554lfc19a2c",926.046979865772,570.05140042748,13624,"01/04/2022@17:23:40","Mozilla/5.0 (Windows NT 10.0; Win64; x64) AppleWebKit/537.36 (KHTML, like Gecko) Chrome/100.0.4896.60 Safari/537.36",1536,864,1412,738,"main",907892,12,5,4,"HM","Moderate","Harder than Reference","F","k","safeDeck","riskyDeck",0,14,7,"right",1,0,46,"absent","riskyDeck",1274,3597,1,0
"554lfc19a2c",926.046979865772,570.05140042748,13624,"01/04/2022@17:23:40","Mozilla/5.0 (Windows NT 10.0; Win64; x64) AppleWebKit/537.36 (KHTML, like Gecko) Chrome/100.0.4896.60 Safari/537.36",1536,864,1412,738,"main",907892,13,5,4,"EE","Extreme","Easier than Reference","F","j","safeDeck","riskyDeck",-14,0,-7,"right",1,0,18,"present","riskyDeck",1065,1355,1,0
"554lfc19a2c",926.046979865772,570.05140042748,13624,"01/04/2022@17:23:40","Mozilla/5.0 (Windows NT 10.0; Win64; x64) AppleWebKit/537.36 (KHTML, like Gecko) Chrome/100.0.4896.60 Safari/537.36",1536,864,1412,738,"main",907892,14,5,4,"HM","Moderate","Harder than Reference","F","j","safeDeck","riskyDeck",14,0,7,"right",1,0,32,"present","riskyDeck",914,1258,1,0
"554lfc19a2c",926.046979865772,570.05140042748,13624,"01/04/2022@17:23:40","Mozilla/5.0 (Windows NT 10.0; Win64; x64) AppleWebKit/537.36 (KHTML, like Gecko) Chrome/100.0.4896.60 Safari/537.36",1536,864,1412,738,"main",907892,15,5,4,"HE","Extreme","Harder than Reference","D","j","riskyDeck","safeDeck",28,0,14,"left",1,0,60,"present","riskyDeck",1399,3998,-1,0
"554lfc19a2c",926.046979865772,570.05140042748,13624,"01/04/2022@17:23:40","Mozilla/5.0 (Windows NT 10.0; Win64; x64) AppleWebKit/537.36 (KHTML, like Gecko) Chrome/100.0.4896.60 Safari/537.36",1536,864,1412,738,"main",907892,16,6,4,"EM","Moderate","Easier than Reference","D","j","riskyDeck","safeDeck",0,-28,-14,"left",1,0,32,"present","riskyDeck",789,3311,-1,0
"554lfc19a2c",926.046979865772,570.05140042748,13624,"01/04/2022@17:23:40","Mozilla/5.0 (Windows NT 10.0; Win64; x64) AppleWebKit/537.36 (KHTML, like Gecko) Chrome/100.0.4896.60 Safari/537.36",1536,864,1412,738,"main",907892,17,6,5,"HM","Moderate","Harder than Reference","F","j","safeDeck","riskyDeck",0,14,7,"right",1,0,32,"present","riskyDeck",1370,1183,1,0
"554lfc19a2c",926.046979865772,570.05140042748,13624,"01/04/2022@17:23:40","Mozilla/5.0 (Windows NT 10.0; Win64; x64) AppleWebKit/537.36 (KHTML, like Gecko) Chrome/100.0.4896.60 Safari/537.36",1536,864,1412,738,"main",907892,18,6,5,"EM","Moderate","Easier than Reference","D","k","riskyDeck","safeDeck",-28,0,-14,"left",1,0,32,"absent","riskyDeck",725,2896,-1,0
"554lfc19a2c",926.046979865772,570.05140042748,13624,"01/04/2022@17:23:40","Mozilla/5.0 (Windows NT 10.0; Win64; x64) AppleWebKit/537.36 (KHTML, like Gecko) Chrome/100.0.4896.60 Safari/537.36",1536,864,1412,738,"main",907892,19,6,5,"HE","Extreme","Harder than Reference","F","k","safeDeck","riskyDeck",0,28,14,"right",1,1,60,"present","riskyDeck",1218,4648,1,0
"554lfc19a2c",926.046979865772,570.05140042748,13624,"01/04/2022@17:23:40","Mozilla/5.0 (Windows NT 10.0; Win64; x64) AppleWebKit/537.36 (KHTML, like Gecko) Chrome/100.0.4896.60 Safari/537.36",1536,864,1412,738,"main",907892,20,6,5,"EE","Extreme","Easier than Reference","D","k","riskyDeck","safeDeck",0,-14,-7,"left",1,0,32,"absent","riskyDeck",672,2563,-1,0
"554lfc19a2c",926.046979865772,570.05140042748,13624,"01/04/2022@17:23:40","Mozilla/5.0 (Windows NT 10.0; Win64; x64) AppleWebKit/537.36 (KHTML, like Gecko) Chrome/100.0.4896.60 Safari/537.36",1536,864,1412,738,"main",907892,21,6,5,"HM","Moderate","Harder than Reference","F","j","safeDeck","riskyDeck",0,14,7,"right",1,0,46,"present","riskyDeck",939,2313,1,0
"554lfc19a2c",926.046979865772,570.05140042748,13624,"01/04/2022@17:23:40","Mozilla/5.0 (Windows NT 10.0; Win64; x64) AppleWebKit/537.36 (KHTML, like Gecko) Chrome/100.0.4896.60 Safari/537.36",1536,864,1412,738,"main",907892,22,6,5,"HE","Extreme","Harder than Reference","F","k","riskyDeck","safeDeck",0,28,14,"right",0,0,46,"absent","safeDeck",1530,3421,1,1
"554lfc19a2c",926.046979865772,570.05140042748,13624,"01/04/2022@17:23:40","Mozilla/5.0 (Windows NT 10.0; Win64; x64) AppleWebKit/537.36 (KHTML, like Gecko) Chrome/100.0.4896.60 Safari/537.36",1536,864,1412,738,"main",907892,23,6,5,"EE","Extreme","Easier than Reference","F","k","safeDeck","riskyDeck",-14,0,-7,"right",1,0,32,"absent","riskyDeck",784,3624,1,0
"554lfc19a2c",926.046979865772,570.05140042748,13624,"01/04/2022@17:23:40","Mozilla/5.0 (Windows NT 10.0; Win64; x64) AppleWebKit/537.36 (KHTML, like Gecko) Chrome/100.0.4896.60 Safari/537.36",1536,864,1412,738,"main",907892,24,6,5,"EM","Moderate","Easier than Reference","F","j","safeDeck","riskyDeck",-28,0,-14,"right",1,0,4,"present","riskyDeck",881,1076,1,0
"554lfc19a2c",926.046979865772,570.05140042748,13624,"01/04/2022@17:23:40","Mozilla/5.0 (Windows NT 10.0; Win64; x64) AppleWebKit/537.36 (KHTML, like Gecko) Chrome/100.0.4896.60 Safari/537.36",1536,864,1412,738,"main",907892,25,6,5,"EM","Moderate","Easier than Reference","F","k","safeDeck","riskyDeck",0,-28,-14,"right",1,0,32,"absent","riskyDeck",1208,2754,1,0
"554lfc19a2c",926.046979865772,570.05140042748,13624,"01/04/2022@17:23:40","Mozilla/5.0 (Windows NT 10.0; Win64; x64) AppleWebKit/537.36 (KHTML, like Gecko) Chrome/100.0.4896.60 Safari/537.36",1536,864,1412,738,"main",907892,26,7,5,"HE","Extreme","Harder than Reference","D","k","riskyDeck","safeDeck",28,0,14,"left",1,0,32,"absent","riskyDeck",1321,2784,-1,0
"554lfc19a2c",926.046979865772,570.05140042748,13624,"01/04/2022@17:23:40","Mozilla/5.0 (Windows NT 10.0; Win64; x64) AppleWebKit/537.36 (KHTML, like Gecko) Chrome/100.0.4896.60 Safari/537.36",1536,864,1412,738,"main",907892,27,7,6,"HM","Moderate","Harder than Reference","D","k","riskyDeck","safeDeck",0,14,7,"left",1,0,32,"absent","riskyDeck",931,3146,-1,0
"554lfc19a2c",926.046979865772,570.05140042748,13624,"01/04/2022@17:23:40","Mozilla/5.0 (Windows NT 10.0; Win64; x64) AppleWebKit/537.36 (KHTML, like Gecko) Chrome/100.0.4896.60 Safari/537.36",1536,864,1412,738,"main",907892,28,7,6,"EE","Extreme","Easier than Reference","F","k","safeDeck","riskyDeck",-14,0,-7,"right",1,0,18,"absent","riskyDeck",991,2372,1,0
"554lfc19a2c",926.046979865772,570.05140042748,13624,"01/04/2022@17:23:40","Mozilla/5.0 (Windows NT 10.0; Win64; x64) AppleWebKit/537.36 (KHTML, like Gecko) Chrome/100.0.4896.60 Safari/537.36",1536,864,1412,738,"main",907892,29,7,6,"HM","Moderate","Harder than Reference","F","k","safeDeck","riskyDeck",0,14,7,"right",1,0,32,"absent","riskyDeck",678,2252,1,0
"554lfc19a2c",926.046979865772,570.05140042748,13624,"01/04/2022@17:23:40","Mozilla/5.0 (Windows NT 10.0; Win64; x64) AppleWebKit/537.36 (KHTML, like Gecko) Chrome/100.0.4896.60 Safari/537.36",1536,864,1412,738,"main",907892,30,7,6,"EE","Extreme","Easier than Reference","D","k","riskyDeck","safeDeck",0,-14,-7,"left",1,0,32,"absent","riskyDeck",722,2890,-1,0
"554lfc19a2c",926.046979865772,570.05140042748,13624,"01/04/2022@17:23:40","Mozilla/5.0 (Windows NT 10.0; Win64; x64) AppleWebKit/537.36 (KHTML, like Gecko) Chrome/100.0.4896.60 Safari/537.36",1536,864,1412,738,"main",907892,31,7,6,"EM","Moderate","Easier than Reference","D","k","riskyDeck","safeDeck",-28,0,-14,"left",1,0,4,"absent","riskyDeck",573,987,-1,0
"554lfc19a2c",926.046979865772,570.05140042748,13624,"01/04/2022@17:23:40","Mozilla/5.0 (Windows NT 10.0; Win64; x64) AppleWebKit/537.36 (KHTML, like Gecko) Chrome/100.0.4896.60 Safari/537.36",1536,864,1412,738,"main",907892,32,7,6,"HE","Extreme","Harder than Reference","F","k","safeDeck","riskyDeck",0,28,14,"right",1,0,60,"absent","riskyDeck",796,4081,1,0
"554lfc19a2c",926.046979865772,570.05140042748,13624,"01/04/2022@17:23:40","Mozilla/5.0 (Windows NT 10.0; Win64; x64) AppleWebKit/537.36 (KHTML, like Gecko) Chrome/100.0.4896.60 Safari/537.36",1536,864,1412,738,"main",907892,33,7,6,"HM","Moderate","Harder than Reference","F","k","safeDeck","riskyDeck",0,14,7,"right",1,0,46,"absent","riskyDeck",626,2489,1,0
"554lfc19a2c",926.046979865772,570.05140042748,13624,"01/04/2022@17:23:40","Mozilla/5.0 (Windows NT 10.0; Win64; x64) AppleWebKit/537.36 (KHTML, like Gecko) Chrome/100.0.4896.60 Safari/537.36",1536,864,1412,738,"main",907892,34,7,6,"HE","Extreme","Harder than Reference","D","k","riskyDeck","safeDeck",0,28,14,"left",1,1,32,"present","riskyDeck",704,2387,-1,0
"554lfc19a2c",926.046979865772,570.05140042748,13624,"01/04/2022@17:23:40","Mozilla/5.0 (Windows NT 10.0; Win64; x64) AppleWebKit/537.36 (KHTML, like Gecko) Chrome/100.0.4896.60 Safari/537.36",1536,864,1412,738,"main",907892,35,7,6,"EE","Extreme","Easier than Reference","D","j","riskyDeck","safeDeck",-14,0,-7,"left",1,0,32,"present","riskyDeck",665,1490,-1,0
"554lfc19a2c",926.046979865772,570.05140042748,13624,"01/04/2022@17:23:40","Mozilla/5.0 (Windows NT 10.0; Win64; x64) AppleWebKit/537.36 (KHTML, like Gecko) Chrome/100.0.4896.60 Safari/537.36",1536,864,1412,738,"main",907892,36,7,6,"EM","Moderate","Easier than Reference","F","j","safeDeck","riskyDeck",0,-28,-14,"right",1,0,4,"present","riskyDeck",691,772,1,0
"554lfc19a2c",926.046979865772,570.05140042748,13624,"01/04/2022@17:23:40","Mozilla/5.0 (Windows NT 10.0; Win64; x64) AppleWebKit/537.36 (KHTML, like Gecko) Chrome/100.0.4896.60 Safari/537.36",1536,864,1412,738,"main",907892,37,7,6,"EE","Extreme","Easier than Reference","D","j","riskyDeck","safeDeck",-14,0,-7,"left",1,0,18,"present","riskyDeck",614,891,-1,0
"554lfc19a2c",926.046979865772,570.05140042748,13624,"01/04/2022@17:23:40","Mozilla/5.0 (Windows NT 10.0; Win64; x64) AppleWebKit/537.36 (KHTML, like Gecko) Chrome/100.0.4896.60 Safari/537.36",1536,864,1412,738,"main",907892,38,8,6,"HE","Extreme","Harder than Reference","D","j","safeDeck","riskyDeck",28,0,14,"left",0,0,46,"present","safeDeck",660,1856,-1,1
"554lfc19a2c",926.046979865772,570.05140042748,13624,"01/04/2022@17:23:40","Mozilla/5.0 (Windows NT 10.0; Win64; x64) AppleWebKit/537.36 (KHTML, like Gecko) Chrome/100.0.4896.60 Safari/537.36",1536,864,1412,738,"main",907892,40,8,7,"EM","Moderate","Easier than Reference","F","k","safeDeck","riskyDeck",0,-28,-14,"right",1,0,32,"absent","riskyDeck",999,2655,1,0
"554lfc19a2c",926.046979865772,570.05140042748,13624,"01/04/2022@17:23:40","Mozilla/5.0 (Windows NT 10.0; Win64; x64) AppleWebKit/537.36 (KHTML, like Gecko) Chrome/100.0.4896.60 Safari/537.36",1536,864,1412,738,"main",907892,41,8,7,"EM","Moderate","Easier than Reference","F","k","safeDeck","riskyDeck",-28,0,-14,"right",1,0,32,"absent","riskyDeck",697,3217,1,0
"554lfc19a2c",926.046979865772,570.05140042748,13624,"01/04/2022@17:23:40","Mozilla/5.0 (Windows NT 10.0; Win64; x64) AppleWebKit/537.36 (KHTML, like Gecko) Chrome/100.0.4896.60 Safari/537.36",1536,864,1412,738,"main",907892,42,8,7,"EE","Extreme","Easier than Reference","F","j","safeDeck","riskyDeck",0,-14,-7,"right",1,0,18,"present","riskyDeck",881,1330,1,0
"554lfc19a2c",926.046979865772,570.05140042748,13624,"01/04/2022@17:23:40","Mozilla/5.0 (Windows NT 10.0; Win64; x64) AppleWebKit/537.36 (KHTML, like Gecko) Chrome/100.0.4896.60 Safari/537.36",1536,864,1412,738,"main",907892,43,8,7,"HE","Extreme","Harder than Reference","D","j","riskyDeck","safeDeck",28,0,14,"left",1,0,32,"present","riskyDeck",794,1452,-1,0
"554lfc19a2c",926.046979865772,570.05140042748,13624,"01/04/2022@17:23:40","Mozilla/5.0 (Windows NT 10.0; Win64; x64) AppleWebKit/537.36 (KHTML, like Gecko) Chrome/100.0.4896.60 Safari/537.36",1536,864,1412,738,"main",907892,44,8,7,"HM","Moderate","Harder than Reference","D","j","riskyDeck","safeDeck",14,0,7,"left",1,0,32,"present","riskyDeck",887,1919,-1,0
"554lfc19a2c",926.046979865772,570.05140042748,13624,"01/04/2022@17:23:40","Mozilla/5.0 (Windows NT 10.0; Win64; x64) AppleWebKit/537.36 (KHTML, like Gecko) Chrome/100.0.4896.60 Safari/537.36",1536,864,1412,738,"main",907892,45,8,7,"HE","Extreme","Harder than Reference","D","k","safeDeck","riskyDeck",28,0,14,"left",0,0,46,"absent","safeDeck",1103,3414,-1,1
"554lfc19a2c",926.046979865772,570.05140042748,13624,"01/04/2022@17:23:40","Mozilla/5.0 (Windows NT 10.0; Win64; x64) AppleWebKit/537.36 (KHTML, like Gecko) Chrome/100.0.4896.60 Safari/537.36",1536,864,1412,738,"main",907892,46,8,7,"HM","Moderate","Harder than Reference","D","j","riskyDeck","safeDeck",0,14,7,"left",1,0,32,"present","riskyDeck",984,1097,-1,0
"554lfc19a2c",926.046979865772,570.05140042748,13624,"01/04/2022@17:23:40","Mozilla/5.0 (Windows NT 10.0; Win64; x64) AppleWebKit/537.36 (KHTML, like Gecko) Chrome/100.0.4896.60 Safari/537.36",1536,864,1412,738,"main",907892,47,8,7,"EM","Moderate","Easier than Reference","F","k","safeDeck","riskyDeck",-28,0,-14,"right",1,0,32,"absent","riskyDeck",853,2707,1,0
"554lfc19a2c",926.046979865772,570.05140042748,13624,"01/04/2022@17:23:40","Mozilla/5.0 (Windows NT 10.0; Win64; x64) AppleWebKit/537.36 (KHTML, like Gecko) Chrome/100.0.4896.60 Safari/537.36",1536,864,1412,738,"main",907892,48,8,7,"EE","Extreme","Easier than Reference","D","j","riskyDeck","safeDeck",0,-14,-7,"left",1,0,32,"present","riskyDeck",591,1592,-1,0
"554lfc19a2c",926.046979865772,570.05140042748,13624,"01/04/2022@17:23:40","Mozilla/5.0 (Windows NT 10.0; Win64; x64) AppleWebKit/537.36 (KHTML, like Gecko) Chrome/100.0.4896.60 Safari/537.36",1536,864,1412,738,"main",907892,49,8,7,"HM","Moderate","Harder than Reference","F","k","safeDeck","riskyDeck",14,0,7,"right",1,0,46,"absent","riskyDeck",613,2414,1,0
"554lfc19a2c",926.046979865772,570.05140042748,13624,"01/04/2022@17:23:40","Mozilla/5.0 (Windows NT 10.0; Win64; x64) AppleWebKit/537.36 (KHTML, like Gecko) Chrome/100.0.4896.60 Safari/537.36",1536,864,1412,738,"main",907892,50,9,7,"EE","Extreme","Easier than Reference","F","k","safeDeck","riskyDeck",0,-14,-7,"right",1,0,32,"absent","riskyDeck",987,1932,1,0
"554lfc19a2c",926.046979865772,570.05140042748,13624,"01/04/2022@17:23:40","Mozilla/5.0 (Windows NT 10.0; Win64; x64) AppleWebKit/537.36 (KHTML, like Gecko) Chrome/100.0.4896.60 Safari/537.36",1536,864,1412,738,"main",907892,51,9,7,"EM","Moderate","Easier than Reference","D","j","riskyDeck","safeDeck",-28,0,-14,"left",1,0,4,"present","riskyDeck",714,640,-1,0
"554lfc19a2c",926.046979865772,570.05140042748,13624,"01/04/2022@17:23:40","Mozilla/5.0 (Windows NT 10.0; Win64; x64) AppleWebKit/537.36 (KHTML, like Gecko) Chrome/100.0.4896.60 Safari/537.36",1536,864,1412,738,"main",907892,52,9,8,"HE","Extreme","Harder than Reference","F","k","riskyDeck","safeDeck",0,28,14,"right",0,0,46,"absent","safeDeck",1623,1590,1,1
"554lfc19a2c",926.046979865772,570.05140042748,13624,"01/04/2022@17:23:40","Mozilla/5.0 (Windows NT 10.0; Win64; x64) AppleWebKit/537.36 (KHTML, like Gecko) Chrome/100.0.4896.60 Safari/537.36",1536,864,1412,738,"main",907892,53,9,8,"EM","Moderate","Easier than Reference","D","k","riskyDeck","safeDeck",-28,0,-14,"left",1,0,4,"absent","riskyDeck",674,666,-1,0
"554lfc19a2c",926.046979865772,570.05140042748,13624,"01/04/2022@17:23:40","Mozilla/5.0 (Windows NT 10.0; Win64; x64) AppleWebKit/537.36 (KHTML, like Gecko) Chrome/100.0.4896.60 Safari/537.36",1536,864,1412,738,"main",907892,54,9,8,"HE","Extreme","Harder than Reference","D","k","safeDeck","riskyDeck",28,0,14,"left",0,0,46,"absent","safeDeck",1220,2477,-1,1
"554lfc19a2c",926.046979865772,570.05140042748,13624,"01/04/2022@17:23:40","Mozilla/5.0 (Windows NT 10.0; Win64; x64) AppleWebKit/537.36 (KHTML, like Gecko) Chrome/100.0.4896.60 Safari/537.36",1536,864,1412,738,"main",907892,55,9,8,"EE","Extreme","Easier than Reference","F","j","safeDeck","riskyDeck",-14,0,-7,"right",1,0,18,"present","riskyDeck",805,1226,1,0
"554lfc19a2c",926.046979865772,570.05140042748,13624,"01/04/2022@17:23:40","Mozilla/5.0 (Windows NT 10.0; Win64; x64) AppleWebKit/537.36 (KHTML, like Gecko) Chrome/100.0.4896.60 Safari/537.36",1536,864,1412,738,"main",907892,56,9,8,"HM","Moderate","Harder than Reference","D","j","riskyDeck","safeDeck",14,0,7,"left",1,0,32,"present","riskyDeck",500,728,-1,0
"554lfc19a2c",926.046979865772,570.05140042748,13624,"01/04/2022@17:23:40","Mozilla/5.0 (Windows NT 10.0; Win64; x64) AppleWebKit/537.36 (KHTML, like Gecko) Chrome/100.0.4896.60 Safari/537.36",1536,864,1412,738,"main",907892,57,9,8,"EE","Extreme","Easier than Reference","D","k","riskyDeck","safeDeck",-14,0,-7,"left",1,0,18,"absent","riskyDeck",461,1195,-1,0
"554lfc19a2c",926.046979865772,570.05140042748,13624,"01/04/2022@17:23:40","Mozilla/5.0 (Windows NT 10.0; Win64; x64) AppleWebKit/537.36 (KHTML, like Gecko) Chrome/100.0.4896.60 Safari/537.36",1536,864,1412,738,"main",907892,58,9,8,"HE","Extreme","Harder than Reference","D","j","riskyDeck","safeDeck",28,0,14,"left",1,0,32,"present","riskyDeck",642,977,-1,0
"554lfc19a2c",926.046979865772,570.05140042748,13624,"01/04/2022@17:23:40","Mozilla/5.0 (Windows NT 10.0; Win64; x64) AppleWebKit/537.36 (KHTML, like Gecko) Chrome/100.0.4896.60 Safari/537.36",1536,864,1412,738,"main",907892,59,9,8,"HM","Moderate","Harder than Reference","D","j","safeDeck","riskyDeck",14,0,7,"left",0,0,39,"present","safeDeck",985,1221,-1,1
"554lfc19a2c",926.046979865772,570.05140042748,13624,"01/04/2022@17:23:40","Mozilla/5.0 (Windows NT 10.0; Win64; x64) AppleWebKit/537.36 (KHTML, like Gecko) Chrome/100.0.4896.60 Safari/537.36",1536,864,1412,738,"main",907892,60,9,8,"EM","Moderate","Easier than Reference","F","k","safeDeck","riskyDeck",-28,0,-14,"right",1,0,32,"absent","riskyDeck",986,2268,1,0
"554lfc19a2c",926.046979865772,570.05140042748,13624,"01/04/2022@17:23:40","Mozilla/5.0 (Windows NT 10.0; Win64; x64) AppleWebKit/537.36 (KHTML, like Gecko) Chrome/100.0.4896.60 Safari/537.36",1536,864,1412,738,"main",907892,61,9,8,"EE","Extreme","Easier than Reference","D","k","riskyDeck","safeDeck",0,-14,-7,"left",1,0,32,"absent","riskyDeck",705,1128,-1,0
"554lfc19a2c",926.046979865772,570.05140042748,13624,"01/04/2022@17:23:40","Mozilla/5.0 (Windows NT 10.0; Win64; x64) AppleWebKit/537.36 (KHTML, like Gecko) Chrome/100.0.4896.60 Safari/537.36",1536,864,1412,738,"main",907892,62,9,8,"EM","Moderate","Easier than Reference","D","k","riskyDeck","safeDeck",-28,0,-14,"left",1,0,4,"absent","riskyDeck",642,942,-1,0
"554lfc19a2c",926.046979865772,570.05140042748,13624,"01/04/2022@17:23:40","Mozilla/5.0 (Windows NT 10.0; Win64; x64) AppleWebKit/537.36 (KHTML, like Gecko) Chrome/100.0.4896.60 Safari/537.36",1536,864,1412,738,"main",907892,63,9,8,"HE","Extreme","Harder than Reference","D","j","safeDeck","riskyDeck",0,28,14,"left",0,0,46,"present","safeDeck",1049,1339,-1,1
"554lfc19a2c",926.046979865772,570.05140042748,13624,"01/04/2022@17:23:40","Mozilla/5.0 (Windows NT 10.0; Win64; x64) AppleWebKit/537.36 (KHTML, like Gecko) Chrome/100.0.4896.60 Safari/537.36",1536,864,1412,738,"main",907892,64,10,8,"HM","Moderate","Harder than Reference","D","k","safeDeck","riskyDeck",0,14,7,"left",0,0,39,"absent","safeDeck",830,2260,-1,1
"554lfc19a2c",926.046979865772,570.05140042748,13624,"01/04/2022@17:23:40","Mozilla/5.0 (Windows NT 10.0; Win64; x64) AppleWebKit/537.36 (KHTML, like Gecko) Chrome/100.0.4896.60 Safari/537.36",1536,864,1412,738,"main",907892,65,10,9,"HE","Extreme","Harder than Reference","D","k","safeDeck","riskyDeck",0,28,14,"left",0,0,46,"absent","safeDeck",748,2527,-1,1
"554lfc19a2c",926.046979865772,570.05140042748,13624,"01/04/2022@17:23:40","Mozilla/5.0 (Windows NT 10.0; Win64; x64) AppleWebKit/537.36 (KHTML, like Gecko) Chrome/100.0.4896.60 Safari/537.36",1536,864,1412,738,"main",907892,66,10,9,"EM","Moderate","Easier than Reference","D","k","riskyDeck","safeDeck",-28,0,-14,"left",1,0,4,"absent","riskyDeck",493,912,-1,0
"554lfc19a2c",926.046979865772,570.05140042748,13624,"01/04/2022@17:23:40","Mozilla/5.0 (Windows NT 10.0; Win64; x64) AppleWebKit/537.36 (KHTML, like Gecko) Chrome/100.0.4896.60 Safari/537.36",1536,864,1412,738,"main",907892,67,10,9,"HM","Moderate","Harder than Reference","D","j","safeDeck","riskyDeck",14,0,7,"left",0,0,39,"present","safeDeck",709,1326,-1,1
"554lfc19a2c",926.046979865772,570.05140042748,13624,"01/04/2022@17:23:40","Mozilla/5.0 (Windows NT 10.0; Win64; x64) AppleWebKit/537.36 (KHTML, like Gecko) Chrome/100.0.4896.60 Safari/537.36",1536,864,1412,738,"main",907892,68,10,9,"EE","Extreme","Easier than Reference","F","k","safeDeck","riskyDeck",-14,0,-7,"right",1,0,32,"absent","riskyDeck",781,1291,1,0
"554lfc19a2c",926.046979865772,570.05140042748,13624,"01/04/2022@17:23:40","Mozilla/5.0 (Windows NT 10.0; Win64; x64) AppleWebKit/537.36 (KHTML, like Gecko) Chrome/100.0.4896.60 Safari/537.36",1536,864,1412,738,"main",907892,69,10,9,"EM","Moderate","Easier than Reference","F","j","safeDeck","riskyDeck",-28,0,-14,"right",1,0,32,"present","riskyDeck",802,1081,1,0
"554lfc19a2c",926.046979865772,570.05140042748,13624,"01/04/2022@17:23:40","Mozilla/5.0 (Windows NT 10.0; Win64; x64) AppleWebKit/537.36 (KHTML, like Gecko) Chrome/100.0.4896.60 Safari/537.36",1536,864,1412,738,"main",907892,71,10,9,"HE","Extreme","Harder than Reference","D","j","riskyDeck","safeDeck",28,0,14,"left",1,0,32,"present","riskyDeck",883,1692,-1,0
"554lfc19a2c",926.046979865772,570.05140042748,13624,"01/04/2022@17:23:40","Mozilla/5.0 (Windows NT 10.0; Win64; x64) AppleWebKit/537.36 (KHTML, like Gecko) Chrome/100.0.4896.60 Safari/537.36",1536,864,1412,738,"main",907892,72,10,9,"HM","Moderate","Harder than Reference","D","j","riskyDeck","safeDeck",14,0,7,"left",1,0,32,"present","riskyDeck",620,1592,-1,0
"554lfc19a2c",926.046979865772,570.05140042748,13624,"01/04/2022@17:23:40","Mozilla/5.0 (Windows NT 10.0; Win64; x64) AppleWebKit/537.36 (KHTML, like Gecko) Chrome/100.0.4896.60 Safari/537.36",1536,864,1412,738,"main",907892,73,10,9,"HE","Extreme","Harder than Reference","F","j","riskyDeck","safeDeck",28,0,14,"right",0,0,46,"present","safeDeck",840,924,1,1
"554lfc19a2c",926.046979865772,570.05140042748,13624,"01/04/2022@17:23:40","Mozilla/5.0 (Windows NT 10.0; Win64; x64) AppleWebKit/537.36 (KHTML, like Gecko) Chrome/100.0.4896.60 Safari/537.36",1536,864,1412,738,"main",907892,74,10,9,"HM","Moderate","Harder than Reference","F","k","safeDeck","riskyDeck",0,14,7,"right",1,1,46,"present","riskyDeck",773,1597,1,0
"554lfc19a2c",926.046979865772,570.05140042748,13624,"01/04/2022@17:23:40","Mozilla/5.0 (Windows NT 10.0; Win64; x64) AppleWebKit/537.36 (KHTML, like Gecko) Chrome/100.0.4896.60 Safari/537.36",1536,864,1412,738,"main",907892,75,10,9,"EM","Moderate","Easier than Reference","D","j","riskyDeck","safeDeck",-28,0,-14,"left",1,0,4,"present","riskyDeck",638,728,-1,0
"554lfc19a2c",926.046979865772,570.05140042748,13624,"01/04/2022@17:23:40","Mozilla/5.0 (Windows NT 10.0; Win64; x64) AppleWebKit/537.36 (KHTML, like Gecko) Chrome/100.0.4896.60 Safari/537.36",1536,864,1412,738,"main",907892,76,10,9,"EE","Extreme","Easier than Reference","F","j","safeDeck","riskyDeck",-14,0,-7,"right",1,0,32,"present","riskyDeck",930,1301,1,0
"554lfc19a2c",926.046979865772,570.05140042748,13624,"01/04/2022@17:23:40","Mozilla/5.0 (Windows NT 10.0; Win64; x64) AppleWebKit/537.36 (KHTML, like Gecko) Chrome/100.0.4896.60 Safari/537.36",1536,864,1412,738,"main",907892,77,11,10,"HE","Extreme","Harder than Reference","F","k","riskyDeck","safeDeck",28,0,14,"right",0,0,46,"absent","safeDeck",1178,2360,1,1
"554lfc19a2c",926.046979865772,570.05140042748,13624,"01/04/2022@17:23:40","Mozilla/5.0 (Windows NT 10.0; Win64; x64) AppleWebKit/537.36 (KHTML, like Gecko) Chrome/100.0.4896.60 Safari/537.36",1536,864,1412,738,"main",907892,78,11,10,"EE","Extreme","Easier than Reference","F","k","safeDeck","riskyDeck",0,-14,-7,"right",1,0,32,"absent","riskyDeck",732,2210,1,0
"554lfc19a2c",926.046979865772,570.05140042748,13624,"01/04/2022@17:23:40","Mozilla/5.0 (Windows NT 10.0; Win64; x64) AppleWebKit/537.36 (KHTML, like Gecko) Chrome/100.0.4896.60 Safari/537.36",1536,864,1412,738,"main",907892,79,11,10,"HM","Moderate","Harder than Reference","D","j","riskyDeck","safeDeck",14,0,7,"left",1,0,32,"present","riskyDeck",752,1247,-1,0
"554lfc19a2c",926.046979865772,570.05140042748,13624,"01/04/2022@17:23:40","Mozilla/5.0 (Windows NT 10.0; Win64; x64) AppleWebKit/537.36 (KHTML, like Gecko) Chrome/100.0.4896.60 Safari/537.36",1536,864,1412,738,"main",907892,80,11,10,"EM","Moderate","Easier than Reference","D","k","riskyDeck","safeDeck",-28,0,-14,"left",1,0,4,"absent","riskyDeck",713,800,-1,0
"554lfc19a2c",926.046979865772,570.05140042748,13624,"01/04/2022@17:23:40","Mozilla/5.0 (Windows NT 10.0; Win64; x64) AppleWebKit/537.36 (KHTML, like Gecko) Chrome/100.0.4896.60 Safari/537.36",1536,864,1412,738,"main",907892,81,11,10,"EE","Extreme","Easier than Reference","D","j","riskyDeck","safeDeck",-14,0,-7,"left",1,0,32,"present","riskyDeck",543,1592,-1,0
"554lfc19a2c",926.046979865772,570.05140042748,13624,"01/04/2022@17:23:40","Mozilla/5.0 (Windows NT 10.0; Win64; x64) AppleWebKit/537.36 (KHTML, like Gecko) Chrome/100.0.4896.60 Safari/537.36",1536,864,1412,738,"main",907892,82,11,10,"HM","Moderate","Harder than Reference","D","j","riskyDeck","safeDeck",0,14,7,"left",1,0,46,"present","riskyDeck",868,1321,-1,0
"554lfc19a2c",926.046979865772,570.05140042748,13624,"01/04/2022@17:23:40","Mozilla/5.0 (Windows NT 10.0; Win64; x64) AppleWebKit/537.36 (KHTML, like Gecko) Chrome/100.0.4896.60 Safari/537.36",1536,864,1412,738,"main",907892,83,11,10,"EM","Moderate","Easier than Reference","D","k","riskyDeck","safeDeck",0,-28,-14,"left",1,0,32,"absent","riskyDeck",507,1737,-1,0
"554lfc19a2c",926.046979865772,570.05140042748,13624,"01/04/2022@17:23:40","Mozilla/5.0 (Windows NT 10.0; Win64; x64) AppleWebKit/537.36 (KHTML, like Gecko) Chrome/100.0.4896.60 Safari/537.36",1536,864,1412,738,"main",907892,84,11,10,"HE","Extreme","Harder than Reference","D","k","riskyDeck","safeDeck",0,28,14,"left",1,0,60,"absent","riskyDeck",339,2244,-1,0
"554lfc19a2c",926.046979865772,570.05140042748,13624,"01/04/2022@17:23:40","Mozilla/5.0 (Windows NT 10.0; Win64; x64) AppleWebKit/537.36 (KHTML, like Gecko) Chrome/100.0.4896.60 Safari/537.36",1536,864,1412,738,"main",907892,85,11,10,"EE","Extreme","Easier than Reference","D","k","riskyDeck","safeDeck",-14,0,-7,"left",1,0,18,"absent","riskyDeck",439,1696,-1,0
"554lfc19a2c",926.046979865772,570.05140042748,13624,"01/04/2022@17:23:40","Mozilla/5.0 (Windows NT 10.0; Win64; x64) AppleWebKit/537.36 (KHTML, like Gecko) Chrome/100.0.4896.60 Safari/537.36",1536,864,1412,738,"main",907892,86,11,10,"HE","Extreme","Harder than Reference","D","k","safeDeck","riskyDeck",28,0,14,"left",0,0,46,"absent","safeDeck",1042,1855,-1,1
"554lfc19a2c",926.046979865772,570.05140042748,13624,"01/04/2022@17:23:40","Mozilla/5.0 (Windows NT 10.0; Win64; x64) AppleWebKit/537.36 (KHTML, like Gecko) Chrome/100.0.4896.60 Safari/537.36",1536,864,1412,738,"main",907892,87,11,10,"HM","Moderate","Harder than Reference","D","k","safeDeck","riskyDeck",0,14,7,"left",0,0,39,"absent","safeDeck",727,1824,-1,1
"554lfc19a2c",926.046979865772,570.05140042748,13624,"01/04/2022@17:23:40","Mozilla/5.0 (Windows NT 10.0; Win64; x64) AppleWebKit/537.36 (KHTML, like Gecko) Chrome/100.0.4896.60 Safari/537.36",1536,864,1412,738,"main",907892,88,11,10,"EM","Moderate","Easier than Reference","D","j","riskyDeck","safeDeck",-28,0,-14,"left",1,0,32,"present","riskyDeck",562,983,-1,0
"554lfc19a2c",926.046979865772,570.05140042748,13624,"01/04/2022@17:23:40","Mozilla/5.0 (Windows NT 10.0; Win64; x64) AppleWebKit/537.36 (KHTML, like Gecko) Chrome/100.0.4896.60 Safari/537.36",1536,864,1412,738,"main",907892,89,11,10,"EM","Moderate","Easier than Reference","D","k","riskyDeck","safeDeck",-28,0,-14,"left",1,0,4,"absent","riskyDeck",461,895,-1,0
"554lfc19a2c",926.046979865772,570.05140042748,13624,"01/04/2022@17:23:40","Mozilla/5.0 (Windows NT 10.0; Win64; x64) AppleWebKit/537.36 (KHTML, like Gecko) Chrome/100.0.4896.60 Safari/537.36",1536,864,1412,738,"main",907892,90,12,10,"EE","Extreme","Easier than Reference","D","k","riskyDeck","safeDeck",0,-14,-7,"left",1,0,32,"absent","riskyDeck",573,1698,-1,0
"554lfc19a2c",926.046979865772,570.05140042748,13624,"01/04/2022@17:23:40","Mozilla/5.0 (Windows NT 10.0; Win64; x64) AppleWebKit/537.36 (KHTML, like Gecko) Chrome/100.0.4896.60 Safari/537.36",1536,864,1412,738,"main",907892,91,12,10,"HE","Extreme","Harder than Reference","D","k","safeDeck","riskyDeck",28,0,14,"left",0,0,46,"absent","safeDeck",700,1466,-1,1
"554lfc19a2c",926.046979865772,570.05140042748,13624,"01/04/2022@17:23:40","Mozilla/5.0 (Windows NT 10.0; Win64; x64) AppleWebKit/537.36 (KHTML, like Gecko) Chrome/100.0.4896.60 Safari/537.36",1536,864,1412,738,"main",907892,93,12,11,"EE","Extreme","Easier than Reference","D","k","riskyDeck","safeDeck",-14,0,-7,"left",1,0,18,"absent","riskyDeck",371,1124,-1,0
"554lfc19a2c",926.046979865772,570.05140042748,13624,"01/04/2022@17:23:40","Mozilla/5.0 (Windows NT 10.0; Win64; x64) AppleWebKit/537.36 (KHTML, like Gecko) Chrome/100.0.4896.60 Safari/537.36",1536,864,1412,738,"main",907892,94,12,11,"HE","Extreme","Harder than Reference","D","j","safeDeck","riskyDeck",0,28,14,"left",0,0,46,"present","safeDeck",749,1012,-1,1
"554lfc19a2c",926.046979865772,570.05140042748,13624,"01/04/2022@17:23:40","Mozilla/5.0 (Windows NT 10.0; Win64; x64) AppleWebKit/537.36 (KHTML, like Gecko) Chrome/100.0.4896.60 Safari/537.36",1536,864,1412,738,"main",907892,96,12,11,"EM","Moderate","Easier than Reference","D","k","riskyDeck","safeDeck",0,-28,-14,"left",1,0,4,"absent","riskyDeck",872,664,-1,0
"554lfc19a2c",926.046979865772,570.05140042748,13624,"01/04/2022@17:23:40","Mozilla/5.0 (Windows NT 10.0; Win64; x64) AppleWebKit/537.36 (KHTML, like Gecko) Chrome/100.0.4896.60 Safari/537.36",1536,864,1412,738,"main",907892,97,12,11,"EM","Moderate","Easier than Reference","D","j","safeDeck","riskyDeck",-28,0,-14,"left",0,0,18,"present","safeDeck",365,961,-1,1
"554lfc19a2c",926.046979865772,570.05140042748,13624,"01/04/2022@17:23:40","Mozilla/5.0 (Windows NT 10.0; Win64; x64) AppleWebKit/537.36 (KHTML, like Gecko) Chrome/100.0.4896.60 Safari/537.36",1536,864,1412,738,"main",907892,98,12,11,"EE","Extreme","Easier than Reference","D","k","riskyDeck","safeDeck",0,-14,-7,"left",1,0,32,"absent","riskyDeck",539,1832,-1,0
"554lfc19a2c",926.046979865772,570.05140042748,13624,"01/04/2022@17:23:40","Mozilla/5.0 (Windows NT 10.0; Win64; x64) AppleWebKit/537.36 (KHTML, like Gecko) Chrome/100.0.4896.60 Safari/537.36",1536,864,1412,738,"main",907892,99,12,11,"HM","Moderate","Harder than Reference","D","k","safeDeck","riskyDeck",0,14,7,"left",0,0,39,"absent","safeDeck",726,1919,-1,1
"554lfc19a2c",926.046979865772,570.05140042748,13624,"01/04/2022@17:23:40","Mozilla/5.0 (Windows NT 10.0; Win64; x64) AppleWebKit/537.36 (KHTML, like Gecko) Chrome/100.0.4896.60 Safari/537.36",1536,864,1412,738,"main",907892,100,12,11,"HE","Extreme","Harder than Reference","F","j","riskyDeck","safeDeck",0,28,14,"right",0,0,46,"present","safeDeck",784,1150,1,1
"554lfc19a2c",926.046979865772,570.05140042748,13624,"01/04/2022@17:23:40","Mozilla/5.0 (Windows NT 10.0; Win64; x64) AppleWebKit/537.36 (KHTML, like Gecko) Chrome/100.0.4896.60 Safari/537.36",1536,864,1412,738,"main",907892,101,12,11,"HE","Extreme","Harder than Reference","D","k","riskyDeck","safeDeck",0,28,14,"left",1,0,32,"absent","riskyDeck",1095,1881,-1,0
"554lfc19a2c",926.046979865772,570.05140042748,13624,"01/04/2022@17:23:40","Mozilla/5.0 (Windows NT 10.0; Win64; x64) AppleWebKit/537.36 (KHTML, like Gecko) Chrome/100.0.4896.60 Safari/537.36",1536,864,1412,738,"main",907892,102,12,11,"EE","Extreme","Easier than Reference","D","j","riskyDeck","safeDeck",-14,0,-7,"left",1,0,18,"present","riskyDeck",568,943,-1,0
"554lfc19a2c",926.046979865772,570.05140042748,13624,"01/04/2022@17:23:40","Mozilla/5.0 (Windows NT 10.0; Win64; x64) AppleWebKit/537.36 (KHTML, like Gecko) Chrome/100.0.4896.60 Safari/537.36",1536,864,1412,738,"main",907892,103,12,11,"EM","Moderate","Easier than Reference","D","j","riskyDeck","safeDeck",0,-28,-14,"left",1,0,32,"present","riskyDeck",598,1184,-1,0
"554lfc19a2c",926.046979865772,570.05140042748,13624,"01/04/2022@17:23:40","Mozilla/5.0 (Windows NT 10.0; Win64; x64) AppleWebKit/537.36 (KHTML, like Gecko) Chrome/100.0.4896.60 Safari/537.36",1536,864,1412,738,"main",907892,104,13,11,"HM","Moderate","Harder than Reference","D","k","riskyDeck","safeDeck",0,14,7,"left",1,0,46,"absent","riskyDeck",1348,1868,-1,0
"554lfc19a2c",926.046979865772,570.05140042748,13624,"01/04/2022@17:23:40","Mozilla/5.0 (Windows NT 10.0; Win64; x64) AppleWebKit/537.36 (KHTML, like Gecko) Chrome/100.0.4896.60 Safari/537.36",1536,864,1412,738,"main",907892,106,13,12,"EM","Moderate","Easier than Reference","D","k","riskyDeck","safeDeck",-28,0,-14,"left",1,0,4,"absent","riskyDeck",672,1148,-1,0
"554lfc19a2c",926.046979865772,570.05140042748,13624,"01/04/2022@17:23:40","Mozilla/5.0 (Windows NT 10.0; Win64; x64) AppleWebKit/537.36 (KHTML, like Gecko) Chrome/100.0.4896.60 Safari/537.36",1536,864,1412,738,"main",907892,107,13,12,"EE","Extreme","Easier than Reference","D","j","riskyDeck","safeDeck",-14,0,-7,"left",1,0,18,"present","riskyDeck",1005,791,-1,0
"554lfc19a2c",926.046979865772,570.05140042748,13624,"01/04/2022@17:23:40","Mozilla/5.0 (Windows NT 10.0; Win64; x64) AppleWebKit/537.36 (KHTML, like Gecko) Chrome/100.0.4896.60 Safari/537.36",1536,864,1412,738,"main",907892,108,13,12,"HE","Extreme","Harder than Reference","F","k","riskyDeck","safeDeck",0,28,14,"right",0,0,46,"absent","safeDeck",902,2395,1,1
"554lfc19a2c",926.046979865772,570.05140042748,13624,"01/04/2022@17:23:40","Mozilla/5.0 (Windows NT 10.0; Win64; x64) AppleWebKit/537.36 (KHTML, like Gecko) Chrome/100.0.4896.60 Safari/537.36",1536,864,1412,738,"main",907892,109,13,12,"HE","Extreme","Harder than Reference","F","k","riskyDeck","safeDeck",0,28,14,"right",0,0,46,"absent","safeDeck",950,1871,1,1
"554lfc19a2c",926.046979865772,570.05140042748,13624,"01/04/2022@17:23:40","Mozilla/5.0 (Windows NT 10.0; Win64; x64) AppleWebKit/537.36 (KHTML, like Gecko) Chrome/100.0.4896.60 Safari/537.36",1536,864,1412,738,"main",907892,110,13,12,"HM","Moderate","Harder than Reference","D","k","riskyDeck","safeDeck",14,0,7,"left",1,0,46,"absent","riskyDeck",386,1693,-1,0
"554lfc19a2c",926.046979865772,570.05140042748,13624,"01/04/2022@17:23:40","Mozilla/5.0 (Windows NT 10.0; Win64; x64) AppleWebKit/537.36 (KHTML, like Gecko) Chrome/100.0.4896.60 Safari/537.36",1536,864,1412,738,"main",907892,111,13,12,"EM","Moderate","Easier than Reference","D","j","riskyDeck","safeDeck",-28,0,-14,"left",1,0,4,"present","riskyDeck",722,939,-1,0
"554lfc19a2c",926.046979865772,570.05140042748,13624,"01/04/2022@17:23:40","Mozilla/5.0 (Windows NT 10.0; Win64; x64) AppleWebKit/537.36 (KHTML, like Gecko) Chrome/100.0.4896.60 Safari/537.36",1536,864,1412,738,"main",907892,112,13,12,"EE","Extreme","Easier than Reference","D","j","safeDeck","riskyDeck",0,-14,-7,"left",0,0,25,"present","safeDeck",476,785,-1,1
"554lfc19a2c",926.046979865772,570.05140042748,13624,"01/04/2022@17:23:40","Mozilla/5.0 (Windows NT 10.0; Win64; x64) AppleWebKit/537.36 (KHTML, like Gecko) Chrome/100.0.4896.60 Safari/537.36",1536,864,1412,738,"main",907892,113,13,12,"EE","Extreme","Easier than Reference","D","k","safeDeck","riskyDeck",-14,0,-7,"left",0,0,25,"absent","safeDeck",683,1294,-1,1
"554lfc19a2c",926.046979865772,570.05140042748,13624,"01/04/2022@17:23:40","Mozilla/5.0 (Windows NT 10.0; Win64; x64) AppleWebKit/537.36 (KHTML, like Gecko) Chrome/100.0.4896.60 Safari/537.36",1536,864,1412,738,"main",907892,114,13,12,"EM","Moderate","Easier than Reference","D","j","safeDeck","riskyDeck",-28,0,-14,"left",0,0,18,"present","safeDeck",623,677,-1,1
"554lfc19a2c",926.046979865772,570.05140042748,13624,"01/04/2022@17:23:40","Mozilla/5.0 (Windows NT 10.0; Win64; x64) AppleWebKit/537.36 (KHTML, like Gecko) Chrome/100.0.4896.60 Safari/537.36",1536,864,1412,738,"main",907892,115,13,12,"HE","Extreme","Harder than Reference","D","j","riskyDeck","safeDeck",28,0,14,"left",1,0,60,"present","riskyDeck",1075,2195,-1,0
"554lfc19a2c",926.046979865772,570.05140042748,13624,"01/04/2022@17:23:40","Mozilla/5.0 (Windows NT 10.0; Win64; x64) AppleWebKit/537.36 (KHTML, like Gecko) Chrome/100.0.4896.60 Safari/537.36",1536,864,1412,738,"main",907892,116,13,12,"HM","Moderate","Harder than Reference","D","k","safeDeck","riskyDeck",0,14,7,"left",0,0,39,"absent","safeDeck",907,1606,-1,1
"554lfc19a2c",926.046979865772,570.05140042748,13624,"01/04/2022@17:23:40","Mozilla/5.0 (Windows NT 10.0; Win64; x64) AppleWebKit/537.36 (KHTML, like Gecko) Chrome/100.0.4896.60 Safari/537.36",1536,864,1412,738,"main",907892,117,14,12,"EE","Extreme","Easier than Reference","D","j","riskyDeck","safeDeck",0,-14,-7,"left",1,0,18,"present","riskyDeck",669,785,-1,0
"554lfc19a2c",926.046979865772,570.05140042748,13624,"01/04/2022@17:23:40","Mozilla/5.0 (Windows NT 10.0; Win64; x64) AppleWebKit/537.36 (KHTML, like Gecko) Chrome/100.0.4896.60 Safari/537.36",1536,864,1412,738,"main",907892,118,14,12,"HE","Extreme","Harder than Reference","D","j","riskyDeck","safeDeck",28,0,14,"left",1,0,32,"present","riskyDeck",459,1254,-1,0
"554lfc19a2c",926.046979865772,570.05140042748,13624,"01/04/2022@17:23:40","Mozilla/5.0 (Windows NT 10.0; Win64; x64) AppleWebKit/537.36 (KHTML, like Gecko) Chrome/100.0.4896.60 Safari/537.36",1536,864,1412,738,"main",907892,119,14,13,"EM","Moderate","Easier than Reference","D","j","safeDeck","riskyDeck",-28,0,-14,"left",0,0,18,"present","safeDeck",526,1386,-1,1
"554lfc19a2c",926.046979865772,570.05140042748,13624,"01/04/2022@17:23:40","Mozilla/5.0 (Windows NT 10.0; Win64; x64) AppleWebKit/537.36 (KHTML, like Gecko) Chrome/100.0.4896.60 Safari/537.36",1536,864,1412,738,"main",907892,120,14,13,"HM","Moderate","Harder than Reference","F","j","riskyDeck","safeDeck",14,0,7,"right",0,0,39,"present","safeDeck",547,961,1,1
"554lfc19a2c",926.046979865772,570.05140042748,13624,"01/04/2022@17:23:40","Mozilla/5.0 (Windows NT 10.0; Win64; x64) AppleWebKit/537.36 (KHTML, like Gecko) Chrome/100.0.4896.60 Safari/537.36",1536,864,1412,738,"main",907892,121,14,13,"HE","Extreme","Harder than Reference","D","k","safeDeck","riskyDeck",28,0,14,"left",0,1,46,"present","safeDeck",683,2000,-1,1
"554lfc19a2c",926.046979865772,570.05140042748,13624,"01/04/2022@17:23:40","Mozilla/5.0 (Windows NT 10.0; Win64; x64) AppleWebKit/537.36 (KHTML, like Gecko) Chrome/100.0.4896.60 Safari/537.36",1536,864,1412,738,"main",907892,122,14,13,"HM","Moderate","Harder than Reference","D","j","riskyDeck","safeDeck",0,14,7,"left",1,0,46,"present","riskyDeck",550,866,-1,0
"554lfc19a2c",926.046979865772,570.05140042748,13624,"01/04/2022@17:23:40","Mozilla/5.0 (Windows NT 10.0; Win64; x64) AppleWebKit/537.36 (KHTML, like Gecko) Chrome/100.0.4896.60 Safari/537.36",1536,864,1412,738,"main",907892,123,14,13,"EM","Moderate","Easier than Reference","D","k","riskyDeck","safeDeck",-28,0,-14,"left",1,0,4,"absent","riskyDeck",681,1091,-1,0
"554lfc19a2c",926.046979865772,570.05140042748,13624,"01/04/2022@17:23:40","Mozilla/5.0 (Windows NT 10.0; Win64; x64) AppleWebKit/537.36 (KHTML, like Gecko) Chrome/100.0.4896.60 Safari/537.36",1536,864,1412,738,"main",907892,124,14,13,"EE","Extreme","Easier than Reference","D","k","riskyDeck","safeDeck",-14,0,-7,"left",1,0,18,"absent","riskyDeck",544,1133,-1,0
"554lfc19a2c",926.046979865772,570.05140042748,13624,"01/04/2022@17:23:40","Mozilla/5.0 (Windows NT 10.0; Win64; x64) AppleWebKit/537.36 (KHTML, like Gecko) Chrome/100.0.4896.60 Safari/537.36",1536,864,1412,738,"main",907892,125,14,13,"HE","Extreme","Harder than Reference","F","k","riskyDeck","safeDeck",28,0,14,"right",0,0,46,"absent","safeDeck",742,1390,1,1
"554lfc19a2c",926.046979865772,570.05140042748,13624,"01/04/2022@17:23:40","Mozilla/5.0 (Windows NT 10.0; Win64; x64) AppleWebKit/537.36 (KHTML, like Gecko) Chrome/100.0.4896.60 Safari/537.36",1536,864,1412,738,"main",907892,126,14,13,"HM","Moderate","Harder than Reference","D","k","safeDeck","riskyDeck",14,0,7,"left",0,0,39,"absent","safeDeck",896,1638,-1,1
"554lfc19a2c",926.046979865772,570.05140042748,13624,"01/04/2022@17:23:40","Mozilla/5.0 (Windows NT 10.0; Win64; x64) AppleWebKit/537.36 (KHTML, like Gecko) Chrome/100.0.4896.60 Safari/537.36",1536,864,1412,738,"main",907892,127,14,13,"EM","Moderate","Easier than Reference","D","k","riskyDeck","safeDeck",0,-28,-14,"left",1,0,32,"absent","riskyDeck",670,1483,-1,0
"554lfc19a2c",926.046979865772,570.05140042748,13624,"01/04/2022@17:23:40","Mozilla/5.0 (Windows NT 10.0; Win64; x64) AppleWebKit/537.36 (KHTML, like Gecko) Chrome/100.0.4896.60 Safari/537.36",1536,864,1412,738,"main",907892,128,14,13,"EE","Extreme","Easier than Reference","D","j","safeDeck","riskyDeck",0,-14,-7,"left",0,0,25,"present","safeDeck",658,1589,-1,1
"554lfc19a2c",926.046979865772,570.05140042748,13624,"01/04/2022@17:23:40","Mozilla/5.0 (Windows NT 10.0; Win64; x64) AppleWebKit/537.36 (KHTML, like Gecko) Chrome/100.0.4896.60 Safari/537.36",1536,864,1412,738,"main",907892,129,14,13,"EM","Moderate","Easier than Reference","D","k","riskyDeck","safeDeck",-28,0,-14,"left",1,0,4,"absent","riskyDeck",862,894,-1,0
"554lfc19a2c",926.046979865772,570.05140042748,13624,"01/04/2022@17:23:40","Mozilla/5.0 (Windows NT 10.0; Win64; x64) AppleWebKit/537.36 (KHTML, like Gecko) Chrome/100.0.4896.60 Safari/537.36",1536,864,1412,738,"main",907892,130,14,13,"EE","Extreme","Easier than Reference","D","j","riskyDeck","safeDeck",0,-14,-7,"left",1,0,32,"present","riskyDeck",831,1166,-1,0
"554lfc19a2c",926.046979865772,570.05140042748,13624,"01/04/2022@17:23:40","Mozilla/5.0 (Windows NT 10.0; Win64; x64) AppleWebKit/537.36 (KHTML, like Gecko) Chrome/100.0.4896.60 Safari/537.36",1536,864,1412,738,"main",907892,131,15,13,"HE","Extreme","Harder than Reference","F","j","riskyDeck","safeDeck",28,0,14,"right",0,0,46,"present","safeDeck",754,2109,1,1
"554lfc19a2c",926.046979865772,570.05140042748,13624,"01/04/2022@17:23:40","Mozilla/5.0 (Windows NT 10.0; Win64; x64) AppleWebKit/537.36 (KHTML, like Gecko) Chrome/100.0.4896.60 Safari/537.36",1536,864,1412,738,"main",907892,132,15,13,"HM","Moderate","Harder than Reference","D","j","safeDeck","riskyDeck",0,14,7,"left",0,0,39,"present","safeDeck",639,630,-1,1
"554lfc19a2c",926.046979865772,570.05140042748,13624,"01/04/2022@17:23:40","Mozilla/5.0 (Windows NT 10.0; Win64; x64) AppleWebKit/537.36 (KHTML, like Gecko) Chrome/100.0.4896.60 Safari/537.36",1536,864,1412,738,"main",907892,134,15,14,"EM","Moderate","Easier than Reference","D","k","safeDeck","riskyDeck",0,-28,-14,"left",0,0,18,"absent","safeDeck",1668,909,-1,1
"554lfc19a2c",926.046979865772,570.05140042748,13624,"01/04/2022@17:23:40","Mozilla/5.0 (Windows NT 10.0; Win64; x64) AppleWebKit/537.36 (KHTML, like Gecko) Chrome/100.0.4896.60 Safari/537.36",1536,864,1412,738,"main",907892,135,15,14,"HM","Moderate","Harder than Reference","F","j","safeDeck","riskyDeck",0,14,7,"right",1,0,32,"present","riskyDeck",749,1749,1,0
"554lfc19a2c",926.046979865772,570.05140042748,13624,"01/04/2022@17:23:40","Mozilla/5.0 (Windows NT 10.0; Win64; x64) AppleWebKit/537.36 (KHTML, like Gecko) Chrome/100.0.4896.60 Safari/537.36",1536,864,1412,738,"main",907892,136,15,14,"EE","Extreme","Easier than Reference","D","j","riskyDeck","safeDeck",-14,0,-7,"left",1,0,18,"present","riskyDeck",766,997,-1,0
"554lfc19a2c",926.046979865772,570.05140042748,13624,"01/04/2022@17:23:40","Mozilla/5.0 (Windows NT 10.0; Win64; x64) AppleWebKit/537.36 (KHTML, like Gecko) Chrome/100.0.4896.60 Safari/537.36",1536,864,1412,738,"main",907892,137,15,14,"HM","Moderate","Harder than Reference","D","k","safeDeck","riskyDeck",0,14,7,"left",0,0,39,"absent","safeDeck",813,1250,-1,1
"554lfc19a2c",926.046979865772,570.05140042748,13624,"01/04/2022@17:23:40","Mozilla/5.0 (Windows NT 10.0; Win64; x64) AppleWebKit/537.36 (KHTML, like Gecko) Chrome/100.0.4896.60 Safari/537.36",1536,864,1412,738,"main",907892,138,15,14,"HE","Extreme","Harder than Reference","D","k","riskyDeck","safeDeck",0,28,14,"left",1,0,32,"absent","riskyDeck",562,1973,-1,0
"554lfc19a2c",926.046979865772,570.05140042748,13624,"01/04/2022@17:23:40","Mozilla/5.0 (Windows NT 10.0; Win64; x64) AppleWebKit/537.36 (KHTML, like Gecko) Chrome/100.0.4896.60 Safari/537.36",1536,864,1412,738,"main",907892,139,15,14,"EM","Moderate","Easier than Reference","F","j","safeDeck","riskyDeck",0,-28,-14,"right",1,0,32,"present","riskyDeck",707,912,1,0
"554lfc19a2c",926.046979865772,570.05140042748,13624,"01/04/2022@17:23:40","Mozilla/5.0 (Windows NT 10.0; Win64; x64) AppleWebKit/537.36 (KHTML, like Gecko) Chrome/100.0.4896.60 Safari/537.36",1536,864,1412,738,"main",907892,140,15,14,"EE","Extreme","Easier than Reference","D","k","riskyDeck","safeDeck",0,-14,-7,"left",1,0,18,"absent","riskyDeck",449,1293,-1,0
"554lfc19a2c",926.046979865772,570.05140042748,13624,"01/04/2022@17:23:40","Mozilla/5.0 (Windows NT 10.0; Win64; x64) AppleWebKit/537.36 (KHTML, like Gecko) Chrome/100.0.4896.60 Safari/537.36",1536,864,1412,738,"main",907892,141,15,14,"HM","Moderate","Harder than Reference","D","k","safeDeck","riskyDeck",0,14,7,"left",0,0,39,"absent","safeDeck",713,1857,-1,1
"554lfc19a2c",926.046979865772,570.05140042748,13624,"01/04/2022@17:23:40","Mozilla/5.0 (Windows NT 10.0; Win64; x64) AppleWebKit/537.36 (KHTML, like Gecko) Chrome/100.0.4896.60 Safari/537.36",1536,864,1412,738,"main",907892,142,15,14,"EE","Extreme","Easier than Reference","D","j","safeDeck","riskyDeck",0,-14,-7,"left",0,0,25,"present","safeDeck",503,727,-1,1
"554lfc19a2c",926.046979865772,570.05140042748,13624,"01/04/2022@17:23:40","Mozilla/5.0 (Windows NT 10.0; Win64; x64) AppleWebKit/537.36 (KHTML, like Gecko) Chrome/100.0.4896.60 Safari/537.36",1536,864,1412,738,"main",907892,143,15,14,"EM","Moderate","Easier than Reference","D","k","safeDeck","riskyDeck",0,-28,-14,"left",0,0,18,"absent","safeDeck",576,1809,-1,1
