subject,sona_id,curTime,userAgent,screenWidth,screenHeight,windowWidth,windowHeight,phase,phase_run_time,trial,exp_runtime_mins,phase_runtime_mins,condition,magnitude,direction,choice_response_key,search_response_key,left_deck_id,right_deck_id,risky_deck_outcome_top,risky_deck_outcome_bottom,safe_deck_outcome,selected_deck_location,selectedRiskyDeck,error,n_stimuli,present_or_absent,chosenDeckId,choice_rt,search_rt
6yszjvjgmg7,13482,04/04/2022@12:44:56,"Mozilla/5.0 (Macintosh; Intel Mac OS X 10_15_7) AppleWebKit/537.36 (KHTML, like Gecko) Chrome/100.0.4896.60 Safari/537.36",1440,900,1384,707,main,1352964,1,6,4,EM,Moderate,Easier than Reference,D,j,riskyDeck,safeDeck,-28,0,-14,left,1,0,32,present,riskyDeck,6981,2916
6yszjvjgmg7,13482,04/04/2022@12:44:56,"Mozilla/5.0 (Macintosh; Intel Mac OS X 10_15_7) AppleWebKit/537.36 (KHTML, like Gecko) Chrome/100.0.4896.60 Safari/537.36",1440,900,1384,707,main,1352964,2,7,5,EE,Extreme,Easier than Reference,D,k,riskyDeck,safeDeck,-14,0,-7,left,1,0,18,absent,riskyDeck,3871,9944
6yszjvjgmg7,13482,04/04/2022@12:44:56,"Mozilla/5.0 (Macintosh; Intel Mac OS X 10_15_7) AppleWebKit/537.36 (KHTML, like Gecko) Chrome/100.0.4896.60 Safari/537.36",1440,900,1384,707,main,1352964,3,7,5,HM,Moderate,Harder than Reference,F,j,riskyDeck,safeDeck,14,0,7,right,0,0,39,present,safeDeck,2372,4047
6yszjvjgmg7,13482,04/04/2022@12:44:56,"Mozilla/5.0 (Macintosh; Intel Mac OS X 10_15_7) AppleWebKit/537.36 (KHTML, like Gecko) Chrome/100.0.4896.60 Safari/537.36",1440,900,1384,707,main,1352964,4,7,5,HE,Extreme,Harder than Reference,D,j,riskyDeck,safeDeck,0,28,14,left,1,0,32,present,riskyDeck,5529,4789
6yszjvjgmg7,13482,04/04/2022@12:44:56,"Mozilla/5.0 (Macintosh; Intel Mac OS X 10_15_7) AppleWebKit/537.36 (KHTML, like Gecko) Chrome/100.0.4896.60 Safari/537.36",1440,900,1384,707,main,1352964,5,7,5,HE,Extreme,Harder than Reference,F,k,safeDeck,riskyDeck,28,0,14,right,1,0,60,absent,riskyDeck,2252,12173
6yszjvjgmg7,13482,04/04/2022@12:44:56,"Mozilla/5.0 (Macintosh; Intel Mac OS X 10_15_7) AppleWebKit/537.36 (KHTML, like Gecko) Chrome/100.0.4896.60 Safari/537.36",1440,900,1384,707,main,1352964,6,7,5,EM,Moderate,Easier than Reference,D,j,riskyDeck,safeDeck,-28,0,-14,left,1,0,32,present,riskyDeck,6516,2143
6yszjvjgmg7,13482,04/04/2022@12:44:56,"Mozilla/5.0 (Macintosh; Intel Mac OS X 10_15_7) AppleWebKit/537.36 (KHTML, like Gecko) Chrome/100.0.4896.60 Safari/537.36",1440,900,1384,707,main,1352964,7,8,6,HM,Moderate,Harder than Reference,F,k,riskyDeck,safeDeck,0,14,7,right,0,0,39,absent,safeDeck,1852,7199
6yszjvjgmg7,13482,04/04/2022@12:44:56,"Mozilla/5.0 (Macintosh; Intel Mac OS X 10_15_7) AppleWebKit/537.36 (KHTML, like Gecko) Chrome/100.0.4896.60 Safari/537.36",1440,900,1384,707,main,1352964,8,8,6,EE,Extreme,Easier than Reference,D,k,riskyDeck,safeDeck,0,-14,-7,left,1,0,18,absent,riskyDeck,2349,6394
6yszjvjgmg7,13482,04/04/2022@12:44:56,"Mozilla/5.0 (Macintosh; Intel Mac OS X 10_15_7) AppleWebKit/537.36 (KHTML, like Gecko) Chrome/100.0.4896.60 Safari/537.36",1440,900,1384,707,main,1352964,9,8,6,EE,Extreme,Easier than Reference,F,k,safeDeck,riskyDeck,0,-14,-7,right,1,0,32,absent,riskyDeck,1118,10880
6yszjvjgmg7,13482,04/04/2022@12:44:56,"Mozilla/5.0 (Macintosh; Intel Mac OS X 10_15_7) AppleWebKit/537.36 (KHTML, like Gecko) Chrome/100.0.4896.60 Safari/537.36",1440,900,1384,707,main,1352964,10,8,6,HM,Moderate,Harder than Reference,F,k,riskyDeck,safeDeck,0,14,7,right,0,0,39,absent,safeDeck,2450,9799
6yszjvjgmg7,13482,04/04/2022@12:44:56,"Mozilla/5.0 (Macintosh; Intel Mac OS X 10_15_7) AppleWebKit/537.36 (KHTML, like Gecko) Chrome/100.0.4896.60 Safari/537.36",1440,900,1384,707,main,1352964,11,8,6,EM,Moderate,Easier than Reference,F,k,riskyDeck,safeDeck,0,-28,-14,right,0,0,18,absent,safeDeck,1758,8210
6yszjvjgmg7,13482,04/04/2022@12:44:56,"Mozilla/5.0 (Macintosh; Intel Mac OS X 10_15_7) AppleWebKit/537.36 (KHTML, like Gecko) Chrome/100.0.4896.60 Safari/537.36",1440,900,1384,707,main,1352964,12,9,7,HE,Extreme,Harder than Reference,F,j,safeDeck,riskyDeck,28,0,14,right,1,0,32,present,riskyDeck,2887,6149
6yszjvjgmg7,13482,04/04/2022@12:44:56,"Mozilla/5.0 (Macintosh; Intel Mac OS X 10_15_7) AppleWebKit/537.36 (KHTML, like Gecko) Chrome/100.0.4896.60 Safari/537.36",1440,900,1384,707,main,1352964,13,9,7,EE,Extreme,Easier than Reference,D,k,safeDeck,riskyDeck,-14,0,-7,left,0,0,25,absent,safeDeck,1159,4973
6yszjvjgmg7,13482,04/04/2022@12:44:56,"Mozilla/5.0 (Macintosh; Intel Mac OS X 10_15_7) AppleWebKit/537.36 (KHTML, like Gecko) Chrome/100.0.4896.60 Safari/537.36",1440,900,1384,707,main,1352964,14,9,7,HM,Moderate,Harder than Reference,F,j,safeDeck,riskyDeck,14,0,7,right,1,0,32,present,riskyDeck,1494,2148
6yszjvjgmg7,13482,04/04/2022@12:44:56,"Mozilla/5.0 (Macintosh; Intel Mac OS X 10_15_7) AppleWebKit/537.36 (KHTML, like Gecko) Chrome/100.0.4896.60 Safari/537.36",1440,900,1384,707,main,1352964,15,9,7,EM,Moderate,Easier than Reference,F,j,riskyDeck,safeDeck,0,-28,-14,right,0,0,18,present,safeDeck,2398,1865
6yszjvjgmg7,13482,04/04/2022@12:44:56,"Mozilla/5.0 (Macintosh; Intel Mac OS X 10_15_7) AppleWebKit/537.36 (KHTML, like Gecko) Chrome/100.0.4896.60 Safari/537.36",1440,900,1384,707,main,1352964,16,9,7,HE,Extreme,Harder than Reference,D,j,safeDeck,riskyDeck,28,0,14,left,0,0,46,present,safeDeck,1277,6123
6yszjvjgmg7,13482,04/04/2022@12:44:56,"Mozilla/5.0 (Macintosh; Intel Mac OS X 10_15_7) AppleWebKit/537.36 (KHTML, like Gecko) Chrome/100.0.4896.60 Safari/537.36",1440,900,1384,707,main,1352964,17,9,7,HE,Extreme,Harder than Reference,F,j,safeDeck,riskyDeck,0,28,14,right,1,0,32,present,riskyDeck,1458,2695
6yszjvjgmg7,13482,04/04/2022@12:44:56,"Mozilla/5.0 (Macintosh; Intel Mac OS X 10_15_7) AppleWebKit/537.36 (KHTML, like Gecko) Chrome/100.0.4896.60 Safari/537.36",1440,900,1384,707,main,1352964,18,9,7,HM,Moderate,Harder than Reference,F,j,riskyDeck,safeDeck,14,0,7,right,0,0,39,present,safeDeck,2875,1497
6yszjvjgmg7,13482,04/04/2022@12:44:56,"Mozilla/5.0 (Macintosh; Intel Mac OS X 10_15_7) AppleWebKit/537.36 (KHTML, like Gecko) Chrome/100.0.4896.60 Safari/537.36",1440,900,1384,707,main,1352964,19,9,7,EE,Extreme,Easier than Reference,D,j,riskyDeck,safeDeck,0,-14,-7,left,1,0,18,present,riskyDeck,1941,1527
6yszjvjgmg7,13482,04/04/2022@12:44:56,"Mozilla/5.0 (Macintosh; Intel Mac OS X 10_15_7) AppleWebKit/537.36 (KHTML, like Gecko) Chrome/100.0.4896.60 Safari/537.36",1440,900,1384,707,main,1352964,20,9,7,EM,Moderate,Easier than Reference,F,k,riskyDeck,safeDeck,0,-28,-14,right,0,0,18,absent,safeDeck,2308,2775
6yszjvjgmg7,13482,04/04/2022@12:44:56,"Mozilla/5.0 (Macintosh; Intel Mac OS X 10_15_7) AppleWebKit/537.36 (KHTML, like Gecko) Chrome/100.0.4896.60 Safari/537.36",1440,900,1384,707,main,1352964,21,10,8,HM,Moderate,Harder than Reference,F,k,riskyDeck,safeDeck,14,0,7,right,0,0,39,absent,safeDeck,1364,6346
6yszjvjgmg7,13482,04/04/2022@12:44:56,"Mozilla/5.0 (Macintosh; Intel Mac OS X 10_15_7) AppleWebKit/537.36 (KHTML, like Gecko) Chrome/100.0.4896.60 Safari/537.36",1440,900,1384,707,main,1352964,22,10,8,EE,Extreme,Easier than Reference,F,k,safeDeck,riskyDeck,0,-14,-7,right,1,0,32,absent,riskyDeck,1896,4221
6yszjvjgmg7,13482,04/04/2022@12:44:56,"Mozilla/5.0 (Macintosh; Intel Mac OS X 10_15_7) AppleWebKit/537.36 (KHTML, like Gecko) Chrome/100.0.4896.60 Safari/537.36",1440,900,1384,707,main,1352964,23,10,8,EM,Moderate,Easier than Reference,D,k,riskyDeck,safeDeck,0,-28,-14,left,1,0,32,absent,riskyDeck,816,7284
6yszjvjgmg7,13482,04/04/2022@12:44:56,"Mozilla/5.0 (Macintosh; Intel Mac OS X 10_15_7) AppleWebKit/537.36 (KHTML, like Gecko) Chrome/100.0.4896.60 Safari/537.36",1440,900,1384,707,main,1352964,24,10,8,HE,Extreme,Harder than Reference,D,k,safeDeck,riskyDeck,28,0,14,left,0,0,46,absent,safeDeck,1860,9479
6yszjvjgmg7,13482,04/04/2022@12:44:56,"Mozilla/5.0 (Macintosh; Intel Mac OS X 10_15_7) AppleWebKit/537.36 (KHTML, like Gecko) Chrome/100.0.4896.60 Safari/537.36",1440,900,1384,707,main,1352964,25,10,8,HM,Moderate,Harder than Reference,F,j,safeDeck,riskyDeck,14,0,7,right,1,0,32,present,riskyDeck,2437,1754
6yszjvjgmg7,13482,04/04/2022@12:44:56,"Mozilla/5.0 (Macintosh; Intel Mac OS X 10_15_7) AppleWebKit/537.36 (KHTML, like Gecko) Chrome/100.0.4896.60 Safari/537.36",1440,900,1384,707,main,1352964,26,10,8,EE,Extreme,Easier than Reference,D,k,riskyDeck,safeDeck,0,-14,-7,left,1,0,18,absent,riskyDeck,3959,2349
6yszjvjgmg7,13482,04/04/2022@12:44:56,"Mozilla/5.0 (Macintosh; Intel Mac OS X 10_15_7) AppleWebKit/537.36 (KHTML, like Gecko) Chrome/100.0.4896.60 Safari/537.36",1440,900,1384,707,main,1352964,27,10,8,EM,Moderate,Easier than Reference,F,j,riskyDeck,safeDeck,-28,0,-14,right,0,0,18,present,safeDeck,947,2037
6yszjvjgmg7,13482,04/04/2022@12:44:56,"Mozilla/5.0 (Macintosh; Intel Mac OS X 10_15_7) AppleWebKit/537.36 (KHTML, like Gecko) Chrome/100.0.4896.60 Safari/537.36",1440,900,1384,707,main,1352964,28,10,8,HE,Extreme,Harder than Reference,D,j,riskyDeck,safeDeck,28,0,14,left,1,0,60,present,riskyDeck,1484,1635
6yszjvjgmg7,13482,04/04/2022@12:44:56,"Mozilla/5.0 (Macintosh; Intel Mac OS X 10_15_7) AppleWebKit/537.36 (KHTML, like Gecko) Chrome/100.0.4896.60 Safari/537.36",1440,900,1384,707,main,1352964,29,11,9,HM,Moderate,Harder than Reference,F,j,riskyDeck,safeDeck,14,0,7,right,0,0,39,present,safeDeck,1106,3492
6yszjvjgmg7,13482,04/04/2022@12:44:56,"Mozilla/5.0 (Macintosh; Intel Mac OS X 10_15_7) AppleWebKit/537.36 (KHTML, like Gecko) Chrome/100.0.4896.60 Safari/537.36",1440,900,1384,707,main,1352964,30,11,9,EM,Moderate,Easier than Reference,D,j,riskyDeck,safeDeck,0,-28,-14,left,1,0,4,present,riskyDeck,1452,934
6yszjvjgmg7,13482,04/04/2022@12:44:56,"Mozilla/5.0 (Macintosh; Intel Mac OS X 10_15_7) AppleWebKit/537.36 (KHTML, like Gecko) Chrome/100.0.4896.60 Safari/537.36",1440,900,1384,707,main,1352964,31,11,9,EE,Extreme,Easier than Reference,F,j,safeDeck,riskyDeck,0,-14,-7,right,1,0,32,present,riskyDeck,2003,4255
6yszjvjgmg7,13482,04/04/2022@12:44:56,"Mozilla/5.0 (Macintosh; Intel Mac OS X 10_15_7) AppleWebKit/537.36 (KHTML, like Gecko) Chrome/100.0.4896.60 Safari/537.36",1440,900,1384,707,main,1352964,32,11,9,HE,Extreme,Harder than Reference,D,k,riskyDeck,safeDeck,0,28,14,left,1,0,60,absent,riskyDeck,2885,9638
6yszjvjgmg7,13482,04/04/2022@12:44:56,"Mozilla/5.0 (Macintosh; Intel Mac OS X 10_15_7) AppleWebKit/537.36 (KHTML, like Gecko) Chrome/100.0.4896.60 Safari/537.36",1440,900,1384,707,main,1352964,33,11,9,EM,Moderate,Easier than Reference,D,k,riskyDeck,safeDeck,-28,0,-14,left,1,0,32,absent,riskyDeck,1713,4342
6yszjvjgmg7,13482,04/04/2022@12:44:56,"Mozilla/5.0 (Macintosh; Intel Mac OS X 10_15_7) AppleWebKit/537.36 (KHTML, like Gecko) Chrome/100.0.4896.60 Safari/537.36",1440,900,1384,707,main,1352964,34,11,9,HM,Moderate,Harder than Reference,D,k,riskyDeck,safeDeck,14,0,7,left,1,0,32,absent,riskyDeck,2437,4482
6yszjvjgmg7,13482,04/04/2022@12:44:56,"Mozilla/5.0 (Macintosh; Intel Mac OS X 10_15_7) AppleWebKit/537.36 (KHTML, like Gecko) Chrome/100.0.4896.60 Safari/537.36",1440,900,1384,707,main,1352964,35,11,9,EE,Extreme,Easier than Reference,D,j,riskyDeck,safeDeck,0,-14,-7,left,1,0,18,present,riskyDeck,2372,1214
6yszjvjgmg7,13482,04/04/2022@12:44:56,"Mozilla/5.0 (Macintosh; Intel Mac OS X 10_15_7) AppleWebKit/537.36 (KHTML, like Gecko) Chrome/100.0.4896.60 Safari/537.36",1440,900,1384,707,main,1352964,36,12,9,HE,Extreme,Harder than Reference,D,j,riskyDeck,safeDeck,0,28,14,left,1,0,32,present,riskyDeck,2334,2878
6yszjvjgmg7,13482,04/04/2022@12:44:56,"Mozilla/5.0 (Macintosh; Intel Mac OS X 10_15_7) AppleWebKit/537.36 (KHTML, like Gecko) Chrome/100.0.4896.60 Safari/537.36",1440,900,1384,707,main,1352964,37,12,10,EE,Extreme,Easier than Reference,D,j,safeDeck,riskyDeck,-14,0,-7,left,0,0,25,present,safeDeck,1837,2588
6yszjvjgmg7,13482,04/04/2022@12:44:56,"Mozilla/5.0 (Macintosh; Intel Mac OS X 10_15_7) AppleWebKit/537.36 (KHTML, like Gecko) Chrome/100.0.4896.60 Safari/537.36",1440,900,1384,707,main,1352964,38,12,10,EM,Moderate,Easier than Reference,F,k,safeDeck,riskyDeck,-28,0,-14,right,1,0,32,absent,riskyDeck,3246,5871
6yszjvjgmg7,13482,04/04/2022@12:44:56,"Mozilla/5.0 (Macintosh; Intel Mac OS X 10_15_7) AppleWebKit/537.36 (KHTML, like Gecko) Chrome/100.0.4896.60 Safari/537.36",1440,900,1384,707,main,1352964,39,12,10,HM,Moderate,Harder than Reference,F,k,riskyDeck,safeDeck,14,0,7,right,0,0,39,absent,safeDeck,3598,4128
6yszjvjgmg7,13482,04/04/2022@12:44:56,"Mozilla/5.0 (Macintosh; Intel Mac OS X 10_15_7) AppleWebKit/537.36 (KHTML, like Gecko) Chrome/100.0.4896.60 Safari/537.36",1440,900,1384,707,main,1352964,40,12,10,HE,Extreme,Harder than Reference,D,k,riskyDeck,safeDeck,0,28,14,left,1,0,60,absent,riskyDeck,1897,8559
6yszjvjgmg7,13482,04/04/2022@12:44:56,"Mozilla/5.0 (Macintosh; Intel Mac OS X 10_15_7) AppleWebKit/537.36 (KHTML, like Gecko) Chrome/100.0.4896.60 Safari/537.36",1440,900,1384,707,main,1352964,41,12,10,HE,Extreme,Harder than Reference,D,k,safeDeck,riskyDeck,28,0,14,left,0,0,46,absent,safeDeck,2146,6572
6yszjvjgmg7,13482,04/04/2022@12:44:56,"Mozilla/5.0 (Macintosh; Intel Mac OS X 10_15_7) AppleWebKit/537.36 (KHTML, like Gecko) Chrome/100.0.4896.60 Safari/537.36",1440,900,1384,707,main,1352964,42,13,10,HM,Moderate,Harder than Reference,D,k,riskyDeck,safeDeck,0,14,7,left,1,0,46,absent,riskyDeck,1267,7065
6yszjvjgmg7,13482,04/04/2022@12:44:56,"Mozilla/5.0 (Macintosh; Intel Mac OS X 10_15_7) AppleWebKit/537.36 (KHTML, like Gecko) Chrome/100.0.4896.60 Safari/537.36",1440,900,1384,707,main,1352964,43,13,11,EM,Moderate,Easier than Reference,D,j,safeDeck,riskyDeck,0,-28,-14,left,0,0,18,present,safeDeck,1723,2905
6yszjvjgmg7,13482,04/04/2022@12:44:56,"Mozilla/5.0 (Macintosh; Intel Mac OS X 10_15_7) AppleWebKit/537.36 (KHTML, like Gecko) Chrome/100.0.4896.60 Safari/537.36",1440,900,1384,707,main,1352964,44,13,11,EE,Extreme,Easier than Reference,D,j,riskyDeck,safeDeck,-14,0,-7,left,1,0,32,present,riskyDeck,1154,6350
6yszjvjgmg7,13482,04/04/2022@12:44:56,"Mozilla/5.0 (Macintosh; Intel Mac OS X 10_15_7) AppleWebKit/537.36 (KHTML, like Gecko) Chrome/100.0.4896.60 Safari/537.36",1440,900,1384,707,main,1352964,45,13,11,HE,Extreme,Harder than Reference,F,j,safeDeck,riskyDeck,28,0,14,right,1,0,32,present,riskyDeck,3391,1196
6yszjvjgmg7,13482,04/04/2022@12:44:56,"Mozilla/5.0 (Macintosh; Intel Mac OS X 10_15_7) AppleWebKit/537.36 (KHTML, like Gecko) Chrome/100.0.4896.60 Safari/537.36",1440,900,1384,707,main,1352964,46,13,11,EM,Moderate,Easier than Reference,D,j,riskyDeck,safeDeck,-28,0,-14,left,1,0,4,present,riskyDeck,1063,1455
6yszjvjgmg7,13482,04/04/2022@12:44:56,"Mozilla/5.0 (Macintosh; Intel Mac OS X 10_15_7) AppleWebKit/537.36 (KHTML, like Gecko) Chrome/100.0.4896.60 Safari/537.36",1440,900,1384,707,main,1352964,47,13,11,EE,Extreme,Easier than Reference,D,j,riskyDeck,safeDeck,-14,0,-7,left,1,0,18,present,riskyDeck,1501,2341
6yszjvjgmg7,13482,04/04/2022@12:44:56,"Mozilla/5.0 (Macintosh; Intel Mac OS X 10_15_7) AppleWebKit/537.36 (KHTML, like Gecko) Chrome/100.0.4896.60 Safari/537.36",1440,900,1384,707,main,1352964,48,13,11,HM,Moderate,Harder than Reference,F,k,riskyDeck,safeDeck,14,0,7,right,0,0,39,absent,safeDeck,1147,7348
6yszjvjgmg7,13482,04/04/2022@12:44:56,"Mozilla/5.0 (Macintosh; Intel Mac OS X 10_15_7) AppleWebKit/537.36 (KHTML, like Gecko) Chrome/100.0.4896.60 Safari/537.36",1440,900,1384,707,main,1352964,49,13,11,EE,Extreme,Easier than Reference,D,j,safeDeck,riskyDeck,0,-14,-7,left,0,0,25,present,safeDeck,4492,3067
6yszjvjgmg7,13482,04/04/2022@12:44:56,"Mozilla/5.0 (Macintosh; Intel Mac OS X 10_15_7) AppleWebKit/537.36 (KHTML, like Gecko) Chrome/100.0.4896.60 Safari/537.36",1440,900,1384,707,main,1352964,50,13,11,HE,Extreme,Harder than Reference,D,j,riskyDeck,safeDeck,28,0,14,left,1,0,60,present,riskyDeck,1755,2071
6yszjvjgmg7,13482,04/04/2022@12:44:56,"Mozilla/5.0 (Macintosh; Intel Mac OS X 10_15_7) AppleWebKit/537.36 (KHTML, like Gecko) Chrome/100.0.4896.60 Safari/537.36",1440,900,1384,707,main,1352964,51,14,11,EM,Moderate,Easier than Reference,D,j,safeDeck,riskyDeck,-28,0,-14,left,0,0,18,present,safeDeck,1463,914
6yszjvjgmg7,13482,04/04/2022@12:44:56,"Mozilla/5.0 (Macintosh; Intel Mac OS X 10_15_7) AppleWebKit/537.36 (KHTML, like Gecko) Chrome/100.0.4896.60 Safari/537.36",1440,900,1384,707,main,1352964,52,14,12,HM,Moderate,Harder than Reference,F,k,safeDeck,riskyDeck,14,0,7,right,1,0,32,absent,riskyDeck,1299,5718
6yszjvjgmg7,13482,04/04/2022@12:44:56,"Mozilla/5.0 (Macintosh; Intel Mac OS X 10_15_7) AppleWebKit/537.36 (KHTML, like Gecko) Chrome/100.0.4896.60 Safari/537.36",1440,900,1384,707,main,1352964,53,14,12,HM,Moderate,Harder than Reference,F,k,safeDeck,riskyDeck,0,14,7,right,1,0,46,absent,riskyDeck,2631,8545
6yszjvjgmg7,13482,04/04/2022@12:44:56,"Mozilla/5.0 (Macintosh; Intel Mac OS X 10_15_7) AppleWebKit/537.36 (KHTML, like Gecko) Chrome/100.0.4896.60 Safari/537.36",1440,900,1384,707,main,1352964,54,14,12,EM,Moderate,Easier than Reference,D,j,riskyDeck,safeDeck,0,-28,-14,left,1,0,4,present,riskyDeck,1258,703
6yszjvjgmg7,13482,04/04/2022@12:44:56,"Mozilla/5.0 (Macintosh; Intel Mac OS X 10_15_7) AppleWebKit/537.36 (KHTML, like Gecko) Chrome/100.0.4896.60 Safari/537.36",1440,900,1384,707,main,1352964,55,14,12,HE,Extreme,Harder than Reference,D,j,safeDeck,riskyDeck,0,28,14,left,0,0,46,present,safeDeck,1420,3390
6yszjvjgmg7,13482,04/04/2022@12:44:56,"Mozilla/5.0 (Macintosh; Intel Mac OS X 10_15_7) AppleWebKit/537.36 (KHTML, like Gecko) Chrome/100.0.4896.60 Safari/537.36",1440,900,1384,707,main,1352964,56,14,12,EE,Extreme,Easier than Reference,D,k,riskyDeck,safeDeck,0,-14,-7,left,1,0,32,absent,riskyDeck,2260,5825
6yszjvjgmg7,13482,04/04/2022@12:44:56,"Mozilla/5.0 (Macintosh; Intel Mac OS X 10_15_7) AppleWebKit/537.36 (KHTML, like Gecko) Chrome/100.0.4896.60 Safari/537.36",1440,900,1384,707,main,1352964,57,14,12,EM,Moderate,Easier than Reference,F,k,safeDeck,riskyDeck,0,-28,-14,right,1,0,4,absent,riskyDeck,1547,1345
6yszjvjgmg7,13482,04/04/2022@12:44:56,"Mozilla/5.0 (Macintosh; Intel Mac OS X 10_15_7) AppleWebKit/537.36 (KHTML, like Gecko) Chrome/100.0.4896.60 Safari/537.36",1440,900,1384,707,main,1352964,58,14,12,EE,Extreme,Easier than Reference,F,j,safeDeck,riskyDeck,-14,0,-7,right,1,0,18,present,riskyDeck,823,1220
6yszjvjgmg7,13482,04/04/2022@12:44:56,"Mozilla/5.0 (Macintosh; Intel Mac OS X 10_15_7) AppleWebKit/537.36 (KHTML, like Gecko) Chrome/100.0.4896.60 Safari/537.36",1440,900,1384,707,main,1352964,59,15,13,HM,Moderate,Harder than Reference,D,k,safeDeck,riskyDeck,14,0,7,left,0,0,39,absent,safeDeck,1796,6459
6yszjvjgmg7,13482,04/04/2022@12:44:56,"Mozilla/5.0 (Macintosh; Intel Mac OS X 10_15_7) AppleWebKit/537.36 (KHTML, like Gecko) Chrome/100.0.4896.60 Safari/537.36",1440,900,1384,707,main,1352964,60,15,13,HE,Extreme,Harder than Reference,D,j,safeDeck,riskyDeck,0,28,14,left,0,0,46,present,safeDeck,1806,1294
6yszjvjgmg7,13482,04/04/2022@12:44:56,"Mozilla/5.0 (Macintosh; Intel Mac OS X 10_15_7) AppleWebKit/537.36 (KHTML, like Gecko) Chrome/100.0.4896.60 Safari/537.36",1440,900,1384,707,main,1352964,61,15,13,EM,Moderate,Easier than Reference,F,k,safeDeck,riskyDeck,-28,0,-14,right,1,0,32,absent,riskyDeck,1918,5063
6yszjvjgmg7,13482,04/04/2022@12:44:56,"Mozilla/5.0 (Macintosh; Intel Mac OS X 10_15_7) AppleWebKit/537.36 (KHTML, like Gecko) Chrome/100.0.4896.60 Safari/537.36",1440,900,1384,707,main,1352964,62,15,13,HM,Moderate,Harder than Reference,F,j,safeDeck,riskyDeck,14,0,7,right,1,0,46,present,riskyDeck,1303,2815
6yszjvjgmg7,13482,04/04/2022@12:44:56,"Mozilla/5.0 (Macintosh; Intel Mac OS X 10_15_7) AppleWebKit/537.36 (KHTML, like Gecko) Chrome/100.0.4896.60 Safari/537.36",1440,900,1384,707,main,1352964,63,15,13,EE,Extreme,Easier than Reference,D,k,riskyDeck,safeDeck,-14,0,-7,left,1,0,32,absent,riskyDeck,1164,5279
6yszjvjgmg7,13482,04/04/2022@12:44:56,"Mozilla/5.0 (Macintosh; Intel Mac OS X 10_15_7) AppleWebKit/537.36 (KHTML, like Gecko) Chrome/100.0.4896.60 Safari/537.36",1440,900,1384,707,main,1352964,64,15,13,HE,Extreme,Harder than Reference,F,j,safeDeck,riskyDeck,0,28,14,right,1,0,60,present,riskyDeck,925,3315
6yszjvjgmg7,13482,04/04/2022@12:44:56,"Mozilla/5.0 (Macintosh; Intel Mac OS X 10_15_7) AppleWebKit/537.36 (KHTML, like Gecko) Chrome/100.0.4896.60 Safari/537.36",1440,900,1384,707,main,1352964,65,15,13,EM,Moderate,Easier than Reference,F,k,safeDeck,riskyDeck,-28,0,-14,right,1,0,32,absent,riskyDeck,2077,5503
6yszjvjgmg7,13482,04/04/2022@12:44:56,"Mozilla/5.0 (Macintosh; Intel Mac OS X 10_15_7) AppleWebKit/537.36 (KHTML, like Gecko) Chrome/100.0.4896.60 Safari/537.36",1440,900,1384,707,main,1352964,66,15,13,HM,Moderate,Harder than Reference,D,j,riskyDeck,safeDeck,14,0,7,left,1,0,46,present,riskyDeck,1158,3712
6yszjvjgmg7,13482,04/04/2022@12:44:56,"Mozilla/5.0 (Macintosh; Intel Mac OS X 10_15_7) AppleWebKit/537.36 (KHTML, like Gecko) Chrome/100.0.4896.60 Safari/537.36",1440,900,1384,707,main,1352964,67,15,13,EE,Extreme,Easier than Reference,D,k,riskyDeck,safeDeck,-14,0,-7,left,1,0,32,absent,riskyDeck,1375,4174
6yszjvjgmg7,13482,04/04/2022@12:44:56,"Mozilla/5.0 (Macintosh; Intel Mac OS X 10_15_7) AppleWebKit/537.36 (KHTML, like Gecko) Chrome/100.0.4896.60 Safari/537.36",1440,900,1384,707,main,1352964,68,16,14,HE,Extreme,Harder than Reference,D,k,riskyDeck,safeDeck,0,28,14,left,1,0,32,absent,riskyDeck,752,4838
6yszjvjgmg7,13482,04/04/2022@12:44:56,"Mozilla/5.0 (Macintosh; Intel Mac OS X 10_15_7) AppleWebKit/537.36 (KHTML, like Gecko) Chrome/100.0.4896.60 Safari/537.36",1440,900,1384,707,main,1352964,69,16,14,HE,Extreme,Harder than Reference,F,j,riskyDeck,safeDeck,0,28,14,right,0,0,46,present,safeDeck,682,3405
6yszjvjgmg7,13482,04/04/2022@12:44:56,"Mozilla/5.0 (Macintosh; Intel Mac OS X 10_15_7) AppleWebKit/537.36 (KHTML, like Gecko) Chrome/100.0.4896.60 Safari/537.36",1440,900,1384,707,main,1352964,70,16,14,EM,Moderate,Easier than Reference,D,k,riskyDeck,safeDeck,0,-28,-14,left,1,0,4,absent,riskyDeck,1385,819
6yszjvjgmg7,13482,04/04/2022@12:44:56,"Mozilla/5.0 (Macintosh; Intel Mac OS X 10_15_7) AppleWebKit/537.36 (KHTML, like Gecko) Chrome/100.0.4896.60 Safari/537.36",1440,900,1384,707,main,1352964,71,16,14,HM,Moderate,Harder than Reference,D,j,riskyDeck,safeDeck,0,14,7,left,1,0,46,present,riskyDeck,1037,2411
6yszjvjgmg7,13482,04/04/2022@12:44:56,"Mozilla/5.0 (Macintosh; Intel Mac OS X 10_15_7) AppleWebKit/537.36 (KHTML, like Gecko) Chrome/100.0.4896.60 Safari/537.36",1440,900,1384,707,main,1352964,72,16,14,EE,Extreme,Easier than Reference,F,j,safeDeck,riskyDeck,0,-14,-7,right,1,0,18,present,riskyDeck,1280,1583
6yszjvjgmg7,13482,04/04/2022@12:44:56,"Mozilla/5.0 (Macintosh; Intel Mac OS X 10_15_7) AppleWebKit/537.36 (KHTML, like Gecko) Chrome/100.0.4896.60 Safari/537.36",1440,900,1384,707,main,1352964,73,16,14,HM,Moderate,Harder than Reference,F,k,safeDeck,riskyDeck,14,0,7,right,1,0,46,absent,riskyDeck,1896,5709
6yszjvjgmg7,13482,04/04/2022@12:44:56,"Mozilla/5.0 (Macintosh; Intel Mac OS X 10_15_7) AppleWebKit/537.36 (KHTML, like Gecko) Chrome/100.0.4896.60 Safari/537.36",1440,900,1384,707,main,1352964,74,16,14,HE,Extreme,Harder than Reference,D,k,riskyDeck,safeDeck,0,28,14,left,1,0,60,absent,riskyDeck,501,7727
6yszjvjgmg7,13482,04/04/2022@12:44:56,"Mozilla/5.0 (Macintosh; Intel Mac OS X 10_15_7) AppleWebKit/537.36 (KHTML, like Gecko) Chrome/100.0.4896.60 Safari/537.36",1440,900,1384,707,main,1352964,75,16,14,EE,Extreme,Easier than Reference,F,j,riskyDeck,safeDeck,0,-14,-7,right,0,0,25,present,safeDeck,627,1118
6yszjvjgmg7,13482,04/04/2022@12:44:56,"Mozilla/5.0 (Macintosh; Intel Mac OS X 10_15_7) AppleWebKit/537.36 (KHTML, like Gecko) Chrome/100.0.4896.60 Safari/537.36",1440,900,1384,707,main,1352964,76,16,14,EM,Moderate,Easier than Reference,D,k,safeDeck,riskyDeck,0,-28,-14,left,0,0,18,absent,safeDeck,676,2329
6yszjvjgmg7,13482,04/04/2022@12:44:56,"Mozilla/5.0 (Macintosh; Intel Mac OS X 10_15_7) AppleWebKit/537.36 (KHTML, like Gecko) Chrome/100.0.4896.60 Safari/537.36",1440,900,1384,707,main,1352964,77,17,14,HE,Extreme,Harder than Reference,D,k,riskyDeck,safeDeck,0,28,14,left,1,0,32,absent,riskyDeck,645,3895
6yszjvjgmg7,13482,04/04/2022@12:44:56,"Mozilla/5.0 (Macintosh; Intel Mac OS X 10_15_7) AppleWebKit/537.36 (KHTML, like Gecko) Chrome/100.0.4896.60 Safari/537.36",1440,900,1384,707,main,1352964,78,17,15,HM,Moderate,Harder than Reference,F,k,safeDeck,riskyDeck,0,14,7,right,1,0,46,absent,riskyDeck,498,4725
6yszjvjgmg7,13482,04/04/2022@12:44:56,"Mozilla/5.0 (Macintosh; Intel Mac OS X 10_15_7) AppleWebKit/537.36 (KHTML, like Gecko) Chrome/100.0.4896.60 Safari/537.36",1440,900,1384,707,main,1352964,79,17,15,EE,Extreme,Easier than Reference,D,k,safeDeck,riskyDeck,0,-14,-7,left,0,0,25,absent,safeDeck,376,2983
6yszjvjgmg7,13482,04/04/2022@12:44:56,"Mozilla/5.0 (Macintosh; Intel Mac OS X 10_15_7) AppleWebKit/537.36 (KHTML, like Gecko) Chrome/100.0.4896.60 Safari/537.36",1440,900,1384,707,main,1352964,80,17,15,EM,Moderate,Easier than Reference,D,k,riskyDeck,safeDeck,-28,0,-14,left,1,0,32,absent,riskyDeck,403,4110
6yszjvjgmg7,13482,04/04/2022@12:44:56,"Mozilla/5.0 (Macintosh; Intel Mac OS X 10_15_7) AppleWebKit/537.36 (KHTML, like Gecko) Chrome/100.0.4896.60 Safari/537.36",1440,900,1384,707,main,1352964,81,17,15,HE,Extreme,Harder than Reference,F,j,safeDeck,riskyDeck,0,28,14,right,1,1,32,absent,riskyDeck,800,4195
6yszjvjgmg7,13482,04/04/2022@12:44:56,"Mozilla/5.0 (Macintosh; Intel Mac OS X 10_15_7) AppleWebKit/537.36 (KHTML, like Gecko) Chrome/100.0.4896.60 Safari/537.36",1440,900,1384,707,main,1352964,82,17,15,HM,Moderate,Harder than Reference,D,j,riskyDeck,safeDeck,0,14,7,left,1,0,46,present,riskyDeck,2346,3480
6yszjvjgmg7,13482,04/04/2022@12:44:56,"Mozilla/5.0 (Macintosh; Intel Mac OS X 10_15_7) AppleWebKit/537.36 (KHTML, like Gecko) Chrome/100.0.4896.60 Safari/537.36",1440,900,1384,707,main,1352964,83,17,15,EE,Extreme,Easier than Reference,F,k,safeDeck,riskyDeck,0,-14,-7,right,1,0,32,absent,riskyDeck,1185,5844
6yszjvjgmg7,13482,04/04/2022@12:44:56,"Mozilla/5.0 (Macintosh; Intel Mac OS X 10_15_7) AppleWebKit/537.36 (KHTML, like Gecko) Chrome/100.0.4896.60 Safari/537.36",1440,900,1384,707,main,1352964,84,17,15,EM,Moderate,Easier than Reference,F,k,safeDeck,riskyDeck,-28,0,-14,right,1,0,32,absent,riskyDeck,1040,2996
6yszjvjgmg7,13482,04/04/2022@12:44:56,"Mozilla/5.0 (Macintosh; Intel Mac OS X 10_15_7) AppleWebKit/537.36 (KHTML, like Gecko) Chrome/100.0.4896.60 Safari/537.36",1440,900,1384,707,main,1352964,85,17,15,EM,Moderate,Easier than Reference,D,k,riskyDeck,safeDeck,-28,0,-14,left,1,0,32,absent,riskyDeck,600,4383
6yszjvjgmg7,13482,04/04/2022@12:44:56,"Mozilla/5.0 (Macintosh; Intel Mac OS X 10_15_7) AppleWebKit/537.36 (KHTML, like Gecko) Chrome/100.0.4896.60 Safari/537.36",1440,900,1384,707,main,1352964,86,18,16,HE,Extreme,Harder than Reference,F,j,riskyDeck,safeDeck,28,0,14,right,0,0,46,present,safeDeck,645,6482
6yszjvjgmg7,13482,04/04/2022@12:44:56,"Mozilla/5.0 (Macintosh; Intel Mac OS X 10_15_7) AppleWebKit/537.36 (KHTML, like Gecko) Chrome/100.0.4896.60 Safari/537.36",1440,900,1384,707,main,1352964,87,18,16,EE,Extreme,Easier than Reference,F,k,riskyDeck,safeDeck,-14,0,-7,right,0,0,25,absent,safeDeck,1010,2720
6yszjvjgmg7,13482,04/04/2022@12:44:56,"Mozilla/5.0 (Macintosh; Intel Mac OS X 10_15_7) AppleWebKit/537.36 (KHTML, like Gecko) Chrome/100.0.4896.60 Safari/537.36",1440,900,1384,707,main,1352964,88,18,16,HM,Moderate,Harder than Reference,D,k,riskyDeck,safeDeck,0,14,7,left,1,0,32,absent,riskyDeck,1016,4199
6yszjvjgmg7,13482,04/04/2022@12:44:56,"Mozilla/5.0 (Macintosh; Intel Mac OS X 10_15_7) AppleWebKit/537.36 (KHTML, like Gecko) Chrome/100.0.4896.60 Safari/537.36",1440,900,1384,707,main,1352964,89,18,16,EE,Extreme,Easier than Reference,D,k,riskyDeck,safeDeck,0,-14,-7,left,1,0,32,absent,riskyDeck,602,3593
6yszjvjgmg7,13482,04/04/2022@12:44:56,"Mozilla/5.0 (Macintosh; Intel Mac OS X 10_15_7) AppleWebKit/537.36 (KHTML, like Gecko) Chrome/100.0.4896.60 Safari/537.36",1440,900,1384,707,main,1352964,90,18,16,HE,Extreme,Harder than Reference,D,j,riskyDeck,safeDeck,28,0,14,left,1,0,32,present,riskyDeck,657,3909
6yszjvjgmg7,13482,04/04/2022@12:44:56,"Mozilla/5.0 (Macintosh; Intel Mac OS X 10_15_7) AppleWebKit/537.36 (KHTML, like Gecko) Chrome/100.0.4896.60 Safari/537.36",1440,900,1384,707,main,1352964,91,18,16,EM,Moderate,Easier than Reference,D,k,riskyDeck,safeDeck,-28,0,-14,left,1,0,32,absent,riskyDeck,1558,2782
6yszjvjgmg7,13482,04/04/2022@12:44:56,"Mozilla/5.0 (Macintosh; Intel Mac OS X 10_15_7) AppleWebKit/537.36 (KHTML, like Gecko) Chrome/100.0.4896.60 Safari/537.36",1440,900,1384,707,main,1352964,92,18,16,HM,Moderate,Harder than Reference,F,j,riskyDeck,safeDeck,14,0,7,right,0,0,39,present,safeDeck,429,924
6yszjvjgmg7,13482,04/04/2022@12:44:56,"Mozilla/5.0 (Macintosh; Intel Mac OS X 10_15_7) AppleWebKit/537.36 (KHTML, like Gecko) Chrome/100.0.4896.60 Safari/537.36",1440,900,1384,707,main,1352964,93,18,16,EE,Extreme,Easier than Reference,D,k,riskyDeck,safeDeck,0,-14,-7,left,1,0,32,absent,riskyDeck,2033,3434
6yszjvjgmg7,13482,04/04/2022@12:44:56,"Mozilla/5.0 (Macintosh; Intel Mac OS X 10_15_7) AppleWebKit/537.36 (KHTML, like Gecko) Chrome/100.0.4896.60 Safari/537.36",1440,900,1384,707,main,1352964,94,18,16,EM,Moderate,Easier than Reference,F,j,safeDeck,riskyDeck,0,-28,-14,right,1,0,32,present,riskyDeck,721,2045
6yszjvjgmg7,13482,04/04/2022@12:44:56,"Mozilla/5.0 (Macintosh; Intel Mac OS X 10_15_7) AppleWebKit/537.36 (KHTML, like Gecko) Chrome/100.0.4896.60 Safari/537.36",1440,900,1384,707,main,1352964,95,18,16,HM,Moderate,Harder than Reference,D,k,riskyDeck,safeDeck,14,0,7,left,1,0,32,absent,riskyDeck,1078,4778
6yszjvjgmg7,13482,04/04/2022@12:44:56,"Mozilla/5.0 (Macintosh; Intel Mac OS X 10_15_7) AppleWebKit/537.36 (KHTML, like Gecko) Chrome/100.0.4896.60 Safari/537.36",1440,900,1384,707,main,1352964,96,19,16,HE,Extreme,Harder than Reference,F,j,safeDeck,riskyDeck,0,28,14,right,1,0,32,present,riskyDeck,630,1692
6yszjvjgmg7,13482,04/04/2022@12:44:56,"Mozilla/5.0 (Macintosh; Intel Mac OS X 10_15_7) AppleWebKit/537.36 (KHTML, like Gecko) Chrome/100.0.4896.60 Safari/537.36",1440,900,1384,707,main,1352964,97,19,17,HE,Extreme,Harder than Reference,D,k,riskyDeck,safeDeck,0,28,14,left,1,0,32,absent,riskyDeck,491,3789
6yszjvjgmg7,13482,04/04/2022@12:44:56,"Mozilla/5.0 (Macintosh; Intel Mac OS X 10_15_7) AppleWebKit/537.36 (KHTML, like Gecko) Chrome/100.0.4896.60 Safari/537.36",1440,900,1384,707,main,1352964,98,19,17,EM,Moderate,Easier than Reference,F,j,safeDeck,riskyDeck,-28,0,-14,right,1,0,32,present,riskyDeck,1363,909
6yszjvjgmg7,13482,04/04/2022@12:44:56,"Mozilla/5.0 (Macintosh; Intel Mac OS X 10_15_7) AppleWebKit/537.36 (KHTML, like Gecko) Chrome/100.0.4896.60 Safari/537.36",1440,900,1384,707,main,1352964,99,19,17,EE,Extreme,Easier than Reference,F,k,safeDeck,riskyDeck,0,-14,-7,right,1,0,18,absent,riskyDeck,835,2352
6yszjvjgmg7,13482,04/04/2022@12:44:56,"Mozilla/5.0 (Macintosh; Intel Mac OS X 10_15_7) AppleWebKit/537.36 (KHTML, like Gecko) Chrome/100.0.4896.60 Safari/537.36",1440,900,1384,707,main,1352964,100,19,17,HM,Moderate,Harder than Reference,F,k,riskyDeck,safeDeck,0,14,7,right,0,0,39,absent,safeDeck,646,6477
6yszjvjgmg7,13482,04/04/2022@12:44:56,"Mozilla/5.0 (Macintosh; Intel Mac OS X 10_15_7) AppleWebKit/537.36 (KHTML, like Gecko) Chrome/100.0.4896.60 Safari/537.36",1440,900,1384,707,main,1352964,101,19,17,EE,Extreme,Easier than Reference,D,j,safeDeck,riskyDeck,-14,0,-7,left,0,0,25,present,safeDeck,377,1037
6yszjvjgmg7,13482,04/04/2022@12:44:56,"Mozilla/5.0 (Macintosh; Intel Mac OS X 10_15_7) AppleWebKit/537.36 (KHTML, like Gecko) Chrome/100.0.4896.60 Safari/537.36",1440,900,1384,707,main,1352964,102,19,17,HM,Moderate,Harder than Reference,D,j,safeDeck,riskyDeck,14,0,7,left,0,0,39,present,safeDeck,1485,1430
6yszjvjgmg7,13482,04/04/2022@12:44:56,"Mozilla/5.0 (Macintosh; Intel Mac OS X 10_15_7) AppleWebKit/537.36 (KHTML, like Gecko) Chrome/100.0.4896.60 Safari/537.36",1440,900,1384,707,main,1352964,103,19,17,HE,Extreme,Harder than Reference,D,k,safeDeck,riskyDeck,0,28,14,left,0,0,46,absent,safeDeck,1292,8764
6yszjvjgmg7,13482,04/04/2022@12:44:56,"Mozilla/5.0 (Macintosh; Intel Mac OS X 10_15_7) AppleWebKit/537.36 (KHTML, like Gecko) Chrome/100.0.4896.60 Safari/537.36",1440,900,1384,707,main,1352964,104,19,17,EM,Moderate,Easier than Reference,D,j,safeDeck,riskyDeck,-28,0,-14,left,0,0,18,present,safeDeck,617,870
6yszjvjgmg7,13482,04/04/2022@12:44:56,"Mozilla/5.0 (Macintosh; Intel Mac OS X 10_15_7) AppleWebKit/537.36 (KHTML, like Gecko) Chrome/100.0.4896.60 Safari/537.36",1440,900,1384,707,main,1352964,105,19,17,EM,Moderate,Easier than Reference,D,k,riskyDeck,safeDeck,0,-28,-14,left,1,0,4,absent,riskyDeck,1107,1124
6yszjvjgmg7,13482,04/04/2022@12:44:56,"Mozilla/5.0 (Macintosh; Intel Mac OS X 10_15_7) AppleWebKit/537.36 (KHTML, like Gecko) Chrome/100.0.4896.60 Safari/537.36",1440,900,1384,707,main,1352964,106,20,17,HM,Moderate,Harder than Reference,D,k,riskyDeck,safeDeck,14,0,7,left,1,0,32,absent,riskyDeck,1409,3546
6yszjvjgmg7,13482,04/04/2022@12:44:56,"Mozilla/5.0 (Macintosh; Intel Mac OS X 10_15_7) AppleWebKit/537.36 (KHTML, like Gecko) Chrome/100.0.4896.60 Safari/537.36",1440,900,1384,707,main,1352964,107,20,18,EE,Extreme,Easier than Reference,F,j,riskyDeck,safeDeck,-14,0,-7,right,0,0,25,present,safeDeck,1611,925
6yszjvjgmg7,13482,04/04/2022@12:44:56,"Mozilla/5.0 (Macintosh; Intel Mac OS X 10_15_7) AppleWebKit/537.36 (KHTML, like Gecko) Chrome/100.0.4896.60 Safari/537.36",1440,900,1384,707,main,1352964,108,20,18,HE,Extreme,Harder than Reference,D,j,riskyDeck,safeDeck,28,0,14,left,1,0,60,present,riskyDeck,796,4589
6yszjvjgmg7,13482,04/04/2022@12:44:56,"Mozilla/5.0 (Macintosh; Intel Mac OS X 10_15_7) AppleWebKit/537.36 (KHTML, like Gecko) Chrome/100.0.4896.60 Safari/537.36",1440,900,1384,707,main,1352964,109,20,18,EM,Moderate,Easier than Reference,D,j,riskyDeck,safeDeck,0,-28,-14,left,1,0,32,present,riskyDeck,1363,788
6yszjvjgmg7,13482,04/04/2022@12:44:56,"Mozilla/5.0 (Macintosh; Intel Mac OS X 10_15_7) AppleWebKit/537.36 (KHTML, like Gecko) Chrome/100.0.4896.60 Safari/537.36",1440,900,1384,707,main,1352964,110,20,18,EE,Extreme,Easier than Reference,D,k,riskyDeck,safeDeck,0,-14,-7,left,1,0,18,absent,riskyDeck,936,2326
6yszjvjgmg7,13482,04/04/2022@12:44:56,"Mozilla/5.0 (Macintosh; Intel Mac OS X 10_15_7) AppleWebKit/537.36 (KHTML, like Gecko) Chrome/100.0.4896.60 Safari/537.36",1440,900,1384,707,main,1352964,111,20,18,HE,Extreme,Harder than Reference,D,k,riskyDeck,safeDeck,0,28,14,left,1,0,60,absent,riskyDeck,1295,7623
6yszjvjgmg7,13482,04/04/2022@12:44:56,"Mozilla/5.0 (Macintosh; Intel Mac OS X 10_15_7) AppleWebKit/537.36 (KHTML, like Gecko) Chrome/100.0.4896.60 Safari/537.36",1440,900,1384,707,main,1352964,112,20,18,HM,Moderate,Harder than Reference,F,k,riskyDeck,safeDeck,14,0,7,right,0,0,39,absent,safeDeck,684,5008
6yszjvjgmg7,13482,04/04/2022@12:44:56,"Mozilla/5.0 (Macintosh; Intel Mac OS X 10_15_7) AppleWebKit/537.36 (KHTML, like Gecko) Chrome/100.0.4896.60 Safari/537.36",1440,900,1384,707,main,1352964,113,20,18,HM,Moderate,Harder than Reference,D,k,safeDeck,riskyDeck,14,0,7,left,0,0,39,absent,safeDeck,798,4199
6yszjvjgmg7,13482,04/04/2022@12:44:56,"Mozilla/5.0 (Macintosh; Intel Mac OS X 10_15_7) AppleWebKit/537.36 (KHTML, like Gecko) Chrome/100.0.4896.60 Safari/537.36",1440,900,1384,707,main,1352964,114,20,18,HE,Extreme,Harder than Reference,D,k,riskyDeck,safeDeck,28,0,14,left,1,0,32,absent,riskyDeck,1276,3674
6yszjvjgmg7,13482,04/04/2022@12:44:56,"Mozilla/5.0 (Macintosh; Intel Mac OS X 10_15_7) AppleWebKit/537.36 (KHTML, like Gecko) Chrome/100.0.4896.60 Safari/537.36",1440,900,1384,707,main,1352964,115,21,19,EE,Extreme,Easier than Reference,F,j,riskyDeck,safeDeck,0,-14,-7,right,0,0,25,present,safeDeck,3067,2661
6yszjvjgmg7,13482,04/04/2022@12:44:56,"Mozilla/5.0 (Macintosh; Intel Mac OS X 10_15_7) AppleWebKit/537.36 (KHTML, like Gecko) Chrome/100.0.4896.60 Safari/537.36",1440,900,1384,707,main,1352964,116,21,19,EM,Moderate,Easier than Reference,F,k,safeDeck,riskyDeck,-28,0,-14,right,1,0,32,absent,riskyDeck,1522,2924
6yszjvjgmg7,13482,04/04/2022@12:44:56,"Mozilla/5.0 (Macintosh; Intel Mac OS X 10_15_7) AppleWebKit/537.36 (KHTML, like Gecko) Chrome/100.0.4896.60 Safari/537.36",1440,900,1384,707,main,1352964,117,21,19,EE,Extreme,Easier than Reference,F,k,riskyDeck,safeDeck,0,-14,-7,right,0,0,25,absent,safeDeck,1372,2392
6yszjvjgmg7,13482,04/04/2022@12:44:56,"Mozilla/5.0 (Macintosh; Intel Mac OS X 10_15_7) AppleWebKit/537.36 (KHTML, like Gecko) Chrome/100.0.4896.60 Safari/537.36",1440,900,1384,707,main,1352964,118,21,19,EM,Moderate,Easier than Reference,F,j,riskyDeck,safeDeck,-28,0,-14,right,0,0,18,present,safeDeck,1101,1796
6yszjvjgmg7,13482,04/04/2022@12:44:56,"Mozilla/5.0 (Macintosh; Intel Mac OS X 10_15_7) AppleWebKit/537.36 (KHTML, like Gecko) Chrome/100.0.4896.60 Safari/537.36",1440,900,1384,707,main,1352964,119,21,19,HE,Extreme,Harder than Reference,D,k,riskyDeck,safeDeck,28,0,14,left,1,0,60,absent,riskyDeck,1578,7008
6yszjvjgmg7,13482,04/04/2022@12:44:56,"Mozilla/5.0 (Macintosh; Intel Mac OS X 10_15_7) AppleWebKit/537.36 (KHTML, like Gecko) Chrome/100.0.4896.60 Safari/537.36",1440,900,1384,707,main,1352964,120,21,19,HM,Moderate,Harder than Reference,D,k,safeDeck,riskyDeck,14,0,7,left,0,0,39,absent,safeDeck,636,4990
6yszjvjgmg7,13482,04/04/2022@12:44:56,"Mozilla/5.0 (Macintosh; Intel Mac OS X 10_15_7) AppleWebKit/537.36 (KHTML, like Gecko) Chrome/100.0.4896.60 Safari/537.36",1440,900,1384,707,main,1352964,121,21,19,HE,Extreme,Harder than Reference,D,j,safeDeck,riskyDeck,28,0,14,left,0,0,46,present,safeDeck,852,4613
6yszjvjgmg7,13482,04/04/2022@12:44:56,"Mozilla/5.0 (Macintosh; Intel Mac OS X 10_15_7) AppleWebKit/537.36 (KHTML, like Gecko) Chrome/100.0.4896.60 Safari/537.36",1440,900,1384,707,main,1352964,122,21,19,HM,Moderate,Harder than Reference,F,k,riskyDeck,safeDeck,0,14,7,right,0,0,39,absent,safeDeck,489,4374
6yszjvjgmg7,13482,04/04/2022@12:44:56,"Mozilla/5.0 (Macintosh; Intel Mac OS X 10_15_7) AppleWebKit/537.36 (KHTML, like Gecko) Chrome/100.0.4896.60 Safari/537.36",1440,900,1384,707,main,1352964,123,21,19,EE,Extreme,Easier than Reference,D,k,riskyDeck,safeDeck,0,-14,-7,left,1,0,32,absent,riskyDeck,891,3469
6yszjvjgmg7,13482,04/04/2022@12:44:56,"Mozilla/5.0 (Macintosh; Intel Mac OS X 10_15_7) AppleWebKit/537.36 (KHTML, like Gecko) Chrome/100.0.4896.60 Safari/537.36",1440,900,1384,707,main,1352964,124,22,20,EM,Moderate,Easier than Reference,D,k,riskyDeck,safeDeck,0,-28,-14,left,1,0,32,absent,riskyDeck,1673,5025
6yszjvjgmg7,13482,04/04/2022@12:44:56,"Mozilla/5.0 (Macintosh; Intel Mac OS X 10_15_7) AppleWebKit/537.36 (KHTML, like Gecko) Chrome/100.0.4896.60 Safari/537.36",1440,900,1384,707,main,1352964,125,22,20,EM,Moderate,Easier than Reference,F,j,safeDeck,riskyDeck,0,-28,-14,right,1,0,32,present,riskyDeck,1031,1187
6yszjvjgmg7,13482,04/04/2022@12:44:56,"Mozilla/5.0 (Macintosh; Intel Mac OS X 10_15_7) AppleWebKit/537.36 (KHTML, like Gecko) Chrome/100.0.4896.60 Safari/537.36",1440,900,1384,707,main,1352964,126,22,20,HM,Moderate,Harder than Reference,D,k,riskyDeck,safeDeck,14,0,7,left,1,0,32,absent,riskyDeck,1524,2877
6yszjvjgmg7,13482,04/04/2022@12:44:56,"Mozilla/5.0 (Macintosh; Intel Mac OS X 10_15_7) AppleWebKit/537.36 (KHTML, like Gecko) Chrome/100.0.4896.60 Safari/537.36",1440,900,1384,707,main,1352964,127,22,20,EE,Extreme,Easier than Reference,D,k,riskyDeck,safeDeck,-14,0,-7,left,1,0,18,absent,riskyDeck,1047,1856
6yszjvjgmg7,13482,04/04/2022@12:44:56,"Mozilla/5.0 (Macintosh; Intel Mac OS X 10_15_7) AppleWebKit/537.36 (KHTML, like Gecko) Chrome/100.0.4896.60 Safari/537.36",1440,900,1384,707,main,1352964,128,22,20,HE,Extreme,Harder than Reference,F,k,safeDeck,riskyDeck,0,28,14,right,1,0,60,absent,riskyDeck,806,9866
6yszjvjgmg7,13482,04/04/2022@12:44:56,"Mozilla/5.0 (Macintosh; Intel Mac OS X 10_15_7) AppleWebKit/537.36 (KHTML, like Gecko) Chrome/100.0.4896.60 Safari/537.36",1440,900,1384,707,main,1352964,129,22,20,EE,Extreme,Easier than Reference,D,k,riskyDeck,safeDeck,-14,0,-7,left,1,0,32,absent,riskyDeck,766,4087
6yszjvjgmg7,13482,04/04/2022@12:44:56,"Mozilla/5.0 (Macintosh; Intel Mac OS X 10_15_7) AppleWebKit/537.36 (KHTML, like Gecko) Chrome/100.0.4896.60 Safari/537.36",1440,900,1384,707,main,1352964,130,22,20,HM,Moderate,Harder than Reference,D,j,riskyDeck,safeDeck,0,14,7,left,1,0,46,present,riskyDeck,1318,1107
6yszjvjgmg7,13482,04/04/2022@12:44:56,"Mozilla/5.0 (Macintosh; Intel Mac OS X 10_15_7) AppleWebKit/537.36 (KHTML, like Gecko) Chrome/100.0.4896.60 Safari/537.36",1440,900,1384,707,main,1352964,131,22,20,HE,Extreme,Harder than Reference,D,k,riskyDeck,safeDeck,28,0,14,left,1,0,32,absent,riskyDeck,676,3744
6yszjvjgmg7,13482,04/04/2022@12:44:56,"Mozilla/5.0 (Macintosh; Intel Mac OS X 10_15_7) AppleWebKit/537.36 (KHTML, like Gecko) Chrome/100.0.4896.60 Safari/537.36",1440,900,1384,707,main,1352964,132,23,20,EM,Moderate,Easier than Reference,D,k,riskyDeck,safeDeck,0,-28,-14,left,1,0,32,absent,riskyDeck,691,5786
6yszjvjgmg7,13482,04/04/2022@12:44:56,"Mozilla/5.0 (Macintosh; Intel Mac OS X 10_15_7) AppleWebKit/537.36 (KHTML, like Gecko) Chrome/100.0.4896.60 Safari/537.36",1440,900,1384,707,main,1352964,133,23,21,HM,Moderate,Harder than Reference,D,k,riskyDeck,safeDeck,0,14,7,left,1,0,32,absent,riskyDeck,1074,4480
6yszjvjgmg7,13482,04/04/2022@12:44:56,"Mozilla/5.0 (Macintosh; Intel Mac OS X 10_15_7) AppleWebKit/537.36 (KHTML, like Gecko) Chrome/100.0.4896.60 Safari/537.36",1440,900,1384,707,main,1352964,134,23,21,EE,Extreme,Easier than Reference,F,j,safeDeck,riskyDeck,0,-14,-7,right,1,0,18,present,riskyDeck,844,939
6yszjvjgmg7,13482,04/04/2022@12:44:56,"Mozilla/5.0 (Macintosh; Intel Mac OS X 10_15_7) AppleWebKit/537.36 (KHTML, like Gecko) Chrome/100.0.4896.60 Safari/537.36",1440,900,1384,707,main,1352964,135,23,21,HE,Extreme,Harder than Reference,D,j,riskyDeck,safeDeck,0,28,14,left,1,0,32,present,riskyDeck,600,2112
6yszjvjgmg7,13482,04/04/2022@12:44:56,"Mozilla/5.0 (Macintosh; Intel Mac OS X 10_15_7) AppleWebKit/537.36 (KHTML, like Gecko) Chrome/100.0.4896.60 Safari/537.36",1440,900,1384,707,main,1352964,136,23,21,EM,Moderate,Easier than Reference,F,k,safeDeck,riskyDeck,-28,0,-14,right,1,0,4,absent,riskyDeck,1048,1003
6yszjvjgmg7,13482,04/04/2022@12:44:56,"Mozilla/5.0 (Macintosh; Intel Mac OS X 10_15_7) AppleWebKit/537.36 (KHTML, like Gecko) Chrome/100.0.4896.60 Safari/537.36",1440,900,1384,707,main,1352964,137,23,21,EM,Moderate,Easier than Reference,D,j,riskyDeck,safeDeck,0,-28,-14,left,1,0,4,present,riskyDeck,2008,992
6yszjvjgmg7,13482,04/04/2022@12:44:56,"Mozilla/5.0 (Macintosh; Intel Mac OS X 10_15_7) AppleWebKit/537.36 (KHTML, like Gecko) Chrome/100.0.4896.60 Safari/537.36",1440,900,1384,707,main,1352964,138,23,21,HM,Moderate,Harder than Reference,F,j,safeDeck,riskyDeck,0,14,7,right,1,0,46,present,riskyDeck,762,1308
6yszjvjgmg7,13482,04/04/2022@12:44:56,"Mozilla/5.0 (Macintosh; Intel Mac OS X 10_15_7) AppleWebKit/537.36 (KHTML, like Gecko) Chrome/100.0.4896.60 Safari/537.36",1440,900,1384,707,main,1352964,139,23,21,HE,Extreme,Harder than Reference,F,j,safeDeck,riskyDeck,28,0,14,right,1,0,60,present,riskyDeck,3320,4710
6yszjvjgmg7,13482,04/04/2022@12:44:56,"Mozilla/5.0 (Macintosh; Intel Mac OS X 10_15_7) AppleWebKit/537.36 (KHTML, like Gecko) Chrome/100.0.4896.60 Safari/537.36",1440,900,1384,707,main,1352964,140,23,21,EE,Extreme,Easier than Reference,F,k,safeDeck,riskyDeck,0,-14,-7,right,1,0,18,absent,riskyDeck,1193,2181
6yszjvjgmg7,13482,04/04/2022@12:44:56,"Mozilla/5.0 (Macintosh; Intel Mac OS X 10_15_7) AppleWebKit/537.36 (KHTML, like Gecko) Chrome/100.0.4896.60 Safari/537.36",1440,900,1384,707,main,1352964,141,23,21,EE,Extreme,Easier than Reference,F,j,safeDeck,riskyDeck,-14,0,-7,right,1,0,32,present,riskyDeck,904,3659
6yszjvjgmg7,13482,04/04/2022@12:44:56,"Mozilla/5.0 (Macintosh; Intel Mac OS X 10_15_7) AppleWebKit/537.36 (KHTML, like Gecko) Chrome/100.0.4896.60 Safari/537.36",1440,900,1384,707,main,1352964,142,23,21,EM,Moderate,Easier than Reference,F,k,safeDeck,riskyDeck,0,-28,-14,right,1,0,4,absent,riskyDeck,1835,1362
6yszjvjgmg7,13482,04/04/2022@12:44:56,"Mozilla/5.0 (Macintosh; Intel Mac OS X 10_15_7) AppleWebKit/537.36 (KHTML, like Gecko) Chrome/100.0.4896.60 Safari/537.36",1440,900,1384,707,main,1352964,143,24,21,HE,Extreme,Harder than Reference,F,k,safeDeck,riskyDeck,28,0,14,right,1,0,32,absent,riskyDeck,1504,4246
6yszjvjgmg7,13482,04/04/2022@12:44:56,"Mozilla/5.0 (Macintosh; Intel Mac OS X 10_15_7) AppleWebKit/537.36 (KHTML, like Gecko) Chrome/100.0.4896.60 Safari/537.36",1440,900,1384,707,main,1352964,144,24,22,HM,Moderate,Harder than Reference,F,j,safeDeck,riskyDeck,14,0,7,right,1,0,46,present,riskyDeck,1452,1200
6yszjvjgmg7,13482,04/04/2022@12:44:56,"Mozilla/5.0 (Macintosh; Intel Mac OS X 10_15_7) AppleWebKit/537.36 (KHTML, like Gecko) Chrome/100.0.4896.60 Safari/537.36",1440,900,1384,707,main,1352964,145,24,22,HE,Extreme,Harder than Reference,F,k,safeDeck,riskyDeck,0,28,14,right,1,0,60,absent,riskyDeck,797,7227
6yszjvjgmg7,13482,04/04/2022@12:44:56,"Mozilla/5.0 (Macintosh; Intel Mac OS X 10_15_7) AppleWebKit/537.36 (KHTML, like Gecko) Chrome/100.0.4896.60 Safari/537.36",1440,900,1384,707,main,1352964,146,24,22,HM,Moderate,Harder than Reference,F,k,safeDeck,riskyDeck,14,0,7,right,1,0,46,absent,riskyDeck,666,5847
6yszjvjgmg7,13482,04/04/2022@12:44:56,"Mozilla/5.0 (Macintosh; Intel Mac OS X 10_15_7) AppleWebKit/537.36 (KHTML, like Gecko) Chrome/100.0.4896.60 Safari/537.36",1440,900,1384,707,main,1352964,147,24,22,EE,Extreme,Easier than Reference,D,k,safeDeck,riskyDeck,0,-14,-7,left,0,0,25,absent,safeDeck,972,3770
6yszjvjgmg7,13482,04/04/2022@12:44:56,"Mozilla/5.0 (Macintosh; Intel Mac OS X 10_15_7) AppleWebKit/537.36 (KHTML, like Gecko) Chrome/100.0.4896.60 Safari/537.36",1440,900,1384,707,main,1352964,148,24,22,EM,Moderate,Easier than Reference,D,j,riskyDeck,safeDeck,-28,0,-14,left,1,0,32,present,riskyDeck,1059,2717
6yszjvjgmg7,13482,04/04/2022@12:44:56,"Mozilla/5.0 (Macintosh; Intel Mac OS X 10_15_7) AppleWebKit/537.36 (KHTML, like Gecko) Chrome/100.0.4896.60 Safari/537.36",1440,900,1384,707,main,1352964,149,24,22,HM,Moderate,Harder than Reference,F,j,safeDeck,riskyDeck,14,0,7,right,1,0,46,present,riskyDeck,1312,2840
6yszjvjgmg7,13482,04/04/2022@12:44:56,"Mozilla/5.0 (Macintosh; Intel Mac OS X 10_15_7) AppleWebKit/537.36 (KHTML, like Gecko) Chrome/100.0.4896.60 Safari/537.36",1440,900,1384,707,main,1352964,150,24,22,HE,Extreme,Harder than Reference,D,k,riskyDeck,safeDeck,0,28,14,left,1,0,60,absent,riskyDeck,834,6946
6yszjvjgmg7,13482,04/04/2022@12:44:56,"Mozilla/5.0 (Macintosh; Intel Mac OS X 10_15_7) AppleWebKit/537.36 (KHTML, like Gecko) Chrome/100.0.4896.60 Safari/537.36",1440,900,1384,707,main,1352964,151,24,22,EE,Extreme,Easier than Reference,F,k,safeDeck,riskyDeck,0,-14,-7,right,1,0,18,absent,riskyDeck,975,2632
6yszjvjgmg7,13482,04/04/2022@12:44:56,"Mozilla/5.0 (Macintosh; Intel Mac OS X 10_15_7) AppleWebKit/537.36 (KHTML, like Gecko) Chrome/100.0.4896.60 Safari/537.36",1440,900,1384,707,main,1352964,152,25,23,EM,Moderate,Easier than Reference,F,k,safeDeck,riskyDeck,-28,0,-14,right,1,0,32,absent,riskyDeck,1126,4801
hqtxiubaoac,13611,28/03/2022@14:07:44,"Mozilla/5.0 (Windows NT 10.0; Win64; x64) AppleWebKit/537.36 (KHTML, like Gecko) Chrome/99.0.4844.82 Safari/537.36",1536,864,1536,750,main,845980,1,4,3,HE,Extreme,Harder than Reference,F,k,riskyDeck,safeDeck,0,28,14,right,0,0,46,absent,safeDeck,1550,3839
hqtxiubaoac,13611,28/03/2022@14:07:44,"Mozilla/5.0 (Windows NT 10.0; Win64; x64) AppleWebKit/537.36 (KHTML, like Gecko) Chrome/99.0.4844.82 Safari/537.36",1536,864,1536,750,main,845980,2,4,3,EM,Moderate,Easier than Reference,D,j,safeDeck,riskyDeck,0,-28,-14,left,0,0,18,present,safeDeck,2893,3498
hqtxiubaoac,13611,28/03/2022@14:07:44,"Mozilla/5.0 (Windows NT 10.0; Win64; x64) AppleWebKit/537.36 (KHTML, like Gecko) Chrome/99.0.4844.82 Safari/537.36",1536,864,1536,750,main,845980,3,4,3,EE,Extreme,Easier than Reference,F,j,riskyDeck,safeDeck,0,-14,-7,right,0,0,25,present,safeDeck,2147,1621
hqtxiubaoac,13611,28/03/2022@14:07:44,"Mozilla/5.0 (Windows NT 10.0; Win64; x64) AppleWebKit/537.36 (KHTML, like Gecko) Chrome/99.0.4844.82 Safari/537.36",1536,864,1536,750,main,845980,4,4,3,HM,Moderate,Harder than Reference,D,j,riskyDeck,safeDeck,14,0,7,left,1,0,32,present,riskyDeck,3042,2530
hqtxiubaoac,13611,28/03/2022@14:07:44,"Mozilla/5.0 (Windows NT 10.0; Win64; x64) AppleWebKit/537.36 (KHTML, like Gecko) Chrome/99.0.4844.82 Safari/537.36",1536,864,1536,750,main,845980,5,5,3,EE,Extreme,Easier than Reference,D,k,riskyDeck,safeDeck,-14,0,-7,left,1,0,18,absent,riskyDeck,1452,2663
hqtxiubaoac,13611,28/03/2022@14:07:44,"Mozilla/5.0 (Windows NT 10.0; Win64; x64) AppleWebKit/537.36 (KHTML, like Gecko) Chrome/99.0.4844.82 Safari/537.36",1536,864,1536,750,main,845980,6,5,3,HE,Extreme,Harder than Reference,D,j,riskyDeck,safeDeck,28,0,14,left,1,0,32,present,riskyDeck,1431,2720
hqtxiubaoac,13611,28/03/2022@14:07:44,"Mozilla/5.0 (Windows NT 10.0; Win64; x64) AppleWebKit/537.36 (KHTML, like Gecko) Chrome/99.0.4844.82 Safari/537.36",1536,864,1536,750,main,845980,7,5,3,EM,Moderate,Easier than Reference,F,j,riskyDeck,safeDeck,0,-28,-14,right,0,0,18,present,safeDeck,2587,1828
hqtxiubaoac,13611,28/03/2022@14:07:44,"Mozilla/5.0 (Windows NT 10.0; Win64; x64) AppleWebKit/537.36 (KHTML, like Gecko) Chrome/99.0.4844.82 Safari/537.36",1536,864,1536,750,main,845980,8,5,3,HM,Moderate,Harder than Reference,D,k,riskyDeck,safeDeck,0,14,7,left,1,0,32,absent,riskyDeck,2021,3435
hqtxiubaoac,13611,28/03/2022@14:07:44,"Mozilla/5.0 (Windows NT 10.0; Win64; x64) AppleWebKit/537.36 (KHTML, like Gecko) Chrome/99.0.4844.82 Safari/537.36",1536,864,1536,750,main,845980,9,5,3,EM,Moderate,Easier than Reference,F,j,riskyDeck,safeDeck,-28,0,-14,right,0,0,18,present,safeDeck,1501,1438
hqtxiubaoac,13611,28/03/2022@14:07:44,"Mozilla/5.0 (Windows NT 10.0; Win64; x64) AppleWebKit/537.36 (KHTML, like Gecko) Chrome/99.0.4844.82 Safari/537.36",1536,864,1536,750,main,845980,10,5,4,HE,Extreme,Harder than Reference,D,k,riskyDeck,safeDeck,0,28,14,left,1,0,60,absent,riskyDeck,1943,4761
hqtxiubaoac,13611,28/03/2022@14:07:44,"Mozilla/5.0 (Windows NT 10.0; Win64; x64) AppleWebKit/537.36 (KHTML, like Gecko) Chrome/99.0.4844.82 Safari/537.36",1536,864,1536,750,main,845980,11,5,4,HM,Moderate,Harder than Reference,F,j,riskyDeck,safeDeck,14,0,7,right,0,0,39,present,safeDeck,879,1407
hqtxiubaoac,13611,28/03/2022@14:07:44,"Mozilla/5.0 (Windows NT 10.0; Win64; x64) AppleWebKit/537.36 (KHTML, like Gecko) Chrome/99.0.4844.82 Safari/537.36",1536,864,1536,750,main,845980,12,5,4,EE,Extreme,Easier than Reference,F,k,riskyDeck,safeDeck,0,-14,-7,right,0,1,25,present,safeDeck,765,2924
hqtxiubaoac,13611,28/03/2022@14:07:44,"Mozilla/5.0 (Windows NT 10.0; Win64; x64) AppleWebKit/537.36 (KHTML, like Gecko) Chrome/99.0.4844.82 Safari/537.36",1536,864,1536,750,main,845980,13,5,4,EM,Moderate,Easier than Reference,F,j,riskyDeck,safeDeck,0,-28,-14,right,0,0,18,present,safeDeck,1122,902
hqtxiubaoac,13611,28/03/2022@14:07:44,"Mozilla/5.0 (Windows NT 10.0; Win64; x64) AppleWebKit/537.36 (KHTML, like Gecko) Chrome/99.0.4844.82 Safari/537.36",1536,864,1536,750,main,845980,14,5,4,HM,Moderate,Harder than Reference,D,k,riskyDeck,safeDeck,0,14,7,left,1,1,46,present,riskyDeck,509,3082
hqtxiubaoac,13611,28/03/2022@14:07:44,"Mozilla/5.0 (Windows NT 10.0; Win64; x64) AppleWebKit/537.36 (KHTML, like Gecko) Chrome/99.0.4844.82 Safari/537.36",1536,864,1536,750,main,845980,15,6,4,HE,Extreme,Harder than Reference,F,j,riskyDeck,safeDeck,28,0,14,right,0,0,46,present,safeDeck,1097,4429
hqtxiubaoac,13611,28/03/2022@14:07:44,"Mozilla/5.0 (Windows NT 10.0; Win64; x64) AppleWebKit/537.36 (KHTML, like Gecko) Chrome/99.0.4844.82 Safari/537.36",1536,864,1536,750,main,845980,16,6,4,EE,Extreme,Easier than Reference,F,k,riskyDeck,safeDeck,-14,0,-7,right,0,0,25,absent,safeDeck,791,2547
hqtxiubaoac,13611,28/03/2022@14:07:44,"Mozilla/5.0 (Windows NT 10.0; Win64; x64) AppleWebKit/537.36 (KHTML, like Gecko) Chrome/99.0.4844.82 Safari/537.36",1536,864,1536,750,main,845980,17,6,4,EE,Extreme,Easier than Reference,F,k,safeDeck,riskyDeck,0,-14,-7,right,1,0,32,absent,riskyDeck,622,3376
hqtxiubaoac,13611,28/03/2022@14:07:44,"Mozilla/5.0 (Windows NT 10.0; Win64; x64) AppleWebKit/537.36 (KHTML, like Gecko) Chrome/99.0.4844.82 Safari/537.36",1536,864,1536,750,main,845980,18,6,4,HM,Moderate,Harder than Reference,F,j,safeDeck,riskyDeck,0,14,7,right,1,0,46,present,riskyDeck,584,1491
hqtxiubaoac,13611,28/03/2022@14:07:44,"Mozilla/5.0 (Windows NT 10.0; Win64; x64) AppleWebKit/537.36 (KHTML, like Gecko) Chrome/99.0.4844.82 Safari/537.36",1536,864,1536,750,main,845980,19,6,4,HE,Extreme,Harder than Reference,F,k,safeDeck,riskyDeck,28,0,14,right,1,0,60,absent,riskyDeck,285,3069
hqtxiubaoac,13611,28/03/2022@14:07:44,"Mozilla/5.0 (Windows NT 10.0; Win64; x64) AppleWebKit/537.36 (KHTML, like Gecko) Chrome/99.0.4844.82 Safari/537.36",1536,864,1536,750,main,845980,20,6,4,EM,Moderate,Easier than Reference,F,k,safeDeck,riskyDeck,-28,0,-14,right,1,0,32,absent,riskyDeck,544,3244
hqtxiubaoac,13611,28/03/2022@14:07:44,"Mozilla/5.0 (Windows NT 10.0; Win64; x64) AppleWebKit/537.36 (KHTML, like Gecko) Chrome/99.0.4844.82 Safari/537.36",1536,864,1536,750,main,845980,21,6,4,EE,Extreme,Easier than Reference,F,j,riskyDeck,safeDeck,0,-14,-7,right,0,0,25,present,safeDeck,293,2286
hqtxiubaoac,13611,28/03/2022@14:07:44,"Mozilla/5.0 (Windows NT 10.0; Win64; x64) AppleWebKit/537.36 (KHTML, like Gecko) Chrome/99.0.4844.82 Safari/537.36",1536,864,1536,750,main,845980,22,6,5,HE,Extreme,Harder than Reference,F,k,riskyDeck,safeDeck,0,28,14,right,0,0,46,absent,safeDeck,352,4014
hqtxiubaoac,13611,28/03/2022@14:07:44,"Mozilla/5.0 (Windows NT 10.0; Win64; x64) AppleWebKit/537.36 (KHTML, like Gecko) Chrome/99.0.4844.82 Safari/537.36",1536,864,1536,750,main,845980,23,6,5,EM,Moderate,Easier than Reference,F,j,riskyDeck,safeDeck,-28,0,-14,right,0,0,18,present,safeDeck,361,1230
hqtxiubaoac,13611,28/03/2022@14:07:44,"Mozilla/5.0 (Windows NT 10.0; Win64; x64) AppleWebKit/537.36 (KHTML, like Gecko) Chrome/99.0.4844.82 Safari/537.36",1536,864,1536,750,main,845980,24,6,5,HM,Moderate,Harder than Reference,D,j,riskyDeck,safeDeck,0,14,7,left,1,0,46,present,riskyDeck,419,1067
hqtxiubaoac,13611,28/03/2022@14:07:44,"Mozilla/5.0 (Windows NT 10.0; Win64; x64) AppleWebKit/537.36 (KHTML, like Gecko) Chrome/99.0.4844.82 Safari/537.36",1536,864,1536,750,main,845980,25,6,5,EM,Moderate,Easier than Reference,D,k,safeDeck,riskyDeck,0,-28,-14,left,0,0,18,absent,safeDeck,391,1665
hqtxiubaoac,13611,28/03/2022@14:07:44,"Mozilla/5.0 (Windows NT 10.0; Win64; x64) AppleWebKit/537.36 (KHTML, like Gecko) Chrome/99.0.4844.82 Safari/537.36",1536,864,1536,750,main,845980,26,6,5,HE,Extreme,Harder than Reference,D,j,riskyDeck,safeDeck,28,0,14,left,1,0,32,present,riskyDeck,535,932
hqtxiubaoac,13611,28/03/2022@14:07:44,"Mozilla/5.0 (Windows NT 10.0; Win64; x64) AppleWebKit/537.36 (KHTML, like Gecko) Chrome/99.0.4844.82 Safari/537.36",1536,864,1536,750,main,845980,27,7,5,EE,Extreme,Easier than Reference,F,k,safeDeck,riskyDeck,0,-14,-7,right,1,0,32,absent,riskyDeck,417,1881
hqtxiubaoac,13611,28/03/2022@14:07:44,"Mozilla/5.0 (Windows NT 10.0; Win64; x64) AppleWebKit/537.36 (KHTML, like Gecko) Chrome/99.0.4844.82 Safari/537.36",1536,864,1536,750,main,845980,28,7,5,HM,Moderate,Harder than Reference,F,j,safeDeck,riskyDeck,14,0,7,right,1,0,32,present,riskyDeck,313,1629
hqtxiubaoac,13611,28/03/2022@14:07:44,"Mozilla/5.0 (Windows NT 10.0; Win64; x64) AppleWebKit/537.36 (KHTML, like Gecko) Chrome/99.0.4844.82 Safari/537.36",1536,864,1536,750,main,845980,29,7,5,EM,Moderate,Easier than Reference,F,j,safeDeck,riskyDeck,0,-28,-14,right,1,0,32,present,riskyDeck,381,2132
hqtxiubaoac,13611,28/03/2022@14:07:44,"Mozilla/5.0 (Windows NT 10.0; Win64; x64) AppleWebKit/537.36 (KHTML, like Gecko) Chrome/99.0.4844.82 Safari/537.36",1536,864,1536,750,main,845980,30,7,5,HE,Extreme,Harder than Reference,D,k,riskyDeck,safeDeck,0,28,14,left,1,0,60,absent,riskyDeck,866,3818
hqtxiubaoac,13611,28/03/2022@14:07:44,"Mozilla/5.0 (Windows NT 10.0; Win64; x64) AppleWebKit/537.36 (KHTML, like Gecko) Chrome/99.0.4844.82 Safari/537.36",1536,864,1536,750,main,845980,31,7,5,EE,Extreme,Easier than Reference,F,j,riskyDeck,safeDeck,0,-14,-7,right,0,0,25,present,safeDeck,751,1320
hqtxiubaoac,13611,28/03/2022@14:07:44,"Mozilla/5.0 (Windows NT 10.0; Win64; x64) AppleWebKit/537.36 (KHTML, like Gecko) Chrome/99.0.4844.82 Safari/537.36",1536,864,1536,750,main,845980,32,7,5,HM,Moderate,Harder than Reference,D,k,safeDeck,riskyDeck,0,14,7,left,0,0,39,absent,safeDeck,532,2695
hqtxiubaoac,13611,28/03/2022@14:07:44,"Mozilla/5.0 (Windows NT 10.0; Win64; x64) AppleWebKit/537.36 (KHTML, like Gecko) Chrome/99.0.4844.82 Safari/537.36",1536,864,1536,750,main,845980,33,7,5,EM,Moderate,Easier than Reference,D,k,safeDeck,riskyDeck,-28,0,-14,left,0,0,18,absent,safeDeck,671,2092
hqtxiubaoac,13611,28/03/2022@14:07:44,"Mozilla/5.0 (Windows NT 10.0; Win64; x64) AppleWebKit/537.36 (KHTML, like Gecko) Chrome/99.0.4844.82 Safari/537.36",1536,864,1536,750,main,845980,34,7,5,HE,Extreme,Harder than Reference,F,k,safeDeck,riskyDeck,28,0,14,right,1,0,32,absent,riskyDeck,662,2528
hqtxiubaoac,13611,28/03/2022@14:07:44,"Mozilla/5.0 (Windows NT 10.0; Win64; x64) AppleWebKit/537.36 (KHTML, like Gecko) Chrome/99.0.4844.82 Safari/537.36",1536,864,1536,750,main,845980,35,7,6,EE,Extreme,Easier than Reference,F,j,riskyDeck,safeDeck,-14,0,-7,right,0,0,25,present,safeDeck,1458,1790
hqtxiubaoac,13611,28/03/2022@14:07:44,"Mozilla/5.0 (Windows NT 10.0; Win64; x64) AppleWebKit/537.36 (KHTML, like Gecko) Chrome/99.0.4844.82 Safari/537.36",1536,864,1536,750,main,845980,36,7,6,HM,Moderate,Harder than Reference,F,j,safeDeck,riskyDeck,14,0,7,right,1,0,32,present,riskyDeck,2899,949
hqtxiubaoac,13611,28/03/2022@14:07:44,"Mozilla/5.0 (Windows NT 10.0; Win64; x64) AppleWebKit/537.36 (KHTML, like Gecko) Chrome/99.0.4844.82 Safari/537.36",1536,864,1536,750,main,845980,37,7,6,HE,Extreme,Harder than Reference,D,j,safeDeck,riskyDeck,28,0,14,left,0,0,46,present,safeDeck,1540,3130
hqtxiubaoac,13611,28/03/2022@14:07:44,"Mozilla/5.0 (Windows NT 10.0; Win64; x64) AppleWebKit/537.36 (KHTML, like Gecko) Chrome/99.0.4844.82 Safari/537.36",1536,864,1536,750,main,845980,38,7,6,EM,Moderate,Easier than Reference,D,k,riskyDeck,safeDeck,-28,0,-14,left,1,0,4,absent,riskyDeck,445,1242
hqtxiubaoac,13611,28/03/2022@14:07:44,"Mozilla/5.0 (Windows NT 10.0; Win64; x64) AppleWebKit/537.36 (KHTML, like Gecko) Chrome/99.0.4844.82 Safari/537.36",1536,864,1536,750,main,845980,39,8,6,EE,Extreme,Easier than Reference,D,k,safeDeck,riskyDeck,-14,0,-7,left,0,1,25,present,safeDeck,675,1954
hqtxiubaoac,13611,28/03/2022@14:07:44,"Mozilla/5.0 (Windows NT 10.0; Win64; x64) AppleWebKit/537.36 (KHTML, like Gecko) Chrome/99.0.4844.82 Safari/537.36",1536,864,1536,750,main,845980,40,8,6,HM,Moderate,Harder than Reference,D,j,riskyDeck,safeDeck,14,0,7,left,1,0,46,present,riskyDeck,376,2371
hqtxiubaoac,13611,28/03/2022@14:07:44,"Mozilla/5.0 (Windows NT 10.0; Win64; x64) AppleWebKit/537.36 (KHTML, like Gecko) Chrome/99.0.4844.82 Safari/537.36",1536,864,1536,750,main,845980,41,8,6,HM,Moderate,Harder than Reference,D,j,riskyDeck,safeDeck,0,14,7,left,1,0,46,present,riskyDeck,418,1646
hqtxiubaoac,13611,28/03/2022@14:07:44,"Mozilla/5.0 (Windows NT 10.0; Win64; x64) AppleWebKit/537.36 (KHTML, like Gecko) Chrome/99.0.4844.82 Safari/537.36",1536,864,1536,750,main,845980,42,8,6,EM,Moderate,Easier than Reference,D,k,safeDeck,riskyDeck,0,-28,-14,left,0,0,18,absent,safeDeck,588,2448
hqtxiubaoac,13611,28/03/2022@14:07:44,"Mozilla/5.0 (Windows NT 10.0; Win64; x64) AppleWebKit/537.36 (KHTML, like Gecko) Chrome/99.0.4844.82 Safari/537.36",1536,864,1536,750,main,845980,43,8,6,EE,Extreme,Easier than Reference,D,j,riskyDeck,safeDeck,0,-14,-7,left,1,0,18,present,riskyDeck,287,1445
hqtxiubaoac,13611,28/03/2022@14:07:44,"Mozilla/5.0 (Windows NT 10.0; Win64; x64) AppleWebKit/537.36 (KHTML, like Gecko) Chrome/99.0.4844.82 Safari/537.36",1536,864,1536,750,main,845980,44,8,6,HE,Extreme,Harder than Reference,D,j,safeDeck,riskyDeck,28,0,14,left,0,0,46,present,safeDeck,245,1234
hqtxiubaoac,13611,28/03/2022@14:07:44,"Mozilla/5.0 (Windows NT 10.0; Win64; x64) AppleWebKit/537.36 (KHTML, like Gecko) Chrome/99.0.4844.82 Safari/537.36",1536,864,1536,750,main,845980,45,8,6,EM,Moderate,Easier than Reference,D,k,riskyDeck,safeDeck,-28,0,-14,left,1,0,4,absent,riskyDeck,317,1061
hqtxiubaoac,13611,28/03/2022@14:07:44,"Mozilla/5.0 (Windows NT 10.0; Win64; x64) AppleWebKit/537.36 (KHTML, like Gecko) Chrome/99.0.4844.82 Safari/537.36",1536,864,1536,750,main,845980,46,8,6,HM,Moderate,Harder than Reference,D,k,safeDeck,riskyDeck,0,14,7,left,0,0,39,absent,safeDeck,349,1963
hqtxiubaoac,13611,28/03/2022@14:07:44,"Mozilla/5.0 (Windows NT 10.0; Win64; x64) AppleWebKit/537.36 (KHTML, like Gecko) Chrome/99.0.4844.82 Safari/537.36",1536,864,1536,750,main,845980,47,8,7,EE,Extreme,Easier than Reference,D,j,safeDeck,riskyDeck,-14,0,-7,left,0,0,25,present,safeDeck,796,1933
hqtxiubaoac,13611,28/03/2022@14:07:44,"Mozilla/5.0 (Windows NT 10.0; Win64; x64) AppleWebKit/537.36 (KHTML, like Gecko) Chrome/99.0.4844.82 Safari/537.36",1536,864,1536,750,main,845980,48,8,7,HE,Extreme,Harder than Reference,D,k,riskyDeck,safeDeck,28,0,14,left,1,0,32,absent,riskyDeck,339,2247
hqtxiubaoac,13611,28/03/2022@14:07:44,"Mozilla/5.0 (Windows NT 10.0; Win64; x64) AppleWebKit/537.36 (KHTML, like Gecko) Chrome/99.0.4844.82 Safari/537.36",1536,864,1536,750,main,845980,49,8,7,EM,Moderate,Easier than Reference,D,k,riskyDeck,safeDeck,0,-28,-14,left,1,0,32,absent,riskyDeck,370,1959
hqtxiubaoac,13611,28/03/2022@14:07:44,"Mozilla/5.0 (Windows NT 10.0; Win64; x64) AppleWebKit/537.36 (KHTML, like Gecko) Chrome/99.0.4844.82 Safari/537.36",1536,864,1536,750,main,845980,50,8,7,HE,Extreme,Harder than Reference,D,k,riskyDeck,safeDeck,0,28,14,left,1,1,60,present,riskyDeck,49,3394
hqtxiubaoac,13611,28/03/2022@14:07:44,"Mozilla/5.0 (Windows NT 10.0; Win64; x64) AppleWebKit/537.36 (KHTML, like Gecko) Chrome/99.0.4844.82 Safari/537.36",1536,864,1536,750,main,845980,51,8,7,HM,Moderate,Harder than Reference,D,j,safeDeck,riskyDeck,0,14,7,left,0,0,39,present,safeDeck,268,1271
hqtxiubaoac,13611,28/03/2022@14:07:44,"Mozilla/5.0 (Windows NT 10.0; Win64; x64) AppleWebKit/537.36 (KHTML, like Gecko) Chrome/99.0.4844.82 Safari/537.36",1536,864,1536,750,main,845980,52,8,7,EE,Extreme,Easier than Reference,D,j,riskyDeck,safeDeck,-14,0,-7,left,1,0,32,present,riskyDeck,355,948
hqtxiubaoac,13611,28/03/2022@14:07:44,"Mozilla/5.0 (Windows NT 10.0; Win64; x64) AppleWebKit/537.36 (KHTML, like Gecko) Chrome/99.0.4844.82 Safari/537.36",1536,864,1536,750,main,845980,53,9,7,EM,Moderate,Easier than Reference,D,j,riskyDeck,safeDeck,-28,0,-14,left,1,0,4,present,riskyDeck,211,734
hqtxiubaoac,13611,28/03/2022@14:07:44,"Mozilla/5.0 (Windows NT 10.0; Win64; x64) AppleWebKit/537.36 (KHTML, like Gecko) Chrome/99.0.4844.82 Safari/537.36",1536,864,1536,750,main,845980,54,9,7,HE,Extreme,Harder than Reference,D,j,riskyDeck,safeDeck,28,0,14,left,1,0,32,present,riskyDeck,383,1927
hqtxiubaoac,13611,28/03/2022@14:07:44,"Mozilla/5.0 (Windows NT 10.0; Win64; x64) AppleWebKit/537.36 (KHTML, like Gecko) Chrome/99.0.4844.82 Safari/537.36",1536,864,1536,750,main,845980,55,9,7,EE,Extreme,Easier than Reference,D,k,riskyDeck,safeDeck,0,-14,-7,left,1,0,32,absent,riskyDeck,524,2540
hqtxiubaoac,13611,28/03/2022@14:07:44,"Mozilla/5.0 (Windows NT 10.0; Win64; x64) AppleWebKit/537.36 (KHTML, like Gecko) Chrome/99.0.4844.82 Safari/537.36",1536,864,1536,750,main,845980,56,9,7,HM,Moderate,Harder than Reference,D,j,riskyDeck,safeDeck,14,0,7,left,1,0,46,present,riskyDeck,699,1964
hqtxiubaoac,13611,28/03/2022@14:07:44,"Mozilla/5.0 (Windows NT 10.0; Win64; x64) AppleWebKit/537.36 (KHTML, like Gecko) Chrome/99.0.4844.82 Safari/537.36",1536,864,1536,750,main,845980,57,9,7,EM,Moderate,Easier than Reference,D,k,safeDeck,riskyDeck,-28,0,-14,left,0,0,18,absent,safeDeck,458,1423
hqtxiubaoac,13611,28/03/2022@14:07:44,"Mozilla/5.0 (Windows NT 10.0; Win64; x64) AppleWebKit/537.36 (KHTML, like Gecko) Chrome/99.0.4844.82 Safari/537.36",1536,864,1536,750,main,845980,58,9,7,HE,Extreme,Harder than Reference,D,k,riskyDeck,safeDeck,28,0,14,left,1,0,60,absent,riskyDeck,244,2547
hqtxiubaoac,13611,28/03/2022@14:07:44,"Mozilla/5.0 (Windows NT 10.0; Win64; x64) AppleWebKit/537.36 (KHTML, like Gecko) Chrome/99.0.4844.82 Safari/537.36",1536,864,1536,750,main,845980,59,9,7,HM,Moderate,Harder than Reference,D,k,safeDeck,riskyDeck,0,14,7,left,0,0,39,absent,safeDeck,465,1577
hqtxiubaoac,13611,28/03/2022@14:07:44,"Mozilla/5.0 (Windows NT 10.0; Win64; x64) AppleWebKit/537.36 (KHTML, like Gecko) Chrome/99.0.4844.82 Safari/537.36",1536,864,1536,750,main,845980,60,9,7,EE,Extreme,Easier than Reference,D,k,safeDeck,riskyDeck,-14,0,-7,left,0,0,25,absent,safeDeck,285,1553
hqtxiubaoac,13611,28/03/2022@14:07:44,"Mozilla/5.0 (Windows NT 10.0; Win64; x64) AppleWebKit/537.36 (KHTML, like Gecko) Chrome/99.0.4844.82 Safari/537.36",1536,864,1536,750,main,845980,61,9,8,HE,Extreme,Harder than Reference,D,k,safeDeck,riskyDeck,28,0,14,left,0,0,46,absent,safeDeck,480,2501
hqtxiubaoac,13611,28/03/2022@14:07:44,"Mozilla/5.0 (Windows NT 10.0; Win64; x64) AppleWebKit/537.36 (KHTML, like Gecko) Chrome/99.0.4844.82 Safari/537.36",1536,864,1536,750,main,845980,62,9,8,HM,Moderate,Harder than Reference,D,k,safeDeck,riskyDeck,14,0,7,left,0,0,39,absent,safeDeck,549,1650
hqtxiubaoac,13611,28/03/2022@14:07:44,"Mozilla/5.0 (Windows NT 10.0; Win64; x64) AppleWebKit/537.36 (KHTML, like Gecko) Chrome/99.0.4844.82 Safari/537.36",1536,864,1536,750,main,845980,63,9,8,EM,Moderate,Easier than Reference,D,k,safeDeck,riskyDeck,-28,0,-14,left,0,0,18,absent,safeDeck,350,2007
hqtxiubaoac,13611,28/03/2022@14:07:44,"Mozilla/5.0 (Windows NT 10.0; Win64; x64) AppleWebKit/537.36 (KHTML, like Gecko) Chrome/99.0.4844.82 Safari/537.36",1536,864,1536,750,main,845980,64,9,8,EE,Extreme,Easier than Reference,D,k,riskyDeck,safeDeck,0,-14,-7,left,1,0,32,absent,riskyDeck,291,2329
hqtxiubaoac,13611,28/03/2022@14:07:44,"Mozilla/5.0 (Windows NT 10.0; Win64; x64) AppleWebKit/537.36 (KHTML, like Gecko) Chrome/99.0.4844.82 Safari/537.36",1536,864,1536,750,main,845980,65,9,8,HM,Moderate,Harder than Reference,D,k,safeDeck,riskyDeck,14,0,7,left,0,0,39,absent,safeDeck,312,2281
hqtxiubaoac,13611,28/03/2022@14:07:44,"Mozilla/5.0 (Windows NT 10.0; Win64; x64) AppleWebKit/537.36 (KHTML, like Gecko) Chrome/99.0.4844.82 Safari/537.36",1536,864,1536,750,main,845980,66,9,8,EE,Extreme,Easier than Reference,D,k,riskyDeck,safeDeck,0,-14,-7,left,1,0,32,absent,riskyDeck,548,2031
hqtxiubaoac,13611,28/03/2022@14:07:44,"Mozilla/5.0 (Windows NT 10.0; Win64; x64) AppleWebKit/537.36 (KHTML, like Gecko) Chrome/99.0.4844.82 Safari/537.36",1536,864,1536,750,main,845980,67,10,8,EM,Moderate,Easier than Reference,D,j,riskyDeck,safeDeck,-28,0,-14,left,1,0,4,present,riskyDeck,712,1100
hqtxiubaoac,13611,28/03/2022@14:07:44,"Mozilla/5.0 (Windows NT 10.0; Win64; x64) AppleWebKit/537.36 (KHTML, like Gecko) Chrome/99.0.4844.82 Safari/537.36",1536,864,1536,750,main,845980,68,10,8,HE,Extreme,Harder than Reference,D,j,safeDeck,riskyDeck,28,0,14,left,0,0,46,present,safeDeck,530,1411
hqtxiubaoac,13611,28/03/2022@14:07:44,"Mozilla/5.0 (Windows NT 10.0; Win64; x64) AppleWebKit/537.36 (KHTML, like Gecko) Chrome/99.0.4844.82 Safari/537.36",1536,864,1536,750,main,845980,69,10,8,EE,Extreme,Easier than Reference,D,j,safeDeck,riskyDeck,-14,0,-7,left,0,0,25,present,safeDeck,127,1073
hqtxiubaoac,13611,28/03/2022@14:07:44,"Mozilla/5.0 (Windows NT 10.0; Win64; x64) AppleWebKit/537.36 (KHTML, like Gecko) Chrome/99.0.4844.82 Safari/537.36",1536,864,1536,750,main,845980,70,10,8,HE,Extreme,Harder than Reference,F,j,safeDeck,riskyDeck,28,0,14,right,1,0,32,present,riskyDeck,568,1759
hqtxiubaoac,13611,28/03/2022@14:07:44,"Mozilla/5.0 (Windows NT 10.0; Win64; x64) AppleWebKit/537.36 (KHTML, like Gecko) Chrome/99.0.4844.82 Safari/537.36",1536,864,1536,750,main,845980,71,10,8,EM,Moderate,Easier than Reference,D,k,riskyDeck,safeDeck,-28,0,-14,left,1,0,32,absent,riskyDeck,298,2576
hqtxiubaoac,13611,28/03/2022@14:07:44,"Mozilla/5.0 (Windows NT 10.0; Win64; x64) AppleWebKit/537.36 (KHTML, like Gecko) Chrome/99.0.4844.82 Safari/537.36",1536,864,1536,750,main,845980,72,10,8,HM,Moderate,Harder than Reference,D,k,riskyDeck,safeDeck,0,14,7,left,1,0,32,absent,riskyDeck,326,3849
hqtxiubaoac,13611,28/03/2022@14:07:44,"Mozilla/5.0 (Windows NT 10.0; Win64; x64) AppleWebKit/537.36 (KHTML, like Gecko) Chrome/99.0.4844.82 Safari/537.36",1536,864,1536,750,main,845980,73,10,8,HM,Moderate,Harder than Reference,D,k,riskyDeck,safeDeck,0,14,7,left,1,1,46,present,riskyDeck,266,2631
hqtxiubaoac,13611,28/03/2022@14:07:44,"Mozilla/5.0 (Windows NT 10.0; Win64; x64) AppleWebKit/537.36 (KHTML, like Gecko) Chrome/99.0.4844.82 Safari/537.36",1536,864,1536,750,main,845980,74,10,8,EM,Moderate,Easier than Reference,D,k,riskyDeck,safeDeck,-28,0,-14,left,1,0,32,absent,riskyDeck,645,2341
hqtxiubaoac,13611,28/03/2022@14:07:44,"Mozilla/5.0 (Windows NT 10.0; Win64; x64) AppleWebKit/537.36 (KHTML, like Gecko) Chrome/99.0.4844.82 Safari/537.36",1536,864,1536,750,main,845980,75,10,9,HE,Extreme,Harder than Reference,D,j,riskyDeck,safeDeck,0,28,14,left,1,0,60,present,riskyDeck,386,4180
hqtxiubaoac,13611,28/03/2022@14:07:44,"Mozilla/5.0 (Windows NT 10.0; Win64; x64) AppleWebKit/537.36 (KHTML, like Gecko) Chrome/99.0.4844.82 Safari/537.36",1536,864,1536,750,main,845980,76,10,9,EE,Extreme,Easier than Reference,D,j,riskyDeck,safeDeck,-14,0,-7,left,1,0,18,present,riskyDeck,818,938
hqtxiubaoac,13611,28/03/2022@14:07:44,"Mozilla/5.0 (Windows NT 10.0; Win64; x64) AppleWebKit/537.36 (KHTML, like Gecko) Chrome/99.0.4844.82 Safari/537.36",1536,864,1536,750,main,845980,77,11,9,EE,Extreme,Easier than Reference,F,j,riskyDeck,safeDeck,-14,0,-7,right,0,0,25,present,safeDeck,941,1494
hqtxiubaoac,13611,28/03/2022@14:07:44,"Mozilla/5.0 (Windows NT 10.0; Win64; x64) AppleWebKit/537.36 (KHTML, like Gecko) Chrome/99.0.4844.82 Safari/537.36",1536,864,1536,750,main,845980,78,11,9,EM,Moderate,Easier than Reference,D,j,safeDeck,riskyDeck,0,-28,-14,left,0,0,18,present,safeDeck,231,1076
hqtxiubaoac,13611,28/03/2022@14:07:44,"Mozilla/5.0 (Windows NT 10.0; Win64; x64) AppleWebKit/537.36 (KHTML, like Gecko) Chrome/99.0.4844.82 Safari/537.36",1536,864,1536,750,main,845980,79,11,9,HE,Extreme,Harder than Reference,D,k,riskyDeck,safeDeck,0,28,14,left,1,0,60,absent,riskyDeck,286,1966
hqtxiubaoac,13611,28/03/2022@14:07:44,"Mozilla/5.0 (Windows NT 10.0; Win64; x64) AppleWebKit/537.36 (KHTML, like Gecko) Chrome/99.0.4844.82 Safari/537.36",1536,864,1536,750,main,845980,80,11,9,HM,Moderate,Harder than Reference,D,j,safeDeck,riskyDeck,0,14,7,left,0,0,39,present,safeDeck,477,3291
hqtxiubaoac,13611,28/03/2022@14:07:44,"Mozilla/5.0 (Windows NT 10.0; Win64; x64) AppleWebKit/537.36 (KHTML, like Gecko) Chrome/99.0.4844.82 Safari/537.36",1536,864,1536,750,main,845980,81,11,9,HM,Moderate,Harder than Reference,D,k,riskyDeck,safeDeck,0,14,7,left,1,1,46,present,riskyDeck,333,2267
hqtxiubaoac,13611,28/03/2022@14:07:44,"Mozilla/5.0 (Windows NT 10.0; Win64; x64) AppleWebKit/537.36 (KHTML, like Gecko) Chrome/99.0.4844.82 Safari/537.36",1536,864,1536,750,main,845980,82,11,9,EE,Extreme,Easier than Reference,D,k,safeDeck,riskyDeck,0,-14,-7,left,0,0,25,absent,safeDeck,298,2587
hqtxiubaoac,13611,28/03/2022@14:07:44,"Mozilla/5.0 (Windows NT 10.0; Win64; x64) AppleWebKit/537.36 (KHTML, like Gecko) Chrome/99.0.4844.82 Safari/537.36",1536,864,1536,750,main,845980,83,11,9,HE,Extreme,Harder than Reference,D,j,safeDeck,riskyDeck,28,0,14,left,0,0,46,present,safeDeck,315,886
hqtxiubaoac,13611,28/03/2022@14:07:44,"Mozilla/5.0 (Windows NT 10.0; Win64; x64) AppleWebKit/537.36 (KHTML, like Gecko) Chrome/99.0.4844.82 Safari/537.36",1536,864,1536,750,main,845980,84,11,9,EM,Moderate,Easier than Reference,D,j,riskyDeck,safeDeck,0,-28,-14,left,1,0,32,present,riskyDeck,417,1145
hqtxiubaoac,13611,28/03/2022@14:07:44,"Mozilla/5.0 (Windows NT 10.0; Win64; x64) AppleWebKit/537.36 (KHTML, like Gecko) Chrome/99.0.4844.82 Safari/537.36",1536,864,1536,750,main,845980,85,11,10,EE,Extreme,Easier than Reference,D,j,riskyDeck,safeDeck,0,-14,-7,left,1,0,32,present,riskyDeck,268,1367
hqtxiubaoac,13611,28/03/2022@14:07:44,"Mozilla/5.0 (Windows NT 10.0; Win64; x64) AppleWebKit/537.36 (KHTML, like Gecko) Chrome/99.0.4844.82 Safari/537.36",1536,864,1536,750,main,845980,86,11,10,HM,Moderate,Harder than Reference,D,j,safeDeck,riskyDeck,0,14,7,left,0,0,39,present,safeDeck,277,1005
hqtxiubaoac,13611,28/03/2022@14:07:44,"Mozilla/5.0 (Windows NT 10.0; Win64; x64) AppleWebKit/537.36 (KHTML, like Gecko) Chrome/99.0.4844.82 Safari/537.36",1536,864,1536,750,main,845980,87,11,10,HE,Extreme,Harder than Reference,D,j,safeDeck,riskyDeck,28,0,14,left,0,0,46,present,safeDeck,317,919
hqtxiubaoac,13611,28/03/2022@14:07:44,"Mozilla/5.0 (Windows NT 10.0; Win64; x64) AppleWebKit/537.36 (KHTML, like Gecko) Chrome/99.0.4844.82 Safari/537.36",1536,864,1536,750,main,845980,88,11,10,EM,Moderate,Easier than Reference,D,k,safeDeck,riskyDeck,-28,0,-14,left,0,0,18,absent,safeDeck,561,2654
hqtxiubaoac,13611,28/03/2022@14:07:44,"Mozilla/5.0 (Windows NT 10.0; Win64; x64) AppleWebKit/537.36 (KHTML, like Gecko) Chrome/99.0.4844.82 Safari/537.36",1536,864,1536,750,main,845980,89,11,10,EE,Extreme,Easier than Reference,D,j,riskyDeck,safeDeck,-14,0,-7,left,1,0,32,present,riskyDeck,526,747
hqtxiubaoac,13611,28/03/2022@14:07:44,"Mozilla/5.0 (Windows NT 10.0; Win64; x64) AppleWebKit/537.36 (KHTML, like Gecko) Chrome/99.0.4844.82 Safari/537.36",1536,864,1536,750,main,845980,90,11,10,HE,Extreme,Harder than Reference,D,k,safeDeck,riskyDeck,0,28,14,left,0,0,46,absent,safeDeck,302,2463
hqtxiubaoac,13611,28/03/2022@14:07:44,"Mozilla/5.0 (Windows NT 10.0; Win64; x64) AppleWebKit/537.36 (KHTML, like Gecko) Chrome/99.0.4844.82 Safari/537.36",1536,864,1536,750,main,845980,91,12,10,HM,Moderate,Harder than Reference,D,k,safeDeck,riskyDeck,14,0,7,left,0,0,39,absent,safeDeck,494,1563
hqtxiubaoac,13611,28/03/2022@14:07:44,"Mozilla/5.0 (Windows NT 10.0; Win64; x64) AppleWebKit/537.36 (KHTML, like Gecko) Chrome/99.0.4844.82 Safari/537.36",1536,864,1536,750,main,845980,92,12,10,EM,Moderate,Easier than Reference,D,j,safeDeck,riskyDeck,-28,0,-14,left,0,0,18,present,safeDeck,214,963
hqtxiubaoac,13611,28/03/2022@14:07:44,"Mozilla/5.0 (Windows NT 10.0; Win64; x64) AppleWebKit/537.36 (KHTML, like Gecko) Chrome/99.0.4844.82 Safari/537.36",1536,864,1536,750,main,845980,93,12,10,HE,Extreme,Harder than Reference,D,k,riskyDeck,safeDeck,28,0,14,left,1,0,32,absent,riskyDeck,382,1653
hqtxiubaoac,13611,28/03/2022@14:07:44,"Mozilla/5.0 (Windows NT 10.0; Win64; x64) AppleWebKit/537.36 (KHTML, like Gecko) Chrome/99.0.4844.82 Safari/537.36",1536,864,1536,750,main,845980,94,12,10,EM,Moderate,Easier than Reference,D,j,safeDeck,riskyDeck,-28,0,-14,left,0,0,18,present,safeDeck,577,1228
hqtxiubaoac,13611,28/03/2022@14:07:44,"Mozilla/5.0 (Windows NT 10.0; Win64; x64) AppleWebKit/537.36 (KHTML, like Gecko) Chrome/99.0.4844.82 Safari/537.36",1536,864,1536,750,main,845980,95,12,10,EE,Extreme,Easier than Reference,D,k,riskyDeck,safeDeck,0,-14,-7,left,1,0,18,absent,riskyDeck,277,1531
hqtxiubaoac,13611,28/03/2022@14:07:44,"Mozilla/5.0 (Windows NT 10.0; Win64; x64) AppleWebKit/537.36 (KHTML, like Gecko) Chrome/99.0.4844.82 Safari/537.36",1536,864,1536,750,main,845980,96,12,10,HM,Moderate,Harder than Reference,D,k,safeDeck,riskyDeck,14,0,7,left,0,0,39,absent,safeDeck,317,2334
hqtxiubaoac,13611,28/03/2022@14:07:44,"Mozilla/5.0 (Windows NT 10.0; Win64; x64) AppleWebKit/537.36 (KHTML, like Gecko) Chrome/99.0.4844.82 Safari/537.36",1536,864,1536,750,main,845980,97,12,10,EE,Extreme,Easier than Reference,D,j,riskyDeck,safeDeck,-14,0,-7,left,1,0,32,present,riskyDeck,262,1335
hqtxiubaoac,13611,28/03/2022@14:07:44,"Mozilla/5.0 (Windows NT 10.0; Win64; x64) AppleWebKit/537.36 (KHTML, like Gecko) Chrome/99.0.4844.82 Safari/537.36",1536,864,1536,750,main,845980,98,12,10,HE,Extreme,Harder than Reference,D,k,riskyDeck,safeDeck,0,28,14,left,1,0,32,absent,riskyDeck,243,1697
hqtxiubaoac,13611,28/03/2022@14:07:44,"Mozilla/5.0 (Windows NT 10.0; Win64; x64) AppleWebKit/537.36 (KHTML, like Gecko) Chrome/99.0.4844.82 Safari/537.36",1536,864,1536,750,main,845980,99,12,10,EM,Moderate,Easier than Reference,D,j,safeDeck,riskyDeck,0,-28,-14,left,0,0,18,present,safeDeck,256,854
hqtxiubaoac,13611,28/03/2022@14:07:44,"Mozilla/5.0 (Windows NT 10.0; Win64; x64) AppleWebKit/537.36 (KHTML, like Gecko) Chrome/99.0.4844.82 Safari/537.36",1536,864,1536,750,main,845980,100,12,11,HM,Moderate,Harder than Reference,D,k,riskyDeck,safeDeck,14,0,7,left,1,0,46,absent,riskyDeck,241,2387
hqtxiubaoac,13611,28/03/2022@14:07:44,"Mozilla/5.0 (Windows NT 10.0; Win64; x64) AppleWebKit/537.36 (KHTML, like Gecko) Chrome/99.0.4844.82 Safari/537.36",1536,864,1536,750,main,845980,101,12,11,HM,Moderate,Harder than Reference,D,k,safeDeck,riskyDeck,14,0,7,left,0,1,39,present,safeDeck,263,1613
hqtxiubaoac,13611,28/03/2022@14:07:44,"Mozilla/5.0 (Windows NT 10.0; Win64; x64) AppleWebKit/537.36 (KHTML, like Gecko) Chrome/99.0.4844.82 Safari/537.36",1536,864,1536,750,main,845980,102,12,11,EE,Extreme,Easier than Reference,D,k,safeDeck,riskyDeck,0,-14,-7,left,0,0,25,absent,safeDeck,134,1843
hqtxiubaoac,13611,28/03/2022@14:07:44,"Mozilla/5.0 (Windows NT 10.0; Win64; x64) AppleWebKit/537.36 (KHTML, like Gecko) Chrome/99.0.4844.82 Safari/537.36",1536,864,1536,750,main,845980,103,12,11,HE,Extreme,Harder than Reference,D,j,safeDeck,riskyDeck,0,28,14,left,0,0,46,present,safeDeck,139,1423
hqtxiubaoac,13611,28/03/2022@14:07:44,"Mozilla/5.0 (Windows NT 10.0; Win64; x64) AppleWebKit/537.36 (KHTML, like Gecko) Chrome/99.0.4844.82 Safari/537.36",1536,864,1536,750,main,845980,104,12,11,EM,Moderate,Easier than Reference,D,k,riskyDeck,safeDeck,-28,0,-14,left,1,0,4,absent,riskyDeck,253,814
hqtxiubaoac,13611,28/03/2022@14:07:44,"Mozilla/5.0 (Windows NT 10.0; Win64; x64) AppleWebKit/537.36 (KHTML, like Gecko) Chrome/99.0.4844.82 Safari/537.36",1536,864,1536,750,main,845980,105,12,11,HE,Extreme,Harder than Reference,D,k,riskyDeck,safeDeck,0,28,14,left,1,0,32,absent,riskyDeck,234,1564
hqtxiubaoac,13611,28/03/2022@14:07:44,"Mozilla/5.0 (Windows NT 10.0; Win64; x64) AppleWebKit/537.36 (KHTML, like Gecko) Chrome/99.0.4844.82 Safari/537.36",1536,864,1536,750,main,845980,106,12,11,EM,Moderate,Easier than Reference,D,j,safeDeck,riskyDeck,-28,0,-14,left,0,0,18,present,safeDeck,267,1246
hqtxiubaoac,13611,28/03/2022@14:07:44,"Mozilla/5.0 (Windows NT 10.0; Win64; x64) AppleWebKit/537.36 (KHTML, like Gecko) Chrome/99.0.4844.82 Safari/537.36",1536,864,1536,750,main,845980,107,13,11,EE,Extreme,Easier than Reference,D,k,riskyDeck,safeDeck,-14,0,-7,left,1,0,32,absent,riskyDeck,241,1865
hqtxiubaoac,13611,28/03/2022@14:07:44,"Mozilla/5.0 (Windows NT 10.0; Win64; x64) AppleWebKit/537.36 (KHTML, like Gecko) Chrome/99.0.4844.82 Safari/537.36",1536,864,1536,750,main,845980,108,13,11,HM,Moderate,Harder than Reference,D,k,riskyDeck,safeDeck,0,14,7,left,1,0,32,absent,riskyDeck,249,2239
hqtxiubaoac,13611,28/03/2022@14:07:44,"Mozilla/5.0 (Windows NT 10.0; Win64; x64) AppleWebKit/537.36 (KHTML, like Gecko) Chrome/99.0.4844.82 Safari/537.36",1536,864,1536,750,main,845980,109,13,11,HE,Extreme,Harder than Reference,D,k,riskyDeck,safeDeck,28,0,14,left,1,0,32,absent,riskyDeck,259,1092
hqtxiubaoac,13611,28/03/2022@14:07:44,"Mozilla/5.0 (Windows NT 10.0; Win64; x64) AppleWebKit/537.36 (KHTML, like Gecko) Chrome/99.0.4844.82 Safari/537.36",1536,864,1536,750,main,845980,110,13,11,HM,Moderate,Harder than Reference,D,j,riskyDeck,safeDeck,14,0,7,left,1,0,32,present,riskyDeck,52,945
hqtxiubaoac,13611,28/03/2022@14:07:44,"Mozilla/5.0 (Windows NT 10.0; Win64; x64) AppleWebKit/537.36 (KHTML, like Gecko) Chrome/99.0.4844.82 Safari/537.36",1536,864,1536,750,main,845980,111,13,11,EE,Extreme,Easier than Reference,D,j,safeDeck,riskyDeck,0,-14,-7,left,0,0,25,present,safeDeck,273,909
hqtxiubaoac,13611,28/03/2022@14:07:44,"Mozilla/5.0 (Windows NT 10.0; Win64; x64) AppleWebKit/537.36 (KHTML, like Gecko) Chrome/99.0.4844.82 Safari/537.36",1536,864,1536,750,main,845980,112,13,11,EM,Moderate,Easier than Reference,D,k,safeDeck,riskyDeck,0,-28,-14,left,0,0,18,absent,safeDeck,628,1528
hqtxiubaoac,13611,28/03/2022@14:07:44,"Mozilla/5.0 (Windows NT 10.0; Win64; x64) AppleWebKit/537.36 (KHTML, like Gecko) Chrome/99.0.4844.82 Safari/537.36",1536,864,1536,750,main,845980,113,13,11,HE,Extreme,Harder than Reference,D,k,safeDeck,riskyDeck,0,28,14,left,0,0,46,absent,safeDeck,492,1929
hqtxiubaoac,13611,28/03/2022@14:07:44,"Mozilla/5.0 (Windows NT 10.0; Win64; x64) AppleWebKit/537.36 (KHTML, like Gecko) Chrome/99.0.4844.82 Safari/537.36",1536,864,1536,750,main,845980,114,13,11,HM,Moderate,Harder than Reference,D,k,safeDeck,riskyDeck,0,14,7,left,0,0,39,absent,safeDeck,433,1448
hqtxiubaoac,13611,28/03/2022@14:07:44,"Mozilla/5.0 (Windows NT 10.0; Win64; x64) AppleWebKit/537.36 (KHTML, like Gecko) Chrome/99.0.4844.82 Safari/537.36",1536,864,1536,750,main,845980,115,13,12,EM,Moderate,Easier than Reference,D,j,riskyDeck,safeDeck,-28,0,-14,left,1,0,32,present,riskyDeck,436,1130
hqtxiubaoac,13611,28/03/2022@14:07:44,"Mozilla/5.0 (Windows NT 10.0; Win64; x64) AppleWebKit/537.36 (KHTML, like Gecko) Chrome/99.0.4844.82 Safari/537.36",1536,864,1536,750,main,845980,116,13,12,EE,Extreme,Easier than Reference,D,j,safeDeck,riskyDeck,-14,0,-7,left,0,0,25,present,safeDeck,360,623
hqtxiubaoac,13611,28/03/2022@14:07:44,"Mozilla/5.0 (Windows NT 10.0; Win64; x64) AppleWebKit/537.36 (KHTML, like Gecko) Chrome/99.0.4844.82 Safari/537.36",1536,864,1536,750,main,845980,117,13,12,EM,Moderate,Easier than Reference,D,k,riskyDeck,safeDeck,0,-28,-14,left,1,1,4,present,riskyDeck,373,747
hqtxiubaoac,13611,28/03/2022@14:07:44,"Mozilla/5.0 (Windows NT 10.0; Win64; x64) AppleWebKit/537.36 (KHTML, like Gecko) Chrome/99.0.4844.82 Safari/537.36",1536,864,1536,750,main,845980,118,13,12,HM,Moderate,Harder than Reference,D,k,safeDeck,riskyDeck,14,0,7,left,0,0,39,absent,safeDeck,138,1336
hqtxiubaoac,13611,28/03/2022@14:07:44,"Mozilla/5.0 (Windows NT 10.0; Win64; x64) AppleWebKit/537.36 (KHTML, like Gecko) Chrome/99.0.4844.82 Safari/537.36",1536,864,1536,750,main,845980,119,13,12,EE,Extreme,Easier than Reference,D,j,riskyDeck,safeDeck,-14,0,-7,left,1,0,18,present,riskyDeck,76,2050
hqtxiubaoac,13611,28/03/2022@14:07:44,"Mozilla/5.0 (Windows NT 10.0; Win64; x64) AppleWebKit/537.36 (KHTML, like Gecko) Chrome/99.0.4844.82 Safari/537.36",1536,864,1536,750,main,845980,120,13,12,HE,Extreme,Harder than Reference,D,j,riskyDeck,safeDeck,28,0,14,left,1,0,32,present,riskyDeck,451,1388
hqtxiubaoac,13611,28/03/2022@14:07:44,"Mozilla/5.0 (Windows NT 10.0; Win64; x64) AppleWebKit/537.36 (KHTML, like Gecko) Chrome/99.0.4844.82 Safari/537.36",1536,864,1536,750,main,845980,121,14,12,HE,Extreme,Harder than Reference,D,k,riskyDeck,safeDeck,0,28,14,left,1,0,32,absent,riskyDeck,201,1912
hqtxiubaoac,13611,28/03/2022@14:07:44,"Mozilla/5.0 (Windows NT 10.0; Win64; x64) AppleWebKit/537.36 (KHTML, like Gecko) Chrome/99.0.4844.82 Safari/537.36",1536,864,1536,750,main,845980,122,14,12,HM,Moderate,Harder than Reference,D,k,riskyDeck,safeDeck,14,0,7,left,1,0,46,absent,riskyDeck,357,2645
hqtxiubaoac,13611,28/03/2022@14:07:44,"Mozilla/5.0 (Windows NT 10.0; Win64; x64) AppleWebKit/537.36 (KHTML, like Gecko) Chrome/99.0.4844.82 Safari/537.36",1536,864,1536,750,main,845980,123,14,12,EM,Moderate,Easier than Reference,D,j,riskyDeck,safeDeck,-28,0,-14,left,1,0,32,present,riskyDeck,267,1483
hqtxiubaoac,13611,28/03/2022@14:07:44,"Mozilla/5.0 (Windows NT 10.0; Win64; x64) AppleWebKit/537.36 (KHTML, like Gecko) Chrome/99.0.4844.82 Safari/537.36",1536,864,1536,750,main,845980,124,14,12,EE,Extreme,Easier than Reference,D,k,riskyDeck,safeDeck,-14,0,-7,left,1,0,18,absent,riskyDeck,276,1413
hqtxiubaoac,13611,28/03/2022@14:07:44,"Mozilla/5.0 (Windows NT 10.0; Win64; x64) AppleWebKit/537.36 (KHTML, like Gecko) Chrome/99.0.4844.82 Safari/537.36",1536,864,1536,750,main,845980,125,14,12,HM,Moderate,Harder than Reference,D,j,riskyDeck,safeDeck,14,0,7,left,1,0,32,present,riskyDeck,114,947
hqtxiubaoac,13611,28/03/2022@14:07:44,"Mozilla/5.0 (Windows NT 10.0; Win64; x64) AppleWebKit/537.36 (KHTML, like Gecko) Chrome/99.0.4844.82 Safari/537.36",1536,864,1536,750,main,845980,126,14,12,EM,Moderate,Easier than Reference,D,j,safeDeck,riskyDeck,-28,0,-14,left,0,0,18,present,safeDeck,199,723
hqtxiubaoac,13611,28/03/2022@14:07:44,"Mozilla/5.0 (Windows NT 10.0; Win64; x64) AppleWebKit/537.36 (KHTML, like Gecko) Chrome/99.0.4844.82 Safari/537.36",1536,864,1536,750,main,845980,127,14,12,EE,Extreme,Easier than Reference,D,k,riskyDeck,safeDeck,0,-14,-7,left,1,0,32,absent,riskyDeck,126,1963
hqtxiubaoac,13611,28/03/2022@14:07:44,"Mozilla/5.0 (Windows NT 10.0; Win64; x64) AppleWebKit/537.36 (KHTML, like Gecko) Chrome/99.0.4844.82 Safari/537.36",1536,864,1536,750,main,845980,128,14,12,HE,Extreme,Harder than Reference,D,k,riskyDeck,safeDeck,0,28,14,left,1,0,32,absent,riskyDeck,520,1883
hqtxiubaoac,13611,28/03/2022@14:07:44,"Mozilla/5.0 (Windows NT 10.0; Win64; x64) AppleWebKit/537.36 (KHTML, like Gecko) Chrome/99.0.4844.82 Safari/537.36",1536,864,1536,750,main,845980,129,14,12,HE,Extreme,Harder than Reference,D,k,riskyDeck,safeDeck,28,0,14,left,1,0,32,absent,riskyDeck,394,1644
hqtxiubaoac,13611,28/03/2022@14:07:44,"Mozilla/5.0 (Windows NT 10.0; Win64; x64) AppleWebKit/537.36 (KHTML, like Gecko) Chrome/99.0.4844.82 Safari/537.36",1536,864,1536,750,main,845980,130,14,13,EM,Moderate,Easier than Reference,D,j,riskyDeck,safeDeck,-28,0,-14,left,1,0,4,present,riskyDeck,232,1007
hqtxiubaoac,13611,28/03/2022@14:07:44,"Mozilla/5.0 (Windows NT 10.0; Win64; x64) AppleWebKit/537.36 (KHTML, like Gecko) Chrome/99.0.4844.82 Safari/537.36",1536,864,1536,750,main,845980,131,14,13,EE,Extreme,Easier than Reference,D,k,riskyDeck,safeDeck,0,-14,-7,left,1,0,18,absent,riskyDeck,231,1742
hqtxiubaoac,13611,28/03/2022@14:07:44,"Mozilla/5.0 (Windows NT 10.0; Win64; x64) AppleWebKit/537.36 (KHTML, like Gecko) Chrome/99.0.4844.82 Safari/537.36",1536,864,1536,750,main,845980,132,14,13,HM,Moderate,Harder than Reference,D,j,safeDeck,riskyDeck,0,14,7,left,0,0,39,present,safeDeck,191,1099
hqtxiubaoac,13611,28/03/2022@14:07:44,"Mozilla/5.0 (Windows NT 10.0; Win64; x64) AppleWebKit/537.36 (KHTML, like Gecko) Chrome/99.0.4844.82 Safari/537.36",1536,864,1536,750,main,845980,133,14,13,HE,Extreme,Harder than Reference,D,j,safeDeck,riskyDeck,0,28,14,left,0,0,46,present,safeDeck,365,1591
hqtxiubaoac,13611,28/03/2022@14:07:44,"Mozilla/5.0 (Windows NT 10.0; Win64; x64) AppleWebKit/537.36 (KHTML, like Gecko) Chrome/99.0.4844.82 Safari/537.36",1536,864,1536,750,main,845980,134,14,13,EE,Extreme,Easier than Reference,D,k,riskyDeck,safeDeck,0,-14,-7,left,1,0,32,absent,riskyDeck,250,2164
hqtxiubaoac,13611,28/03/2022@14:07:44,"Mozilla/5.0 (Windows NT 10.0; Win64; x64) AppleWebKit/537.36 (KHTML, like Gecko) Chrome/99.0.4844.82 Safari/537.36",1536,864,1536,750,main,845980,135,14,13,HM,Moderate,Harder than Reference,D,j,riskyDeck,safeDeck,14,0,7,left,1,0,32,present,riskyDeck,349,959
hqtxiubaoac,13611,28/03/2022@14:07:44,"Mozilla/5.0 (Windows NT 10.0; Win64; x64) AppleWebKit/537.36 (KHTML, like Gecko) Chrome/99.0.4844.82 Safari/537.36",1536,864,1536,750,main,845980,136,15,13,EM,Moderate,Easier than Reference,D,j,safeDeck,riskyDeck,-28,0,-14,left,0,0,18,present,safeDeck,313,849
hqtxiubaoac,13611,28/03/2022@14:07:44,"Mozilla/5.0 (Windows NT 10.0; Win64; x64) AppleWebKit/537.36 (KHTML, like Gecko) Chrome/99.0.4844.82 Safari/537.36",1536,864,1536,750,main,845980,137,15,13,EM,Moderate,Easier than Reference,D,j,safeDeck,riskyDeck,0,-28,-14,left,0,0,18,present,safeDeck,246,1156
hqtxiubaoac,13611,28/03/2022@14:07:44,"Mozilla/5.0 (Windows NT 10.0; Win64; x64) AppleWebKit/537.36 (KHTML, like Gecko) Chrome/99.0.4844.82 Safari/537.36",1536,864,1536,750,main,845980,138,15,13,EE,Extreme,Easier than Reference,D,j,safeDeck,riskyDeck,-14,0,-7,left,0,0,25,present,safeDeck,270,1154
hqtxiubaoac,13611,28/03/2022@14:07:44,"Mozilla/5.0 (Windows NT 10.0; Win64; x64) AppleWebKit/537.36 (KHTML, like Gecko) Chrome/99.0.4844.82 Safari/537.36",1536,864,1536,750,main,845980,139,15,13,HE,Extreme,Harder than Reference,D,j,safeDeck,riskyDeck,28,0,14,left,0,0,46,present,safeDeck,366,913
hqtxiubaoac,13611,28/03/2022@14:07:44,"Mozilla/5.0 (Windows NT 10.0; Win64; x64) AppleWebKit/537.36 (KHTML, like Gecko) Chrome/99.0.4844.82 Safari/537.36",1536,864,1536,750,main,845980,140,15,13,HM,Moderate,Harder than Reference,D,j,safeDeck,riskyDeck,0,14,7,left,0,0,39,present,safeDeck,552,2042
hqtxiubaoac,13611,28/03/2022@14:07:44,"Mozilla/5.0 (Windows NT 10.0; Win64; x64) AppleWebKit/537.36 (KHTML, like Gecko) Chrome/99.0.4844.82 Safari/537.36",1536,864,1536,750,main,845980,141,15,13,EM,Moderate,Easier than Reference,D,j,safeDeck,riskyDeck,-28,0,-14,left,0,0,18,present,safeDeck,593,724
hqtxiubaoac,13611,28/03/2022@14:07:44,"Mozilla/5.0 (Windows NT 10.0; Win64; x64) AppleWebKit/537.36 (KHTML, like Gecko) Chrome/99.0.4844.82 Safari/537.36",1536,864,1536,750,main,845980,142,15,13,HM,Moderate,Harder than Reference,D,k,safeDeck,riskyDeck,0,14,7,left,0,0,39,absent,safeDeck,559,2293
hqtxiubaoac,13611,28/03/2022@14:07:44,"Mozilla/5.0 (Windows NT 10.0; Win64; x64) AppleWebKit/537.36 (KHTML, like Gecko) Chrome/99.0.4844.82 Safari/537.36",1536,864,1536,750,main,845980,143,15,13,HE,Extreme,Harder than Reference,D,k,safeDeck,riskyDeck,0,28,14,left,0,0,46,absent,safeDeck,443,2416
hqtxiubaoac,13611,28/03/2022@14:07:44,"Mozilla/5.0 (Windows NT 10.0; Win64; x64) AppleWebKit/537.36 (KHTML, like Gecko) Chrome/99.0.4844.82 Safari/537.36",1536,864,1536,750,main,845980,144,15,13,EE,Extreme,Easier than Reference,D,k,riskyDeck,safeDeck,-14,0,-7,left,1,0,32,absent,riskyDeck,654,2435
hqtxiubaoac,13611,28/03/2022@14:07:44,"Mozilla/5.0 (Windows NT 10.0; Win64; x64) AppleWebKit/537.36 (KHTML, like Gecko) Chrome/99.0.4844.82 Safari/537.36",1536,864,1536,750,main,845980,145,15,14,HE,Extreme,Harder than Reference,D,k,riskyDeck,safeDeck,0,28,14,left,1,0,32,absent,riskyDeck,318,1482
hqtxiubaoac,13611,28/03/2022@14:07:44,"Mozilla/5.0 (Windows NT 10.0; Win64; x64) AppleWebKit/537.36 (KHTML, like Gecko) Chrome/99.0.4844.82 Safari/537.36",1536,864,1536,750,main,845980,146,15,14,EM,Moderate,Easier than Reference,D,j,riskyDeck,safeDeck,0,-28,-14,left,1,0,4,present,riskyDeck,139,581
hqtxiubaoac,13611,28/03/2022@14:07:44,"Mozilla/5.0 (Windows NT 10.0; Win64; x64) AppleWebKit/537.36 (KHTML, like Gecko) Chrome/99.0.4844.82 Safari/537.36",1536,864,1536,750,main,845980,147,15,14,EE,Extreme,Easier than Reference,D,j,riskyDeck,safeDeck,0,-14,-7,left,1,0,32,present,riskyDeck,163,1166
hqtxiubaoac,13611,28/03/2022@14:07:44,"Mozilla/5.0 (Windows NT 10.0; Win64; x64) AppleWebKit/537.36 (KHTML, like Gecko) Chrome/99.0.4844.82 Safari/537.36",1536,864,1536,750,main,845980,148,15,14,HM,Moderate,Harder than Reference,D,j,safeDeck,riskyDeck,14,0,7,left,0,0,39,present,safeDeck,227,1246
hqtxiubaoac,13611,28/03/2022@14:07:44,"Mozilla/5.0 (Windows NT 10.0; Win64; x64) AppleWebKit/537.36 (KHTML, like Gecko) Chrome/99.0.4844.82 Safari/537.36",1536,864,1536,750,main,845980,149,15,14,HM,Moderate,Harder than Reference,D,k,riskyDeck,safeDeck,0,14,7,left,1,0,46,absent,riskyDeck,170,1633
hqtxiubaoac,13611,28/03/2022@14:07:44,"Mozilla/5.0 (Windows NT 10.0; Win64; x64) AppleWebKit/537.36 (KHTML, like Gecko) Chrome/99.0.4844.82 Safari/537.36",1536,864,1536,750,main,845980,150,15,14,EE,Extreme,Easier than Reference,D,k,safeDeck,riskyDeck,0,-14,-7,left,0,0,25,absent,safeDeck,13,1145
hqtxiubaoac,13611,28/03/2022@14:07:44,"Mozilla/5.0 (Windows NT 10.0; Win64; x64) AppleWebKit/537.36 (KHTML, like Gecko) Chrome/99.0.4844.82 Safari/537.36",1536,864,1536,750,main,845980,151,16,14,EM,Moderate,Easier than Reference,D,k,safeDeck,riskyDeck,0,-28,-14,left,0,0,18,absent,safeDeck,231,1409
hqtxiubaoac,13611,28/03/2022@14:07:44,"Mozilla/5.0 (Windows NT 10.0; Win64; x64) AppleWebKit/537.36 (KHTML, like Gecko) Chrome/99.0.4844.82 Safari/537.36",1536,864,1536,750,main,845980,152,16,14,HE,Extreme,Harder than Reference,D,k,safeDeck,riskyDeck,28,0,14,left,0,1,46,present,safeDeck,461,1205
5h6n1t4pnhk,13457,04/04/2022@11:40:32,"Mozilla/5.0 (Macintosh; Intel Mac OS X 10_15_7) AppleWebKit/537.36 (KHTML, like Gecko) Chrome/99.0.4844.84 Safari/537.36",1440,900,1440,821,main,1186263,1,3,2,HE,Extreme,Harder than Reference,F,k,safeDeck,riskyDeck,28,0,14,right,1,1,32,present,riskyDeck,13943,5210
5h6n1t4pnhk,13457,04/04/2022@11:40:32,"Mozilla/5.0 (Macintosh; Intel Mac OS X 10_15_7) AppleWebKit/537.36 (KHTML, like Gecko) Chrome/99.0.4844.84 Safari/537.36",1440,900,1440,821,main,1186263,2,3,2,EE,Extreme,Easier than Reference,F,j,safeDeck,riskyDeck,-14,0,-7,right,1,0,32,present,riskyDeck,4075,3475
5h6n1t4pnhk,13457,04/04/2022@11:40:32,"Mozilla/5.0 (Macintosh; Intel Mac OS X 10_15_7) AppleWebKit/537.36 (KHTML, like Gecko) Chrome/99.0.4844.84 Safari/537.36",1440,900,1440,821,main,1186263,3,3,2,EM,Moderate,Easier than Reference,D,j,safeDeck,riskyDeck,0,-28,-14,left,0,1,18,absent,safeDeck,1248,3776
5h6n1t4pnhk,13457,04/04/2022@11:40:32,"Mozilla/5.0 (Macintosh; Intel Mac OS X 10_15_7) AppleWebKit/537.36 (KHTML, like Gecko) Chrome/99.0.4844.84 Safari/537.36",1440,900,1440,821,main,1186263,4,4,3,HM,Moderate,Harder than Reference,F,k,riskyDeck,safeDeck,0,14,7,right,0,0,39,absent,safeDeck,822,3687
5h6n1t4pnhk,13457,04/04/2022@11:40:32,"Mozilla/5.0 (Macintosh; Intel Mac OS X 10_15_7) AppleWebKit/537.36 (KHTML, like Gecko) Chrome/99.0.4844.84 Safari/537.36",1440,900,1440,821,main,1186263,5,4,3,EM,Moderate,Easier than Reference,D,k,riskyDeck,safeDeck,-28,0,-14,left,1,1,32,present,riskyDeck,1252,4925
5h6n1t4pnhk,13457,04/04/2022@11:40:32,"Mozilla/5.0 (Macintosh; Intel Mac OS X 10_15_7) AppleWebKit/537.36 (KHTML, like Gecko) Chrome/99.0.4844.84 Safari/537.36",1440,900,1440,821,main,1186263,6,4,3,EE,Extreme,Easier than Reference,F,k,riskyDeck,safeDeck,0,-14,-7,right,0,0,25,absent,safeDeck,20113,5249
5h6n1t4pnhk,13457,04/04/2022@11:40:32,"Mozilla/5.0 (Macintosh; Intel Mac OS X 10_15_7) AppleWebKit/537.36 (KHTML, like Gecko) Chrome/99.0.4844.84 Safari/537.36",1440,900,1440,821,main,1186263,7,5,4,HM,Moderate,Harder than Reference,F,k,safeDeck,riskyDeck,0,14,7,right,1,0,32,absent,riskyDeck,7460,16914
5h6n1t4pnhk,13457,04/04/2022@11:40:32,"Mozilla/5.0 (Macintosh; Intel Mac OS X 10_15_7) AppleWebKit/537.36 (KHTML, like Gecko) Chrome/99.0.4844.84 Safari/537.36",1440,900,1440,821,main,1186263,8,5,4,HE,Extreme,Harder than Reference,D,k,riskyDeck,safeDeck,0,28,14,left,1,1,60,present,riskyDeck,6562,7255
5h6n1t4pnhk,13457,04/04/2022@11:40:32,"Mozilla/5.0 (Macintosh; Intel Mac OS X 10_15_7) AppleWebKit/537.36 (KHTML, like Gecko) Chrome/99.0.4844.84 Safari/537.36",1440,900,1440,821,main,1186263,9,5,4,EE,Extreme,Easier than Reference,D,j,safeDeck,riskyDeck,-14,0,-7,left,0,0,25,present,safeDeck,1137,1643
5h6n1t4pnhk,13457,04/04/2022@11:40:32,"Mozilla/5.0 (Macintosh; Intel Mac OS X 10_15_7) AppleWebKit/537.36 (KHTML, like Gecko) Chrome/99.0.4844.84 Safari/537.36",1440,900,1440,821,main,1186263,10,5,4,HM,Moderate,Harder than Reference,F,k,riskyDeck,safeDeck,14,0,7,right,0,0,39,absent,safeDeck,1007,6412
5h6n1t4pnhk,13457,04/04/2022@11:40:32,"Mozilla/5.0 (Macintosh; Intel Mac OS X 10_15_7) AppleWebKit/537.36 (KHTML, like Gecko) Chrome/99.0.4844.84 Safari/537.36",1440,900,1440,821,main,1186263,11,5,4,EM,Moderate,Easier than Reference,F,j,riskyDeck,safeDeck,-28,0,-14,right,0,1,18,absent,safeDeck,5762,3083
5h6n1t4pnhk,13457,04/04/2022@11:40:32,"Mozilla/5.0 (Macintosh; Intel Mac OS X 10_15_7) AppleWebKit/537.36 (KHTML, like Gecko) Chrome/99.0.4844.84 Safari/537.36",1440,900,1440,821,main,1186263,12,5,4,HE,Extreme,Harder than Reference,F,j,riskyDeck,safeDeck,0,28,14,right,0,0,46,present,safeDeck,612,2116
5h6n1t4pnhk,13457,04/04/2022@11:40:32,"Mozilla/5.0 (Macintosh; Intel Mac OS X 10_15_7) AppleWebKit/537.36 (KHTML, like Gecko) Chrome/99.0.4844.84 Safari/537.36",1440,900,1440,821,main,1186263,13,5,4,HE,Extreme,Harder than Reference,F,j,riskyDeck,safeDeck,0,28,14,right,0,0,46,present,safeDeck,880,1313
5h6n1t4pnhk,13457,04/04/2022@11:40:32,"Mozilla/5.0 (Macintosh; Intel Mac OS X 10_15_7) AppleWebKit/537.36 (KHTML, like Gecko) Chrome/99.0.4844.84 Safari/537.36",1440,900,1440,821,main,1186263,14,6,5,EE,Extreme,Easier than Reference,D,j,safeDeck,riskyDeck,0,-14,-7,left,0,0,25,present,safeDeck,854,1674
5h6n1t4pnhk,13457,04/04/2022@11:40:32,"Mozilla/5.0 (Macintosh; Intel Mac OS X 10_15_7) AppleWebKit/537.36 (KHTML, like Gecko) Chrome/99.0.4844.84 Safari/537.36",1440,900,1440,821,main,1186263,15,6,5,EM,Moderate,Easier than Reference,D,j,riskyDeck,safeDeck,0,-28,-14,left,1,0,32,present,riskyDeck,708,1782
5h6n1t4pnhk,13457,04/04/2022@11:40:32,"Mozilla/5.0 (Macintosh; Intel Mac OS X 10_15_7) AppleWebKit/537.36 (KHTML, like Gecko) Chrome/99.0.4844.84 Safari/537.36",1440,900,1440,821,main,1186263,16,6,5,HM,Moderate,Harder than Reference,D,j,riskyDeck,safeDeck,0,14,7,left,1,0,32,present,riskyDeck,890,4144
5h6n1t4pnhk,13457,04/04/2022@11:40:32,"Mozilla/5.0 (Macintosh; Intel Mac OS X 10_15_7) AppleWebKit/537.36 (KHTML, like Gecko) Chrome/99.0.4844.84 Safari/537.36",1440,900,1440,821,main,1186263,17,6,5,EE,Extreme,Easier than Reference,D,k,riskyDeck,safeDeck,0,-14,-7,left,1,0,18,absent,riskyDeck,695,4153
5h6n1t4pnhk,13457,04/04/2022@11:40:32,"Mozilla/5.0 (Macintosh; Intel Mac OS X 10_15_7) AppleWebKit/537.36 (KHTML, like Gecko) Chrome/99.0.4844.84 Safari/537.36",1440,900,1440,821,main,1186263,18,6,5,EM,Moderate,Easier than Reference,F,j,safeDeck,riskyDeck,-28,0,-14,right,1,0,32,present,riskyDeck,1152,5036
5h6n1t4pnhk,13457,04/04/2022@11:40:32,"Mozilla/5.0 (Macintosh; Intel Mac OS X 10_15_7) AppleWebKit/537.36 (KHTML, like Gecko) Chrome/99.0.4844.84 Safari/537.36",1440,900,1440,821,main,1186263,19,6,5,HE,Extreme,Harder than Reference,F,j,safeDeck,riskyDeck,0,28,14,right,1,0,32,present,riskyDeck,3624,1918
5h6n1t4pnhk,13457,04/04/2022@11:40:32,"Mozilla/5.0 (Macintosh; Intel Mac OS X 10_15_7) AppleWebKit/537.36 (KHTML, like Gecko) Chrome/99.0.4844.84 Safari/537.36",1440,900,1440,821,main,1186263,20,6,5,HM,Moderate,Harder than Reference,F,k,safeDeck,riskyDeck,0,14,7,right,1,0,32,absent,riskyDeck,993,5468
5h6n1t4pnhk,13457,04/04/2022@11:40:32,"Mozilla/5.0 (Macintosh; Intel Mac OS X 10_15_7) AppleWebKit/537.36 (KHTML, like Gecko) Chrome/99.0.4844.84 Safari/537.36",1440,900,1440,821,main,1186263,21,6,5,EM,Moderate,Easier than Reference,F,j,riskyDeck,safeDeck,0,-28,-14,right,0,0,18,present,safeDeck,1218,4132
5h6n1t4pnhk,13457,04/04/2022@11:40:32,"Mozilla/5.0 (Macintosh; Intel Mac OS X 10_15_7) AppleWebKit/537.36 (KHTML, like Gecko) Chrome/99.0.4844.84 Safari/537.36",1440,900,1440,821,main,1186263,22,6,5,HM,Moderate,Harder than Reference,F,j,riskyDeck,safeDeck,0,14,7,right,0,0,39,present,safeDeck,818,1812
5h6n1t4pnhk,13457,04/04/2022@11:40:32,"Mozilla/5.0 (Macintosh; Intel Mac OS X 10_15_7) AppleWebKit/537.36 (KHTML, like Gecko) Chrome/99.0.4844.84 Safari/537.36",1440,900,1440,821,main,1186263,23,7,6,HE,Extreme,Harder than Reference,F,k,riskyDeck,safeDeck,28,0,14,right,0,0,46,absent,safeDeck,1149,8988
5h6n1t4pnhk,13457,04/04/2022@11:40:32,"Mozilla/5.0 (Macintosh; Intel Mac OS X 10_15_7) AppleWebKit/537.36 (KHTML, like Gecko) Chrome/99.0.4844.84 Safari/537.36",1440,900,1440,821,main,1186263,24,7,6,EE,Extreme,Easier than Reference,F,j,safeDeck,riskyDeck,0,-14,-7,right,1,0,18,present,riskyDeck,787,2490
5h6n1t4pnhk,13457,04/04/2022@11:40:32,"Mozilla/5.0 (Macintosh; Intel Mac OS X 10_15_7) AppleWebKit/537.36 (KHTML, like Gecko) Chrome/99.0.4844.84 Safari/537.36",1440,900,1440,821,main,1186263,25,7,6,HE,Extreme,Harder than Reference,D,j,riskyDeck,safeDeck,28,0,14,left,1,0,60,present,riskyDeck,905,6130
5h6n1t4pnhk,13457,04/04/2022@11:40:32,"Mozilla/5.0 (Macintosh; Intel Mac OS X 10_15_7) AppleWebKit/537.36 (KHTML, like Gecko) Chrome/99.0.4844.84 Safari/537.36",1440,900,1440,821,main,1186263,26,7,6,EM,Moderate,Easier than Reference,D,k,safeDeck,riskyDeck,-28,0,-14,left,0,0,18,absent,safeDeck,1716,2870
