"subject","choice_rt_m","choice_rt_sd","sona_id","curTime","userAgent","screenWidth","screenHeight","windowWidth","windowHeight","phase","phase_run_time","trial","exp_runtime_mins","phase_runtime_mins","condition","magnitude","direction","choice_response_key","search_response_key","left_deck_id","right_deck_id","risky_deck_outcome_top","risky_deck_outcome_bottom","safe_deck_outcome","selected_deck_location","selectedRiskyDeck","error","n_stimuli","present_or_absent","chosenDeckId","choice_rt","search_rt","selected_deck_location_num","ssd"
"0kpbaqjh4rwi",1103.19078947368,659.645406787663,13519,"02/04/2022@19:15:27","Mozilla/5.0 (Windows NT 10.0; Win64; x64) AppleWebKit/537.36 (KHTML, like Gecko) Chrome/99.0.4844.82 Safari/537.36",1536,864,1536,714,"main",1431379,2,6,4,"HE","Extreme","Harder than Reference","D","k","safeDeck","riskyDeck",0,28,14,"left",0,1,46,"present","safeDeck",2131,3314,-1,1
"0kpbaqjh4rwi",1103.19078947368,659.645406787663,13519,"02/04/2022@19:15:27","Mozilla/5.0 (Windows NT 10.0; Win64; x64) AppleWebKit/537.36 (KHTML, like Gecko) Chrome/99.0.4844.82 Safari/537.36",1536,864,1536,714,"main",1431379,3,6,4,"HM","Moderate","Harder than Reference","D","j","safeDeck","riskyDeck",14,0,7,"left",0,0,39,"present","safeDeck",1606,5137,-1,1
"0kpbaqjh4rwi",1103.19078947368,659.645406787663,13519,"02/04/2022@19:15:27","Mozilla/5.0 (Windows NT 10.0; Win64; x64) AppleWebKit/537.36 (KHTML, like Gecko) Chrome/99.0.4844.82 Safari/537.36",1536,864,1536,714,"main",1431379,4,7,5,"EM","Moderate","Easier than Reference","F","j","riskyDeck","safeDeck",0,-28,-14,"right",0,0,18,"present","safeDeck",1670,3696,1,1
"0kpbaqjh4rwi",1103.19078947368,659.645406787663,13519,"02/04/2022@19:15:27","Mozilla/5.0 (Windows NT 10.0; Win64; x64) AppleWebKit/537.36 (KHTML, like Gecko) Chrome/99.0.4844.82 Safari/537.36",1536,864,1536,714,"main",1431379,5,7,5,"EM","Moderate","Easier than Reference","F","j","riskyDeck","safeDeck",-28,0,-14,"right",0,1,18,"absent","safeDeck",2080,4636,1,1
"0kpbaqjh4rwi",1103.19078947368,659.645406787663,13519,"02/04/2022@19:15:27","Mozilla/5.0 (Windows NT 10.0; Win64; x64) AppleWebKit/537.36 (KHTML, like Gecko) Chrome/99.0.4844.82 Safari/537.36",1536,864,1536,714,"main",1431379,7,7,5,"EE","Extreme","Easier than Reference","F","j","riskyDeck","safeDeck",0,-14,-7,"right",0,0,25,"present","safeDeck",1991,1462,1,1
"0kpbaqjh4rwi",1103.19078947368,659.645406787663,13519,"02/04/2022@19:15:27","Mozilla/5.0 (Windows NT 10.0; Win64; x64) AppleWebKit/537.36 (KHTML, like Gecko) Chrome/99.0.4844.82 Safari/537.36",1536,864,1536,714,"main",1431379,9,8,6,"HE","Extreme","Harder than Reference","F","k","riskyDeck","safeDeck",28,0,14,"right",0,0,46,"absent","safeDeck",1330,10487,1,1
"0kpbaqjh4rwi",1103.19078947368,659.645406787663,13519,"02/04/2022@19:15:27","Mozilla/5.0 (Windows NT 10.0; Win64; x64) AppleWebKit/537.36 (KHTML, like Gecko) Chrome/99.0.4844.82 Safari/537.36",1536,864,1536,714,"main",1431379,10,8,6,"EM","Moderate","Easier than Reference","D","j","safeDeck","riskyDeck",-28,0,-14,"left",0,0,18,"present","safeDeck",1080,1105,-1,1
"0kpbaqjh4rwi",1103.19078947368,659.645406787663,13519,"02/04/2022@19:15:27","Mozilla/5.0 (Windows NT 10.0; Win64; x64) AppleWebKit/537.36 (KHTML, like Gecko) Chrome/99.0.4844.82 Safari/537.36",1536,864,1536,714,"main",1431379,11,8,6,"HM","Moderate","Harder than Reference","D","j","safeDeck","riskyDeck",0,14,7,"left",0,0,39,"present","safeDeck",627,3812,-1,1
"0kpbaqjh4rwi",1103.19078947368,659.645406787663,13519,"02/04/2022@19:15:27","Mozilla/5.0 (Windows NT 10.0; Win64; x64) AppleWebKit/537.36 (KHTML, like Gecko) Chrome/99.0.4844.82 Safari/537.36",1536,864,1536,714,"main",1431379,12,8,6,"EE","Extreme","Easier than Reference","F","k","riskyDeck","safeDeck",-14,0,-7,"right",0,0,25,"absent","safeDeck",946,4218,1,1
"0kpbaqjh4rwi",1103.19078947368,659.645406787663,13519,"02/04/2022@19:15:27","Mozilla/5.0 (Windows NT 10.0; Win64; x64) AppleWebKit/537.36 (KHTML, like Gecko) Chrome/99.0.4844.82 Safari/537.36",1536,864,1536,714,"main",1431379,13,8,6,"HE","Extreme","Harder than Reference","D","j","safeDeck","riskyDeck",28,0,14,"left",0,0,46,"present","safeDeck",923,2690,-1,1
"0kpbaqjh4rwi",1103.19078947368,659.645406787663,13519,"02/04/2022@19:15:27","Mozilla/5.0 (Windows NT 10.0; Win64; x64) AppleWebKit/537.36 (KHTML, like Gecko) Chrome/99.0.4844.82 Safari/537.36",1536,864,1536,714,"main",1431379,14,8,6,"EE","Extreme","Easier than Reference","F","j","riskyDeck","safeDeck",0,-14,-7,"right",0,0,25,"present","safeDeck",1161,1293,1,1
"0kpbaqjh4rwi",1103.19078947368,659.645406787663,13519,"02/04/2022@19:15:27","Mozilla/5.0 (Windows NT 10.0; Win64; x64) AppleWebKit/537.36 (KHTML, like Gecko) Chrome/99.0.4844.82 Safari/537.36",1536,864,1536,714,"main",1431379,15,8,6,"HM","Moderate","Harder than Reference","D","k","safeDeck","riskyDeck",14,0,7,"left",0,0,39,"absent","safeDeck",572,5804,-1,1
"0kpbaqjh4rwi",1103.19078947368,659.645406787663,13519,"02/04/2022@19:15:27","Mozilla/5.0 (Windows NT 10.0; Win64; x64) AppleWebKit/537.36 (KHTML, like Gecko) Chrome/99.0.4844.82 Safari/537.36",1536,864,1536,714,"main",1431379,16,8,6,"EM","Moderate","Easier than Reference","D","k","safeDeck","riskyDeck",-28,0,-14,"left",0,0,18,"absent","safeDeck",965,3546,-1,1
"0kpbaqjh4rwi",1103.19078947368,659.645406787663,13519,"02/04/2022@19:15:27","Mozilla/5.0 (Windows NT 10.0; Win64; x64) AppleWebKit/537.36 (KHTML, like Gecko) Chrome/99.0.4844.82 Safari/537.36",1536,864,1536,714,"main",1431379,17,8,6,"HM","Moderate","Harder than Reference","F","k","riskyDeck","safeDeck",0,14,7,"right",0,0,39,"absent","safeDeck",1310,6813,1,1
"0kpbaqjh4rwi",1103.19078947368,659.645406787663,13519,"02/04/2022@19:15:27","Mozilla/5.0 (Windows NT 10.0; Win64; x64) AppleWebKit/537.36 (KHTML, like Gecko) Chrome/99.0.4844.82 Safari/537.36",1536,864,1536,714,"main",1431379,18,9,7,"HE","Extreme","Harder than Reference","D","k","safeDeck","riskyDeck",28,0,14,"left",0,0,46,"absent","safeDeck",1082,10905,-1,1
"0kpbaqjh4rwi",1103.19078947368,659.645406787663,13519,"02/04/2022@19:15:27","Mozilla/5.0 (Windows NT 10.0; Win64; x64) AppleWebKit/537.36 (KHTML, like Gecko) Chrome/99.0.4844.82 Safari/537.36",1536,864,1536,714,"main",1431379,19,9,7,"EE","Extreme","Easier than Reference","F","k","riskyDeck","safeDeck",-14,0,-7,"right",0,0,25,"absent","safeDeck",1100,4049,1,1
"0kpbaqjh4rwi",1103.19078947368,659.645406787663,13519,"02/04/2022@19:15:27","Mozilla/5.0 (Windows NT 10.0; Win64; x64) AppleWebKit/537.36 (KHTML, like Gecko) Chrome/99.0.4844.82 Safari/537.36",1536,864,1536,714,"main",1431379,20,9,7,"EM","Moderate","Easier than Reference","F","k","riskyDeck","safeDeck",-28,0,-14,"right",0,0,18,"absent","safeDeck",859,2801,1,1
"0kpbaqjh4rwi",1103.19078947368,659.645406787663,13519,"02/04/2022@19:15:27","Mozilla/5.0 (Windows NT 10.0; Win64; x64) AppleWebKit/537.36 (KHTML, like Gecko) Chrome/99.0.4844.82 Safari/537.36",1536,864,1536,714,"main",1431379,21,9,7,"EM","Moderate","Easier than Reference","F","k","safeDeck","riskyDeck",-28,0,-14,"right",1,0,4,"absent","riskyDeck",1696,1332,1,0
"0kpbaqjh4rwi",1103.19078947368,659.645406787663,13519,"02/04/2022@19:15:27","Mozilla/5.0 (Windows NT 10.0; Win64; x64) AppleWebKit/537.36 (KHTML, like Gecko) Chrome/99.0.4844.82 Safari/537.36",1536,864,1536,714,"main",1431379,22,9,7,"HE","Extreme","Harder than Reference","D","j","riskyDeck","safeDeck",0,28,14,"left",1,0,32,"present","riskyDeck",2343,1334,-1,0
"0kpbaqjh4rwi",1103.19078947368,659.645406787663,13519,"02/04/2022@19:15:27","Mozilla/5.0 (Windows NT 10.0; Win64; x64) AppleWebKit/537.36 (KHTML, like Gecko) Chrome/99.0.4844.82 Safari/537.36",1536,864,1536,714,"main",1431379,23,9,7,"HM","Moderate","Harder than Reference","D","j","safeDeck","riskyDeck",0,14,7,"left",0,0,39,"present","safeDeck",895,1838,-1,1
"0kpbaqjh4rwi",1103.19078947368,659.645406787663,13519,"02/04/2022@19:15:27","Mozilla/5.0 (Windows NT 10.0; Win64; x64) AppleWebKit/537.36 (KHTML, like Gecko) Chrome/99.0.4844.82 Safari/537.36",1536,864,1536,714,"main",1431379,24,9,7,"EE","Extreme","Easier than Reference","F","k","safeDeck","riskyDeck",-14,0,-7,"right",1,0,18,"absent","riskyDeck",1751,2663,1,0
"0kpbaqjh4rwi",1103.19078947368,659.645406787663,13519,"02/04/2022@19:15:27","Mozilla/5.0 (Windows NT 10.0; Win64; x64) AppleWebKit/537.36 (KHTML, like Gecko) Chrome/99.0.4844.82 Safari/537.36",1536,864,1536,714,"main",1431379,25,9,7,"EM","Moderate","Easier than Reference","D","k","riskyDeck","safeDeck",0,-28,-14,"left",1,0,32,"absent","riskyDeck",1845,3895,-1,0
"0kpbaqjh4rwi",1103.19078947368,659.645406787663,13519,"02/04/2022@19:15:27","Mozilla/5.0 (Windows NT 10.0; Win64; x64) AppleWebKit/537.36 (KHTML, like Gecko) Chrome/99.0.4844.82 Safari/537.36",1536,864,1536,714,"main",1431379,26,9,7,"HE","Extreme","Harder than Reference","F","k","riskyDeck","safeDeck",28,0,14,"right",0,0,46,"absent","safeDeck",911,5651,1,1
"0kpbaqjh4rwi",1103.19078947368,659.645406787663,13519,"02/04/2022@19:15:27","Mozilla/5.0 (Windows NT 10.0; Win64; x64) AppleWebKit/537.36 (KHTML, like Gecko) Chrome/99.0.4844.82 Safari/537.36",1536,864,1536,714,"main",1431379,27,10,8,"EE","Extreme","Easier than Reference","D","k","safeDeck","riskyDeck",-14,0,-7,"left",0,0,25,"absent","safeDeck",796,2807,-1,1
"0kpbaqjh4rwi",1103.19078947368,659.645406787663,13519,"02/04/2022@19:15:27","Mozilla/5.0 (Windows NT 10.0; Win64; x64) AppleWebKit/537.36 (KHTML, like Gecko) Chrome/99.0.4844.82 Safari/537.36",1536,864,1536,714,"main",1431379,28,10,8,"HM","Moderate","Harder than Reference","D","k","riskyDeck","safeDeck",0,14,7,"left",1,1,46,"present","riskyDeck",1386,2787,-1,0
"0kpbaqjh4rwi",1103.19078947368,659.645406787663,13519,"02/04/2022@19:15:27","Mozilla/5.0 (Windows NT 10.0; Win64; x64) AppleWebKit/537.36 (KHTML, like Gecko) Chrome/99.0.4844.82 Safari/537.36",1536,864,1536,714,"main",1431379,29,10,8,"HE","Extreme","Harder than Reference","D","k","safeDeck","riskyDeck",28,0,14,"left",0,0,46,"absent","safeDeck",1286,8402,-1,1
"0kpbaqjh4rwi",1103.19078947368,659.645406787663,13519,"02/04/2022@19:15:27","Mozilla/5.0 (Windows NT 10.0; Win64; x64) AppleWebKit/537.36 (KHTML, like Gecko) Chrome/99.0.4844.82 Safari/537.36",1536,864,1536,714,"main",1431379,30,10,8,"EE","Extreme","Easier than Reference","F","j","safeDeck","riskyDeck",0,-14,-7,"right",1,0,18,"present","riskyDeck",1062,1152,1,0
"0kpbaqjh4rwi",1103.19078947368,659.645406787663,13519,"02/04/2022@19:15:27","Mozilla/5.0 (Windows NT 10.0; Win64; x64) AppleWebKit/537.36 (KHTML, like Gecko) Chrome/99.0.4844.82 Safari/537.36",1536,864,1536,714,"main",1431379,31,10,8,"HM","Moderate","Harder than Reference","D","j","safeDeck","riskyDeck",0,14,7,"left",0,0,39,"present","safeDeck",1275,1012,-1,1
"0kpbaqjh4rwi",1103.19078947368,659.645406787663,13519,"02/04/2022@19:15:27","Mozilla/5.0 (Windows NT 10.0; Win64; x64) AppleWebKit/537.36 (KHTML, like Gecko) Chrome/99.0.4844.82 Safari/537.36",1536,864,1536,714,"main",1431379,32,10,8,"EM","Moderate","Easier than Reference","F","k","riskyDeck","safeDeck",0,-28,-14,"right",0,0,18,"absent","safeDeck",2260,1740,1,1
"0kpbaqjh4rwi",1103.19078947368,659.645406787663,13519,"02/04/2022@19:15:27","Mozilla/5.0 (Windows NT 10.0; Win64; x64) AppleWebKit/537.36 (KHTML, like Gecko) Chrome/99.0.4844.82 Safari/537.36",1536,864,1536,714,"main",1431379,33,10,8,"EE","Extreme","Easier than Reference","D","k","safeDeck","riskyDeck",0,-14,-7,"left",0,0,25,"absent","safeDeck",636,2443,-1,1
"0kpbaqjh4rwi",1103.19078947368,659.645406787663,13519,"02/04/2022@19:15:27","Mozilla/5.0 (Windows NT 10.0; Win64; x64) AppleWebKit/537.36 (KHTML, like Gecko) Chrome/99.0.4844.82 Safari/537.36",1536,864,1536,714,"main",1431379,34,10,8,"HE","Extreme","Harder than Reference","D","j","safeDeck","riskyDeck",28,0,14,"left",0,0,46,"present","safeDeck",1774,3084,-1,1
"0kpbaqjh4rwi",1103.19078947368,659.645406787663,13519,"02/04/2022@19:15:27","Mozilla/5.0 (Windows NT 10.0; Win64; x64) AppleWebKit/537.36 (KHTML, like Gecko) Chrome/99.0.4844.82 Safari/537.36",1536,864,1536,714,"main",1431379,35,10,8,"EM","Moderate","Easier than Reference","D","k","riskyDeck","safeDeck",0,-28,-14,"left",1,0,32,"absent","riskyDeck",1181,5218,-1,0
"0kpbaqjh4rwi",1103.19078947368,659.645406787663,13519,"02/04/2022@19:15:27","Mozilla/5.0 (Windows NT 10.0; Win64; x64) AppleWebKit/537.36 (KHTML, like Gecko) Chrome/99.0.4844.82 Safari/537.36",1536,864,1536,714,"main",1431379,36,11,9,"HM","Moderate","Harder than Reference","F","k","safeDeck","riskyDeck",0,14,7,"right",1,0,46,"absent","riskyDeck",1847,8799,1,0
"0kpbaqjh4rwi",1103.19078947368,659.645406787663,13519,"02/04/2022@19:15:27","Mozilla/5.0 (Windows NT 10.0; Win64; x64) AppleWebKit/537.36 (KHTML, like Gecko) Chrome/99.0.4844.82 Safari/537.36",1536,864,1536,714,"main",1431379,37,11,9,"EM","Moderate","Easier than Reference","D","j","riskyDeck","safeDeck",-28,0,-14,"left",1,0,32,"present","riskyDeck",679,804,-1,0
"0kpbaqjh4rwi",1103.19078947368,659.645406787663,13519,"02/04/2022@19:15:27","Mozilla/5.0 (Windows NT 10.0; Win64; x64) AppleWebKit/537.36 (KHTML, like Gecko) Chrome/99.0.4844.82 Safari/537.36",1536,864,1536,714,"main",1431379,38,11,9,"HE","Extreme","Harder than Reference","F","j","safeDeck","riskyDeck",0,28,14,"right",1,0,32,"present","riskyDeck",1077,2077,1,0
"0kpbaqjh4rwi",1103.19078947368,659.645406787663,13519,"02/04/2022@19:15:27","Mozilla/5.0 (Windows NT 10.0; Win64; x64) AppleWebKit/537.36 (KHTML, like Gecko) Chrome/99.0.4844.82 Safari/537.36",1536,864,1536,714,"main",1431379,40,12,10,"HM","Moderate","Harder than Reference","D","j","riskyDeck","safeDeck",14,0,7,"left",1,0,32,"present","riskyDeck",1212,678,-1,0
"0kpbaqjh4rwi",1103.19078947368,659.645406787663,13519,"02/04/2022@19:15:27","Mozilla/5.0 (Windows NT 10.0; Win64; x64) AppleWebKit/537.36 (KHTML, like Gecko) Chrome/99.0.4844.82 Safari/537.36",1536,864,1536,714,"main",1431379,41,13,11,"EE","Extreme","Easier than Reference","D","j","safeDeck","riskyDeck",-14,0,-7,"left",0,0,25,"present","safeDeck",378,1305,-1,1
"0kpbaqjh4rwi",1103.19078947368,659.645406787663,13519,"02/04/2022@19:15:27","Mozilla/5.0 (Windows NT 10.0; Win64; x64) AppleWebKit/537.36 (KHTML, like Gecko) Chrome/99.0.4844.82 Safari/537.36",1536,864,1536,714,"main",1431379,42,13,11,"HE","Extreme","Harder than Reference","F","j","safeDeck","riskyDeck",28,0,14,"right",1,0,60,"present","riskyDeck",1316,4862,1,0
"0kpbaqjh4rwi",1103.19078947368,659.645406787663,13519,"02/04/2022@19:15:27","Mozilla/5.0 (Windows NT 10.0; Win64; x64) AppleWebKit/537.36 (KHTML, like Gecko) Chrome/99.0.4844.82 Safari/537.36",1536,864,1536,714,"main",1431379,43,13,11,"EM","Moderate","Easier than Reference","D","j","riskyDeck","safeDeck",0,-28,-14,"left",1,0,32,"present","riskyDeck",822,785,-1,0
"0kpbaqjh4rwi",1103.19078947368,659.645406787663,13519,"02/04/2022@19:15:27","Mozilla/5.0 (Windows NT 10.0; Win64; x64) AppleWebKit/537.36 (KHTML, like Gecko) Chrome/99.0.4844.82 Safari/537.36",1536,864,1536,714,"main",1431379,44,13,11,"HM","Moderate","Harder than Reference","D","k","riskyDeck","safeDeck",14,0,7,"left",1,0,32,"absent","riskyDeck",1163,3034,-1,0
"0kpbaqjh4rwi",1103.19078947368,659.645406787663,13519,"02/04/2022@19:15:27","Mozilla/5.0 (Windows NT 10.0; Win64; x64) AppleWebKit/537.36 (KHTML, like Gecko) Chrome/99.0.4844.82 Safari/537.36",1536,864,1536,714,"main",1431379,45,13,11,"HE","Extreme","Harder than Reference","F","k","safeDeck","riskyDeck",28,0,14,"right",1,0,60,"absent","riskyDeck",961,4611,1,0
"0kpbaqjh4rwi",1103.19078947368,659.645406787663,13519,"02/04/2022@19:15:27","Mozilla/5.0 (Windows NT 10.0; Win64; x64) AppleWebKit/537.36 (KHTML, like Gecko) Chrome/99.0.4844.82 Safari/537.36",1536,864,1536,714,"main",1431379,46,13,11,"HM","Moderate","Harder than Reference","D","k","safeDeck","riskyDeck",0,14,7,"left",0,0,39,"absent","safeDeck",605,4141,-1,1
"0kpbaqjh4rwi",1103.19078947368,659.645406787663,13519,"02/04/2022@19:15:27","Mozilla/5.0 (Windows NT 10.0; Win64; x64) AppleWebKit/537.36 (KHTML, like Gecko) Chrome/99.0.4844.82 Safari/537.36",1536,864,1536,714,"main",1431379,47,13,11,"EE","Extreme","Easier than Reference","F","j","riskyDeck","safeDeck",0,-14,-7,"right",0,0,25,"present","safeDeck",723,2877,1,1
"0kpbaqjh4rwi",1103.19078947368,659.645406787663,13519,"02/04/2022@19:15:27","Mozilla/5.0 (Windows NT 10.0; Win64; x64) AppleWebKit/537.36 (KHTML, like Gecko) Chrome/99.0.4844.82 Safari/537.36",1536,864,1536,714,"main",1431379,48,13,11,"EM","Moderate","Easier than Reference","D","k","riskyDeck","safeDeck",-28,0,-14,"left",1,0,32,"absent","riskyDeck",834,3254,-1,0
"0kpbaqjh4rwi",1103.19078947368,659.645406787663,13519,"02/04/2022@19:15:27","Mozilla/5.0 (Windows NT 10.0; Win64; x64) AppleWebKit/537.36 (KHTML, like Gecko) Chrome/99.0.4844.82 Safari/537.36",1536,864,1536,714,"main",1431379,49,13,11,"HE","Extreme","Harder than Reference","D","k","safeDeck","riskyDeck",28,0,14,"left",0,0,46,"absent","safeDeck",1200,6339,-1,1
"0kpbaqjh4rwi",1103.19078947368,659.645406787663,13519,"02/04/2022@19:15:27","Mozilla/5.0 (Windows NT 10.0; Win64; x64) AppleWebKit/537.36 (KHTML, like Gecko) Chrome/99.0.4844.82 Safari/537.36",1536,864,1536,714,"main",1431379,50,13,11,"HM","Moderate","Harder than Reference","F","j","safeDeck","riskyDeck",14,0,7,"right",1,0,32,"present","riskyDeck",1267,1723,1,0
"0kpbaqjh4rwi",1103.19078947368,659.645406787663,13519,"02/04/2022@19:15:27","Mozilla/5.0 (Windows NT 10.0; Win64; x64) AppleWebKit/537.36 (KHTML, like Gecko) Chrome/99.0.4844.82 Safari/537.36",1536,864,1536,714,"main",1431379,51,14,12,"EM","Moderate","Easier than Reference","F","k","riskyDeck","safeDeck",-28,0,-14,"right",0,0,18,"absent","safeDeck",1591,2011,1,1
"0kpbaqjh4rwi",1103.19078947368,659.645406787663,13519,"02/04/2022@19:15:27","Mozilla/5.0 (Windows NT 10.0; Win64; x64) AppleWebKit/537.36 (KHTML, like Gecko) Chrome/99.0.4844.82 Safari/537.36",1536,864,1536,714,"main",1431379,52,14,12,"EE","Extreme","Easier than Reference","D","j","riskyDeck","safeDeck",-14,0,-7,"left",1,0,32,"present","riskyDeck",787,739,-1,0
"0kpbaqjh4rwi",1103.19078947368,659.645406787663,13519,"02/04/2022@19:15:27","Mozilla/5.0 (Windows NT 10.0; Win64; x64) AppleWebKit/537.36 (KHTML, like Gecko) Chrome/99.0.4844.82 Safari/537.36",1536,864,1536,714,"main",1431379,53,14,12,"HE","Extreme","Harder than Reference","D","j","riskyDeck","safeDeck",28,0,14,"left",1,0,32,"present","riskyDeck",830,1202,-1,0
"0kpbaqjh4rwi",1103.19078947368,659.645406787663,13519,"02/04/2022@19:15:27","Mozilla/5.0 (Windows NT 10.0; Win64; x64) AppleWebKit/537.36 (KHTML, like Gecko) Chrome/99.0.4844.82 Safari/537.36",1536,864,1536,714,"main",1431379,54,14,12,"EM","Moderate","Easier than Reference","D","k","safeDeck","riskyDeck",-28,0,-14,"left",0,0,18,"absent","safeDeck",598,1851,-1,1
"0kpbaqjh4rwi",1103.19078947368,659.645406787663,13519,"02/04/2022@19:15:27","Mozilla/5.0 (Windows NT 10.0; Win64; x64) AppleWebKit/537.36 (KHTML, like Gecko) Chrome/99.0.4844.82 Safari/537.36",1536,864,1536,714,"main",1431379,55,14,12,"EE","Extreme","Easier than Reference","D","k","riskyDeck","safeDeck",-14,0,-7,"left",1,0,32,"absent","riskyDeck",2140,3941,-1,0
"0kpbaqjh4rwi",1103.19078947368,659.645406787663,13519,"02/04/2022@19:15:27","Mozilla/5.0 (Windows NT 10.0; Win64; x64) AppleWebKit/537.36 (KHTML, like Gecko) Chrome/99.0.4844.82 Safari/537.36",1536,864,1536,714,"main",1431379,56,14,12,"HM","Moderate","Harder than Reference","D","k","safeDeck","riskyDeck",0,14,7,"left",0,0,39,"absent","safeDeck",1348,3449,-1,1
"0kpbaqjh4rwi",1103.19078947368,659.645406787663,13519,"02/04/2022@19:15:27","Mozilla/5.0 (Windows NT 10.0; Win64; x64) AppleWebKit/537.36 (KHTML, like Gecko) Chrome/99.0.4844.82 Safari/537.36",1536,864,1536,714,"main",1431379,57,14,12,"HE","Extreme","Harder than Reference","F","k","safeDeck","riskyDeck",0,28,14,"right",1,0,60,"absent","riskyDeck",1300,6642,1,0
"0kpbaqjh4rwi",1103.19078947368,659.645406787663,13519,"02/04/2022@19:15:27","Mozilla/5.0 (Windows NT 10.0; Win64; x64) AppleWebKit/537.36 (KHTML, like Gecko) Chrome/99.0.4844.82 Safari/537.36",1536,864,1536,714,"main",1431379,58,14,12,"HM","Moderate","Harder than Reference","D","k","riskyDeck","safeDeck",0,14,7,"left",1,0,46,"absent","riskyDeck",927,5361,-1,0
"0kpbaqjh4rwi",1103.19078947368,659.645406787663,13519,"02/04/2022@19:15:27","Mozilla/5.0 (Windows NT 10.0; Win64; x64) AppleWebKit/537.36 (KHTML, like Gecko) Chrome/99.0.4844.82 Safari/537.36",1536,864,1536,714,"main",1431379,59,14,12,"EM","Moderate","Easier than Reference","D","k","safeDeck","riskyDeck",0,-28,-14,"left",0,0,18,"absent","safeDeck",1014,1437,-1,1
"0kpbaqjh4rwi",1103.19078947368,659.645406787663,13519,"02/04/2022@19:15:27","Mozilla/5.0 (Windows NT 10.0; Win64; x64) AppleWebKit/537.36 (KHTML, like Gecko) Chrome/99.0.4844.82 Safari/537.36",1536,864,1536,714,"main",1431379,60,14,12,"EE","Extreme","Easier than Reference","D","k","riskyDeck","safeDeck",0,-14,-7,"left",1,0,18,"absent","riskyDeck",680,2176,-1,0
"0kpbaqjh4rwi",1103.19078947368,659.645406787663,13519,"02/04/2022@19:15:27","Mozilla/5.0 (Windows NT 10.0; Win64; x64) AppleWebKit/537.36 (KHTML, like Gecko) Chrome/99.0.4844.82 Safari/537.36",1536,864,1536,714,"main",1431379,61,15,13,"EE","Extreme","Easier than Reference","F","j","safeDeck","riskyDeck",0,-14,-7,"right",1,0,32,"present","riskyDeck",1529,2876,1,0
"0kpbaqjh4rwi",1103.19078947368,659.645406787663,13519,"02/04/2022@19:15:27","Mozilla/5.0 (Windows NT 10.0; Win64; x64) AppleWebKit/537.36 (KHTML, like Gecko) Chrome/99.0.4844.82 Safari/537.36",1536,864,1536,714,"main",1431379,63,15,13,"HE","Extreme","Harder than Reference","D","j","riskyDeck","safeDeck",28,0,14,"left",1,0,60,"present","riskyDeck",441,1784,-1,0
"0kpbaqjh4rwi",1103.19078947368,659.645406787663,13519,"02/04/2022@19:15:27","Mozilla/5.0 (Windows NT 10.0; Win64; x64) AppleWebKit/537.36 (KHTML, like Gecko) Chrome/99.0.4844.82 Safari/537.36",1536,864,1536,714,"main",1431379,64,15,13,"EM","Moderate","Easier than Reference","F","k","safeDeck","riskyDeck",-28,0,-14,"right",1,0,4,"absent","riskyDeck",2081,1003,1,0
"0kpbaqjh4rwi",1103.19078947368,659.645406787663,13519,"02/04/2022@19:15:27","Mozilla/5.0 (Windows NT 10.0; Win64; x64) AppleWebKit/537.36 (KHTML, like Gecko) Chrome/99.0.4844.82 Safari/537.36",1536,864,1536,714,"main",1431379,65,15,13,"HE","Extreme","Harder than Reference","D","j","safeDeck","riskyDeck",28,0,14,"left",0,0,46,"present","safeDeck",1397,3472,-1,1
"0kpbaqjh4rwi",1103.19078947368,659.645406787663,13519,"02/04/2022@19:15:27","Mozilla/5.0 (Windows NT 10.0; Win64; x64) AppleWebKit/537.36 (KHTML, like Gecko) Chrome/99.0.4844.82 Safari/537.36",1536,864,1536,714,"main",1431379,66,15,13,"HM","Moderate","Harder than Reference","F","j","riskyDeck","safeDeck",0,14,7,"right",0,0,39,"present","safeDeck",2126,1346,1,1
"0kpbaqjh4rwi",1103.19078947368,659.645406787663,13519,"02/04/2022@19:15:27","Mozilla/5.0 (Windows NT 10.0; Win64; x64) AppleWebKit/537.36 (KHTML, like Gecko) Chrome/99.0.4844.82 Safari/537.36",1536,864,1536,714,"main",1431379,67,15,13,"EM","Moderate","Easier than Reference","D","k","riskyDeck","safeDeck",0,-28,-14,"left",1,0,32,"absent","riskyDeck",1221,4367,-1,0
"0kpbaqjh4rwi",1103.19078947368,659.645406787663,13519,"02/04/2022@19:15:27","Mozilla/5.0 (Windows NT 10.0; Win64; x64) AppleWebKit/537.36 (KHTML, like Gecko) Chrome/99.0.4844.82 Safari/537.36",1536,864,1536,714,"main",1431379,68,15,13,"EE","Extreme","Easier than Reference","D","k","safeDeck","riskyDeck",0,-14,-7,"left",0,0,25,"absent","safeDeck",1410,3642,-1,1
"0kpbaqjh4rwi",1103.19078947368,659.645406787663,13519,"02/04/2022@19:15:27","Mozilla/5.0 (Windows NT 10.0; Win64; x64) AppleWebKit/537.36 (KHTML, like Gecko) Chrome/99.0.4844.82 Safari/537.36",1536,864,1536,714,"main",1431379,69,15,13,"EM","Moderate","Easier than Reference","F","k","riskyDeck","safeDeck",-28,0,-14,"right",0,1,18,"present","safeDeck",952,1682,1,1
"0kpbaqjh4rwi",1103.19078947368,659.645406787663,13519,"02/04/2022@19:15:27","Mozilla/5.0 (Windows NT 10.0; Win64; x64) AppleWebKit/537.36 (KHTML, like Gecko) Chrome/99.0.4844.82 Safari/537.36",1536,864,1536,714,"main",1431379,70,15,13,"HM","Moderate","Harder than Reference","D","j","riskyDeck","safeDeck",14,0,7,"left",1,0,46,"present","riskyDeck",793,3172,-1,0
"0kpbaqjh4rwi",1103.19078947368,659.645406787663,13519,"02/04/2022@19:15:27","Mozilla/5.0 (Windows NT 10.0; Win64; x64) AppleWebKit/537.36 (KHTML, like Gecko) Chrome/99.0.4844.82 Safari/537.36",1536,864,1536,714,"main",1431379,71,16,14,"HE","Extreme","Harder than Reference","D","k","safeDeck","riskyDeck",28,0,14,"left",0,0,46,"absent","safeDeck",548,5898,-1,1
"0kpbaqjh4rwi",1103.19078947368,659.645406787663,13519,"02/04/2022@19:15:27","Mozilla/5.0 (Windows NT 10.0; Win64; x64) AppleWebKit/537.36 (KHTML, like Gecko) Chrome/99.0.4844.82 Safari/537.36",1536,864,1536,714,"main",1431379,72,16,14,"EE","Extreme","Easier than Reference","F","j","safeDeck","riskyDeck",-14,0,-7,"right",1,0,32,"present","riskyDeck",1237,1813,1,0
"0kpbaqjh4rwi",1103.19078947368,659.645406787663,13519,"02/04/2022@19:15:27","Mozilla/5.0 (Windows NT 10.0; Win64; x64) AppleWebKit/537.36 (KHTML, like Gecko) Chrome/99.0.4844.82 Safari/537.36",1536,864,1536,714,"main",1431379,73,16,14,"EM","Moderate","Easier than Reference","D","j","riskyDeck","safeDeck",0,-28,-14,"left",1,0,4,"present","riskyDeck",740,614,-1,0
"0kpbaqjh4rwi",1103.19078947368,659.645406787663,13519,"02/04/2022@19:15:27","Mozilla/5.0 (Windows NT 10.0; Win64; x64) AppleWebKit/537.36 (KHTML, like Gecko) Chrome/99.0.4844.82 Safari/537.36",1536,864,1536,714,"main",1431379,74,16,14,"HM","Moderate","Harder than Reference","D","j","safeDeck","riskyDeck",0,14,7,"left",0,0,39,"present","safeDeck",1133,1809,-1,1
"0kpbaqjh4rwi",1103.19078947368,659.645406787663,13519,"02/04/2022@19:15:27","Mozilla/5.0 (Windows NT 10.0; Win64; x64) AppleWebKit/537.36 (KHTML, like Gecko) Chrome/99.0.4844.82 Safari/537.36",1536,864,1536,714,"main",1431379,75,16,14,"EE","Extreme","Easier than Reference","D","k","safeDeck","riskyDeck",0,-14,-7,"left",0,0,25,"absent","safeDeck",754,1900,-1,1
"0kpbaqjh4rwi",1103.19078947368,659.645406787663,13519,"02/04/2022@19:15:27","Mozilla/5.0 (Windows NT 10.0; Win64; x64) AppleWebKit/537.36 (KHTML, like Gecko) Chrome/99.0.4844.82 Safari/537.36",1536,864,1536,714,"main",1431379,76,16,14,"HE","Extreme","Harder than Reference","D","k","safeDeck","riskyDeck",0,28,14,"left",0,0,46,"absent","safeDeck",1144,3090,-1,1
"0kpbaqjh4rwi",1103.19078947368,659.645406787663,13519,"02/04/2022@19:15:27","Mozilla/5.0 (Windows NT 10.0; Win64; x64) AppleWebKit/537.36 (KHTML, like Gecko) Chrome/99.0.4844.82 Safari/537.36",1536,864,1536,714,"main",1431379,78,18,16,"EM","Moderate","Easier than Reference","D","k","safeDeck","riskyDeck",-28,0,-14,"left",0,0,18,"absent","safeDeck",525,1580,-1,1
"0kpbaqjh4rwi",1103.19078947368,659.645406787663,13519,"02/04/2022@19:15:27","Mozilla/5.0 (Windows NT 10.0; Win64; x64) AppleWebKit/537.36 (KHTML, like Gecko) Chrome/99.0.4844.82 Safari/537.36",1536,864,1536,714,"main",1431379,79,18,16,"HE","Extreme","Harder than Reference","F","k","safeDeck","riskyDeck",28,0,14,"right",1,0,60,"absent","riskyDeck",1188,4974,1,0
"0kpbaqjh4rwi",1103.19078947368,659.645406787663,13519,"02/04/2022@19:15:27","Mozilla/5.0 (Windows NT 10.0; Win64; x64) AppleWebKit/537.36 (KHTML, like Gecko) Chrome/99.0.4844.82 Safari/537.36",1536,864,1536,714,"main",1431379,80,18,16,"HM","Moderate","Harder than Reference","D","j","riskyDeck","safeDeck",0,14,7,"left",1,0,32,"present","riskyDeck",780,627,-1,0
"0kpbaqjh4rwi",1103.19078947368,659.645406787663,13519,"02/04/2022@19:15:27","Mozilla/5.0 (Windows NT 10.0; Win64; x64) AppleWebKit/537.36 (KHTML, like Gecko) Chrome/99.0.4844.82 Safari/537.36",1536,864,1536,714,"main",1431379,81,18,16,"HE","Extreme","Harder than Reference","F","j","safeDeck","riskyDeck",28,0,14,"right",1,0,32,"present","riskyDeck",1494,972,1,0
"0kpbaqjh4rwi",1103.19078947368,659.645406787663,13519,"02/04/2022@19:15:27","Mozilla/5.0 (Windows NT 10.0; Win64; x64) AppleWebKit/537.36 (KHTML, like Gecko) Chrome/99.0.4844.82 Safari/537.36",1536,864,1536,714,"main",1431379,82,18,16,"HM","Moderate","Harder than Reference","D","k","riskyDeck","safeDeck",0,14,7,"left",1,0,46,"absent","riskyDeck",849,2819,-1,0
"0kpbaqjh4rwi",1103.19078947368,659.645406787663,13519,"02/04/2022@19:15:27","Mozilla/5.0 (Windows NT 10.0; Win64; x64) AppleWebKit/537.36 (KHTML, like Gecko) Chrome/99.0.4844.82 Safari/537.36",1536,864,1536,714,"main",1431379,83,18,16,"EE","Extreme","Easier than Reference","F","k","safeDeck","riskyDeck",-14,0,-7,"right",1,0,32,"absent","riskyDeck",717,3640,1,0
"0kpbaqjh4rwi",1103.19078947368,659.645406787663,13519,"02/04/2022@19:15:27","Mozilla/5.0 (Windows NT 10.0; Win64; x64) AppleWebKit/537.36 (KHTML, like Gecko) Chrome/99.0.4844.82 Safari/537.36",1536,864,1536,714,"main",1431379,85,18,16,"HE","Extreme","Harder than Reference","D","k","riskyDeck","safeDeck",0,28,14,"left",1,0,60,"absent","riskyDeck",993,3788,-1,0
"0kpbaqjh4rwi",1103.19078947368,659.645406787663,13519,"02/04/2022@19:15:27","Mozilla/5.0 (Windows NT 10.0; Win64; x64) AppleWebKit/537.36 (KHTML, like Gecko) Chrome/99.0.4844.82 Safari/537.36",1536,864,1536,714,"main",1431379,86,19,17,"EE","Extreme","Easier than Reference","F","k","safeDeck","riskyDeck",-14,0,-7,"right",1,0,18,"absent","riskyDeck",882,3157,1,0
"0kpbaqjh4rwi",1103.19078947368,659.645406787663,13519,"02/04/2022@19:15:27","Mozilla/5.0 (Windows NT 10.0; Win64; x64) AppleWebKit/537.36 (KHTML, like Gecko) Chrome/99.0.4844.82 Safari/537.36",1536,864,1536,714,"main",1431379,87,19,17,"HM","Moderate","Harder than Reference","D","k","riskyDeck","safeDeck",0,14,7,"left",1,0,46,"absent","riskyDeck",981,2241,-1,0
"0kpbaqjh4rwi",1103.19078947368,659.645406787663,13519,"02/04/2022@19:15:27","Mozilla/5.0 (Windows NT 10.0; Win64; x64) AppleWebKit/537.36 (KHTML, like Gecko) Chrome/99.0.4844.82 Safari/537.36",1536,864,1536,714,"main",1431379,88,19,17,"EM","Moderate","Easier than Reference","F","j","riskyDeck","safeDeck",-28,0,-14,"right",0,0,18,"present","safeDeck",693,1203,1,1
"0kpbaqjh4rwi",1103.19078947368,659.645406787663,13519,"02/04/2022@19:15:27","Mozilla/5.0 (Windows NT 10.0; Win64; x64) AppleWebKit/537.36 (KHTML, like Gecko) Chrome/99.0.4844.82 Safari/537.36",1536,864,1536,714,"main",1431379,89,19,17,"EM","Moderate","Easier than Reference","D","k","riskyDeck","safeDeck",0,-28,-14,"left",1,0,4,"absent","riskyDeck",741,674,-1,0
"0kpbaqjh4rwi",1103.19078947368,659.645406787663,13519,"02/04/2022@19:15:27","Mozilla/5.0 (Windows NT 10.0; Win64; x64) AppleWebKit/537.36 (KHTML, like Gecko) Chrome/99.0.4844.82 Safari/537.36",1536,864,1536,714,"main",1431379,90,19,17,"EE","Extreme","Easier than Reference","F","k","safeDeck","riskyDeck",0,-14,-7,"right",1,0,32,"absent","riskyDeck",911,3099,1,0
"0kpbaqjh4rwi",1103.19078947368,659.645406787663,13519,"02/04/2022@19:15:27","Mozilla/5.0 (Windows NT 10.0; Win64; x64) AppleWebKit/537.36 (KHTML, like Gecko) Chrome/99.0.4844.82 Safari/537.36",1536,864,1536,714,"main",1431379,91,19,17,"HM","Moderate","Harder than Reference","F","j","riskyDeck","safeDeck",14,0,7,"right",0,0,39,"present","safeDeck",2179,1778,1,1
"0kpbaqjh4rwi",1103.19078947368,659.645406787663,13519,"02/04/2022@19:15:27","Mozilla/5.0 (Windows NT 10.0; Win64; x64) AppleWebKit/537.36 (KHTML, like Gecko) Chrome/99.0.4844.82 Safari/537.36",1536,864,1536,714,"main",1431379,92,19,17,"HE","Extreme","Harder than Reference","D","k","riskyDeck","safeDeck",28,0,14,"left",1,0,60,"absent","riskyDeck",1369,3078,-1,0
"0kpbaqjh4rwi",1103.19078947368,659.645406787663,13519,"02/04/2022@19:15:27","Mozilla/5.0 (Windows NT 10.0; Win64; x64) AppleWebKit/537.36 (KHTML, like Gecko) Chrome/99.0.4844.82 Safari/537.36",1536,864,1536,714,"main",1431379,93,19,17,"EM","Moderate","Easier than Reference","F","k","safeDeck","riskyDeck",-28,0,-14,"right",1,0,4,"absent","riskyDeck",671,581,1,0
"0kpbaqjh4rwi",1103.19078947368,659.645406787663,13519,"02/04/2022@19:15:27","Mozilla/5.0 (Windows NT 10.0; Win64; x64) AppleWebKit/537.36 (KHTML, like Gecko) Chrome/99.0.4844.82 Safari/537.36",1536,864,1536,714,"main",1431379,94,19,17,"EE","Extreme","Easier than Reference","D","k","riskyDeck","safeDeck",0,-14,-7,"left",1,0,32,"absent","riskyDeck",516,2534,-1,0
"0kpbaqjh4rwi",1103.19078947368,659.645406787663,13519,"02/04/2022@19:15:27","Mozilla/5.0 (Windows NT 10.0; Win64; x64) AppleWebKit/537.36 (KHTML, like Gecko) Chrome/99.0.4844.82 Safari/537.36",1536,864,1536,714,"main",1431379,95,19,17,"HM","Moderate","Harder than Reference","F","j","riskyDeck","safeDeck",14,0,7,"right",0,0,39,"present","safeDeck",460,1045,1,1
"0kpbaqjh4rwi",1103.19078947368,659.645406787663,13519,"02/04/2022@19:15:27","Mozilla/5.0 (Windows NT 10.0; Win64; x64) AppleWebKit/537.36 (KHTML, like Gecko) Chrome/99.0.4844.82 Safari/537.36",1536,864,1536,714,"main",1431379,96,19,17,"HE","Extreme","Harder than Reference","D","k","safeDeck","riskyDeck",28,0,14,"left",0,0,46,"absent","safeDeck",689,3399,-1,1
"0kpbaqjh4rwi",1103.19078947368,659.645406787663,13519,"02/04/2022@19:15:27","Mozilla/5.0 (Windows NT 10.0; Win64; x64) AppleWebKit/537.36 (KHTML, like Gecko) Chrome/99.0.4844.82 Safari/537.36",1536,864,1536,714,"main",1431379,97,19,17,"HE","Extreme","Harder than Reference","D","j","safeDeck","riskyDeck",0,28,14,"left",0,0,46,"present","safeDeck",977,1135,-1,1
"0kpbaqjh4rwi",1103.19078947368,659.645406787663,13519,"02/04/2022@19:15:27","Mozilla/5.0 (Windows NT 10.0; Win64; x64) AppleWebKit/537.36 (KHTML, like Gecko) Chrome/99.0.4844.82 Safari/537.36",1536,864,1536,714,"main",1431379,98,19,17,"EE","Extreme","Easier than Reference","D","j","riskyDeck","safeDeck",-14,0,-7,"left",1,0,18,"present","riskyDeck",497,1164,-1,0
"0kpbaqjh4rwi",1103.19078947368,659.645406787663,13519,"02/04/2022@19:15:27","Mozilla/5.0 (Windows NT 10.0; Win64; x64) AppleWebKit/537.36 (KHTML, like Gecko) Chrome/99.0.4844.82 Safari/537.36",1536,864,1536,714,"main",1431379,99,20,18,"EM","Moderate","Easier than Reference","D","j","safeDeck","riskyDeck",-28,0,-14,"left",0,0,18,"present","safeDeck",676,586,-1,1
"0kpbaqjh4rwi",1103.19078947368,659.645406787663,13519,"02/04/2022@19:15:27","Mozilla/5.0 (Windows NT 10.0; Win64; x64) AppleWebKit/537.36 (KHTML, like Gecko) Chrome/99.0.4844.82 Safari/537.36",1536,864,1536,714,"main",1431379,100,20,18,"HM","Moderate","Harder than Reference","F","j","riskyDeck","safeDeck",0,14,7,"right",0,0,39,"present","safeDeck",889,2137,1,1
"0kpbaqjh4rwi",1103.19078947368,659.645406787663,13519,"02/04/2022@19:15:27","Mozilla/5.0 (Windows NT 10.0; Win64; x64) AppleWebKit/537.36 (KHTML, like Gecko) Chrome/99.0.4844.82 Safari/537.36",1536,864,1536,714,"main",1431379,101,20,18,"HM","Moderate","Harder than Reference","D","j","safeDeck","riskyDeck",0,14,7,"left",0,0,39,"present","safeDeck",460,984,-1,1
"0kpbaqjh4rwi",1103.19078947368,659.645406787663,13519,"02/04/2022@19:15:27","Mozilla/5.0 (Windows NT 10.0; Win64; x64) AppleWebKit/537.36 (KHTML, like Gecko) Chrome/99.0.4844.82 Safari/537.36",1536,864,1536,714,"main",1431379,102,20,18,"EM","Moderate","Easier than Reference","D","k","safeDeck","riskyDeck",0,-28,-14,"left",0,0,18,"absent","safeDeck",574,2217,-1,1
"0kpbaqjh4rwi",1103.19078947368,659.645406787663,13519,"02/04/2022@19:15:27","Mozilla/5.0 (Windows NT 10.0; Win64; x64) AppleWebKit/537.36 (KHTML, like Gecko) Chrome/99.0.4844.82 Safari/537.36",1536,864,1536,714,"main",1431379,103,20,18,"EE","Extreme","Easier than Reference","F","k","safeDeck","riskyDeck",-14,0,-7,"right",1,0,18,"absent","riskyDeck",843,2753,1,0
"0kpbaqjh4rwi",1103.19078947368,659.645406787663,13519,"02/04/2022@19:15:27","Mozilla/5.0 (Windows NT 10.0; Win64; x64) AppleWebKit/537.36 (KHTML, like Gecko) Chrome/99.0.4844.82 Safari/537.36",1536,864,1536,714,"main",1431379,104,20,18,"HE","Extreme","Harder than Reference","D","j","safeDeck","riskyDeck",0,28,14,"left",0,0,46,"present","safeDeck",841,1911,-1,1
"0kpbaqjh4rwi",1103.19078947368,659.645406787663,13519,"02/04/2022@19:15:27","Mozilla/5.0 (Windows NT 10.0; Win64; x64) AppleWebKit/537.36 (KHTML, like Gecko) Chrome/99.0.4844.82 Safari/537.36",1536,864,1536,714,"main",1431379,105,20,18,"HE","Extreme","Harder than Reference","D","k","safeDeck","riskyDeck",28,0,14,"left",0,0,46,"absent","safeDeck",640,3245,-1,1
"0kpbaqjh4rwi",1103.19078947368,659.645406787663,13519,"02/04/2022@19:15:27","Mozilla/5.0 (Windows NT 10.0; Win64; x64) AppleWebKit/537.36 (KHTML, like Gecko) Chrome/99.0.4844.82 Safari/537.36",1536,864,1536,714,"main",1431379,106,20,18,"EE","Extreme","Easier than Reference","D","j","safeDeck","riskyDeck",0,-14,-7,"left",0,0,25,"present","safeDeck",500,1056,-1,1
"0kpbaqjh4rwi",1103.19078947368,659.645406787663,13519,"02/04/2022@19:15:27","Mozilla/5.0 (Windows NT 10.0; Win64; x64) AppleWebKit/537.36 (KHTML, like Gecko) Chrome/99.0.4844.82 Safari/537.36",1536,864,1536,714,"main",1431379,107,20,18,"HM","Moderate","Harder than Reference","D","j","riskyDeck","safeDeck",14,0,7,"left",1,0,32,"present","riskyDeck",701,1921,-1,0
"0kpbaqjh4rwi",1103.19078947368,659.645406787663,13519,"02/04/2022@19:15:27","Mozilla/5.0 (Windows NT 10.0; Win64; x64) AppleWebKit/537.36 (KHTML, like Gecko) Chrome/99.0.4844.82 Safari/537.36",1536,864,1536,714,"main",1431379,108,20,18,"EM","Moderate","Easier than Reference","D","k","riskyDeck","safeDeck",-28,0,-14,"left",1,0,4,"absent","riskyDeck",960,564,-1,0
"0kpbaqjh4rwi",1103.19078947368,659.645406787663,13519,"02/04/2022@19:15:27","Mozilla/5.0 (Windows NT 10.0; Win64; x64) AppleWebKit/537.36 (KHTML, like Gecko) Chrome/99.0.4844.82 Safari/537.36",1536,864,1536,714,"main",1431379,109,20,18,"HE","Extreme","Harder than Reference","D","j","safeDeck","riskyDeck",0,28,14,"left",0,0,46,"present","safeDeck",535,1425,-1,1
"0kpbaqjh4rwi",1103.19078947368,659.645406787663,13519,"02/04/2022@19:15:27","Mozilla/5.0 (Windows NT 10.0; Win64; x64) AppleWebKit/537.36 (KHTML, like Gecko) Chrome/99.0.4844.82 Safari/537.36",1536,864,1536,714,"main",1431379,110,20,18,"EE","Extreme","Easier than Reference","D","j","riskyDeck","safeDeck",0,-14,-7,"left",1,0,32,"present","riskyDeck",611,2485,-1,0
"0kpbaqjh4rwi",1103.19078947368,659.645406787663,13519,"02/04/2022@19:15:27","Mozilla/5.0 (Windows NT 10.0; Win64; x64) AppleWebKit/537.36 (KHTML, like Gecko) Chrome/99.0.4844.82 Safari/537.36",1536,864,1536,714,"main",1431379,111,20,18,"HM","Moderate","Harder than Reference","F","j","safeDeck","riskyDeck",14,0,7,"right",1,0,32,"present","riskyDeck",1411,1241,1,0
"0kpbaqjh4rwi",1103.19078947368,659.645406787663,13519,"02/04/2022@19:15:27","Mozilla/5.0 (Windows NT 10.0; Win64; x64) AppleWebKit/537.36 (KHTML, like Gecko) Chrome/99.0.4844.82 Safari/537.36",1536,864,1536,714,"main",1431379,112,21,19,"EM","Moderate","Easier than Reference","D","j","riskyDeck","safeDeck",-28,0,-14,"left",1,0,4,"present","riskyDeck",1252,729,-1,0
"0kpbaqjh4rwi",1103.19078947368,659.645406787663,13519,"02/04/2022@19:15:27","Mozilla/5.0 (Windows NT 10.0; Win64; x64) AppleWebKit/537.36 (KHTML, like Gecko) Chrome/99.0.4844.82 Safari/537.36",1536,864,1536,714,"main",1431379,113,21,19,"HE","Extreme","Harder than Reference","F","j","safeDeck","riskyDeck",0,28,14,"right",1,0,60,"present","riskyDeck",1303,3700,1,0
"0kpbaqjh4rwi",1103.19078947368,659.645406787663,13519,"02/04/2022@19:15:27","Mozilla/5.0 (Windows NT 10.0; Win64; x64) AppleWebKit/537.36 (KHTML, like Gecko) Chrome/99.0.4844.82 Safari/537.36",1536,864,1536,714,"main",1431379,114,21,19,"EE","Extreme","Easier than Reference","D","j","safeDeck","riskyDeck",-14,0,-7,"left",0,0,25,"present","safeDeck",488,1078,-1,1
"0kpbaqjh4rwi",1103.19078947368,659.645406787663,13519,"02/04/2022@19:15:27","Mozilla/5.0 (Windows NT 10.0; Win64; x64) AppleWebKit/537.36 (KHTML, like Gecko) Chrome/99.0.4844.82 Safari/537.36",1536,864,1536,714,"main",1431379,116,23,21,"EM","Moderate","Easier than Reference","D","j","safeDeck","riskyDeck",-28,0,-14,"left",0,0,18,"present","safeDeck",436,910,-1,1
"0kpbaqjh4rwi",1103.19078947368,659.645406787663,13519,"02/04/2022@19:15:27","Mozilla/5.0 (Windows NT 10.0; Win64; x64) AppleWebKit/537.36 (KHTML, like Gecko) Chrome/99.0.4844.82 Safari/537.36",1536,864,1536,714,"main",1431379,117,23,21,"HE","Extreme","Harder than Reference","D","j","safeDeck","riskyDeck",28,0,14,"left",0,0,46,"present","safeDeck",786,749,-1,1
"0kpbaqjh4rwi",1103.19078947368,659.645406787663,13519,"02/04/2022@19:15:27","Mozilla/5.0 (Windows NT 10.0; Win64; x64) AppleWebKit/537.36 (KHTML, like Gecko) Chrome/99.0.4844.82 Safari/537.36",1536,864,1536,714,"main",1431379,118,23,21,"EE","Extreme","Easier than Reference","D","j","riskyDeck","safeDeck",-14,0,-7,"left",1,0,18,"present","riskyDeck",456,1612,-1,0
"0kpbaqjh4rwi",1103.19078947368,659.645406787663,13519,"02/04/2022@19:15:27","Mozilla/5.0 (Windows NT 10.0; Win64; x64) AppleWebKit/537.36 (KHTML, like Gecko) Chrome/99.0.4844.82 Safari/537.36",1536,864,1536,714,"main",1431379,119,23,21,"EM","Moderate","Easier than Reference","D","j","safeDeck","riskyDeck",0,-28,-14,"left",0,1,18,"absent","safeDeck",623,617,-1,1
"0kpbaqjh4rwi",1103.19078947368,659.645406787663,13519,"02/04/2022@19:15:27","Mozilla/5.0 (Windows NT 10.0; Win64; x64) AppleWebKit/537.36 (KHTML, like Gecko) Chrome/99.0.4844.82 Safari/537.36",1536,864,1536,714,"main",1431379,120,23,21,"HM","Moderate","Harder than Reference","D","j","safeDeck","riskyDeck",0,14,7,"left",0,0,39,"present","safeDeck",1089,2819,-1,1
"0kpbaqjh4rwi",1103.19078947368,659.645406787663,13519,"02/04/2022@19:15:27","Mozilla/5.0 (Windows NT 10.0; Win64; x64) AppleWebKit/537.36 (KHTML, like Gecko) Chrome/99.0.4844.82 Safari/537.36",1536,864,1536,714,"main",1431379,121,23,21,"HE","Extreme","Harder than Reference","D","k","safeDeck","riskyDeck",28,0,14,"left",0,0,46,"absent","safeDeck",652,3330,-1,1
"0kpbaqjh4rwi",1103.19078947368,659.645406787663,13519,"02/04/2022@19:15:27","Mozilla/5.0 (Windows NT 10.0; Win64; x64) AppleWebKit/537.36 (KHTML, like Gecko) Chrome/99.0.4844.82 Safari/537.36",1536,864,1536,714,"main",1431379,122,23,21,"EE","Extreme","Easier than Reference","D","k","riskyDeck","safeDeck",0,-14,-7,"left",1,0,18,"absent","riskyDeck",766,2165,-1,0
"0kpbaqjh4rwi",1103.19078947368,659.645406787663,13519,"02/04/2022@19:15:27","Mozilla/5.0 (Windows NT 10.0; Win64; x64) AppleWebKit/537.36 (KHTML, like Gecko) Chrome/99.0.4844.82 Safari/537.36",1536,864,1536,714,"main",1431379,123,23,21,"HM","Moderate","Harder than Reference","D","j","riskyDeck","safeDeck",0,14,7,"left",1,0,32,"present","riskyDeck",689,1643,-1,0
"0kpbaqjh4rwi",1103.19078947368,659.645406787663,13519,"02/04/2022@19:15:27","Mozilla/5.0 (Windows NT 10.0; Win64; x64) AppleWebKit/537.36 (KHTML, like Gecko) Chrome/99.0.4844.82 Safari/537.36",1536,864,1536,714,"main",1431379,124,24,22,"EM","Moderate","Easier than Reference","D","k","safeDeck","riskyDeck",0,-28,-14,"left",0,0,18,"absent","safeDeck",490,2159,-1,1
"0kpbaqjh4rwi",1103.19078947368,659.645406787663,13519,"02/04/2022@19:15:27","Mozilla/5.0 (Windows NT 10.0; Win64; x64) AppleWebKit/537.36 (KHTML, like Gecko) Chrome/99.0.4844.82 Safari/537.36",1536,864,1536,714,"main",1431379,125,24,22,"HM","Moderate","Harder than Reference","F","k","riskyDeck","safeDeck",0,14,7,"right",0,0,39,"absent","safeDeck",692,2526,1,1
"0kpbaqjh4rwi",1103.19078947368,659.645406787663,13519,"02/04/2022@19:15:27","Mozilla/5.0 (Windows NT 10.0; Win64; x64) AppleWebKit/537.36 (KHTML, like Gecko) Chrome/99.0.4844.82 Safari/537.36",1536,864,1536,714,"main",1431379,126,24,22,"HE","Extreme","Harder than Reference","D","k","safeDeck","riskyDeck",0,28,14,"left",0,1,46,"present","safeDeck",440,1478,-1,1
"0kpbaqjh4rwi",1103.19078947368,659.645406787663,13519,"02/04/2022@19:15:27","Mozilla/5.0 (Windows NT 10.0; Win64; x64) AppleWebKit/537.36 (KHTML, like Gecko) Chrome/99.0.4844.82 Safari/537.36",1536,864,1536,714,"main",1431379,127,24,22,"EE","Extreme","Easier than Reference","D","k","riskyDeck","safeDeck",-14,0,-7,"left",1,0,32,"absent","riskyDeck",380,2932,-1,0
"0kpbaqjh4rwi",1103.19078947368,659.645406787663,13519,"02/04/2022@19:15:27","Mozilla/5.0 (Windows NT 10.0; Win64; x64) AppleWebKit/537.36 (KHTML, like Gecko) Chrome/99.0.4844.82 Safari/537.36",1536,864,1536,714,"main",1431379,128,24,22,"EM","Moderate","Easier than Reference","D","k","riskyDeck","safeDeck",-28,0,-14,"left",1,0,4,"absent","riskyDeck",1022,1488,-1,0
"0kpbaqjh4rwi",1103.19078947368,659.645406787663,13519,"02/04/2022@19:15:27","Mozilla/5.0 (Windows NT 10.0; Win64; x64) AppleWebKit/537.36 (KHTML, like Gecko) Chrome/99.0.4844.82 Safari/537.36",1536,864,1536,714,"main",1431379,129,24,22,"EM","Moderate","Easier than Reference","F","k","safeDeck","riskyDeck",-28,0,-14,"right",1,0,32,"absent","riskyDeck",857,2528,1,0
"0kpbaqjh4rwi",1103.19078947368,659.645406787663,13519,"02/04/2022@19:15:27","Mozilla/5.0 (Windows NT 10.0; Win64; x64) AppleWebKit/537.36 (KHTML, like Gecko) Chrome/99.0.4844.82 Safari/537.36",1536,864,1536,714,"main",1431379,130,24,22,"HE","Extreme","Harder than Reference","D","k","riskyDeck","safeDeck",28,0,14,"left",1,0,32,"absent","riskyDeck",393,2518,-1,0
"0kpbaqjh4rwi",1103.19078947368,659.645406787663,13519,"02/04/2022@19:15:27","Mozilla/5.0 (Windows NT 10.0; Win64; x64) AppleWebKit/537.36 (KHTML, like Gecko) Chrome/99.0.4844.82 Safari/537.36",1536,864,1536,714,"main",1431379,131,24,22,"HM","Moderate","Harder than Reference","D","k","safeDeck","riskyDeck",0,14,7,"left",0,0,39,"absent","safeDeck",1271,1614,-1,1
"0kpbaqjh4rwi",1103.19078947368,659.645406787663,13519,"02/04/2022@19:15:27","Mozilla/5.0 (Windows NT 10.0; Win64; x64) AppleWebKit/537.36 (KHTML, like Gecko) Chrome/99.0.4844.82 Safari/537.36",1536,864,1536,714,"main",1431379,132,24,22,"EE","Extreme","Easier than Reference","D","j","riskyDeck","safeDeck",-14,0,-7,"left",1,0,18,"present","riskyDeck",674,1289,-1,0
"0kpbaqjh4rwi",1103.19078947368,659.645406787663,13519,"02/04/2022@19:15:27","Mozilla/5.0 (Windows NT 10.0; Win64; x64) AppleWebKit/537.36 (KHTML, like Gecko) Chrome/99.0.4844.82 Safari/537.36",1536,864,1536,714,"main",1431379,133,24,22,"EE","Extreme","Easier than Reference","D","k","riskyDeck","safeDeck",0,-14,-7,"left",1,0,32,"absent","riskyDeck",632,1945,-1,0
"0kpbaqjh4rwi",1103.19078947368,659.645406787663,13519,"02/04/2022@19:15:27","Mozilla/5.0 (Windows NT 10.0; Win64; x64) AppleWebKit/537.36 (KHTML, like Gecko) Chrome/99.0.4844.82 Safari/537.36",1536,864,1536,714,"main",1431379,134,24,22,"HE","Extreme","Harder than Reference","F","j","safeDeck","riskyDeck",0,28,14,"right",1,0,32,"present","riskyDeck",778,1663,1,0
"0kpbaqjh4rwi",1103.19078947368,659.645406787663,13519,"02/04/2022@19:15:27","Mozilla/5.0 (Windows NT 10.0; Win64; x64) AppleWebKit/537.36 (KHTML, like Gecko) Chrome/99.0.4844.82 Safari/537.36",1536,864,1536,714,"main",1431379,135,24,22,"HM","Moderate","Harder than Reference","D","j","safeDeck","riskyDeck",14,0,7,"left",0,0,39,"present","safeDeck",1283,1483,-1,1
"0kpbaqjh4rwi",1103.19078947368,659.645406787663,13519,"02/04/2022@19:15:27","Mozilla/5.0 (Windows NT 10.0; Win64; x64) AppleWebKit/537.36 (KHTML, like Gecko) Chrome/99.0.4844.82 Safari/537.36",1536,864,1536,714,"main",1431379,136,24,22,"EM","Moderate","Easier than Reference","D","k","riskyDeck","safeDeck",0,-28,-14,"left",1,0,32,"absent","riskyDeck",322,3291,-1,0
"0kpbaqjh4rwi",1103.19078947368,659.645406787663,13519,"02/04/2022@19:15:27","Mozilla/5.0 (Windows NT 10.0; Win64; x64) AppleWebKit/537.36 (KHTML, like Gecko) Chrome/99.0.4844.82 Safari/537.36",1536,864,1536,714,"main",1431379,137,25,23,"EM","Moderate","Easier than Reference","D","k","riskyDeck","safeDeck",0,-28,-14,"left",1,0,32,"absent","riskyDeck",516,2476,-1,0
"0kpbaqjh4rwi",1103.19078947368,659.645406787663,13519,"02/04/2022@19:15:27","Mozilla/5.0 (Windows NT 10.0; Win64; x64) AppleWebKit/537.36 (KHTML, like Gecko) Chrome/99.0.4844.82 Safari/537.36",1536,864,1536,714,"main",1431379,138,25,23,"HE","Extreme","Harder than Reference","D","j","safeDeck","riskyDeck",0,28,14,"left",0,0,46,"present","safeDeck",971,1791,-1,1
"0kpbaqjh4rwi",1103.19078947368,659.645406787663,13519,"02/04/2022@19:15:27","Mozilla/5.0 (Windows NT 10.0; Win64; x64) AppleWebKit/537.36 (KHTML, like Gecko) Chrome/99.0.4844.82 Safari/537.36",1536,864,1536,714,"main",1431379,139,25,23,"EE","Extreme","Easier than Reference","D","k","riskyDeck","safeDeck",0,-14,-7,"left",1,0,18,"absent","riskyDeck",628,2532,-1,0
"0kpbaqjh4rwi",1103.19078947368,659.645406787663,13519,"02/04/2022@19:15:27","Mozilla/5.0 (Windows NT 10.0; Win64; x64) AppleWebKit/537.36 (KHTML, like Gecko) Chrome/99.0.4844.82 Safari/537.36",1536,864,1536,714,"main",1431379,140,25,23,"HM","Moderate","Harder than Reference","D","k","riskyDeck","safeDeck",0,14,7,"left",1,0,46,"absent","riskyDeck",463,4231,-1,0
"0kpbaqjh4rwi",1103.19078947368,659.645406787663,13519,"02/04/2022@19:15:27","Mozilla/5.0 (Windows NT 10.0; Win64; x64) AppleWebKit/537.36 (KHTML, like Gecko) Chrome/99.0.4844.82 Safari/537.36",1536,864,1536,714,"main",1431379,141,25,23,"EE","Extreme","Easier than Reference","D","j","safeDeck","riskyDeck",0,-14,-7,"left",0,0,25,"present","safeDeck",659,1273,-1,1
"0kpbaqjh4rwi",1103.19078947368,659.645406787663,13519,"02/04/2022@19:15:27","Mozilla/5.0 (Windows NT 10.0; Win64; x64) AppleWebKit/537.36 (KHTML, like Gecko) Chrome/99.0.4844.82 Safari/537.36",1536,864,1536,714,"main",1431379,142,25,23,"EM","Moderate","Easier than Reference","D","k","riskyDeck","safeDeck",0,-28,-14,"left",1,0,32,"absent","riskyDeck",601,3365,-1,0
"0kpbaqjh4rwi",1103.19078947368,659.645406787663,13519,"02/04/2022@19:15:27","Mozilla/5.0 (Windows NT 10.0; Win64; x64) AppleWebKit/537.36 (KHTML, like Gecko) Chrome/99.0.4844.82 Safari/537.36",1536,864,1536,714,"main",1431379,143,25,23,"HM","Moderate","Harder than Reference","D","k","riskyDeck","safeDeck",14,0,7,"left",1,0,46,"absent","riskyDeck",988,3380,-1,0
"0kpbaqjh4rwi",1103.19078947368,659.645406787663,13519,"02/04/2022@19:15:27","Mozilla/5.0 (Windows NT 10.0; Win64; x64) AppleWebKit/537.36 (KHTML, like Gecko) Chrome/99.0.4844.82 Safari/537.36",1536,864,1536,714,"main",1431379,144,25,23,"HE","Extreme","Harder than Reference","D","k","safeDeck","riskyDeck",28,0,14,"left",0,0,46,"absent","safeDeck",760,4346,-1,1
"0kpbaqjh4rwi",1103.19078947368,659.645406787663,13519,"02/04/2022@19:15:27","Mozilla/5.0 (Windows NT 10.0; Win64; x64) AppleWebKit/537.36 (KHTML, like Gecko) Chrome/99.0.4844.82 Safari/537.36",1536,864,1536,714,"main",1431379,145,25,23,"HE","Extreme","Harder than Reference","D","k","safeDeck","riskyDeck",0,28,14,"left",0,0,46,"absent","safeDeck",568,2846,-1,1
"0kpbaqjh4rwi",1103.19078947368,659.645406787663,13519,"02/04/2022@19:15:27","Mozilla/5.0 (Windows NT 10.0; Win64; x64) AppleWebKit/537.36 (KHTML, like Gecko) Chrome/99.0.4844.82 Safari/537.36",1536,864,1536,714,"main",1431379,146,25,23,"EE","Extreme","Easier than Reference","F","j","safeDeck","riskyDeck",0,-14,-7,"right",1,0,18,"present","riskyDeck",1891,1260,1,0
"0kpbaqjh4rwi",1103.19078947368,659.645406787663,13519,"02/04/2022@19:15:27","Mozilla/5.0 (Windows NT 10.0; Win64; x64) AppleWebKit/537.36 (KHTML, like Gecko) Chrome/99.0.4844.82 Safari/537.36",1536,864,1536,714,"main",1431379,147,25,23,"HM","Moderate","Harder than Reference","F","k","riskyDeck","safeDeck",0,14,7,"right",0,0,39,"absent","safeDeck",1393,4417,1,1
"0kpbaqjh4rwi",1103.19078947368,659.645406787663,13519,"02/04/2022@19:15:27","Mozilla/5.0 (Windows NT 10.0; Win64; x64) AppleWebKit/537.36 (KHTML, like Gecko) Chrome/99.0.4844.82 Safari/537.36",1536,864,1536,714,"main",1431379,148,26,24,"EM","Moderate","Easier than Reference","D","j","riskyDeck","safeDeck",-28,0,-14,"left",1,0,32,"present","riskyDeck",578,1867,-1,0
"0kpbaqjh4rwi",1103.19078947368,659.645406787663,13519,"02/04/2022@19:15:27","Mozilla/5.0 (Windows NT 10.0; Win64; x64) AppleWebKit/537.36 (KHTML, like Gecko) Chrome/99.0.4844.82 Safari/537.36",1536,864,1536,714,"main",1431379,149,26,24,"HE","Extreme","Harder than Reference","D","j","riskyDeck","safeDeck",28,0,14,"left",1,0,32,"present","riskyDeck",479,1177,-1,0
"0kpbaqjh4rwi",1103.19078947368,659.645406787663,13519,"02/04/2022@19:15:27","Mozilla/5.0 (Windows NT 10.0; Win64; x64) AppleWebKit/537.36 (KHTML, like Gecko) Chrome/99.0.4844.82 Safari/537.36",1536,864,1536,714,"main",1431379,150,26,24,"EE","Extreme","Easier than Reference","D","k","riskyDeck","safeDeck",-14,0,-7,"left",1,0,18,"absent","riskyDeck",500,1269,-1,0
"0kpbaqjh4rwi",1103.19078947368,659.645406787663,13519,"02/04/2022@19:15:27","Mozilla/5.0 (Windows NT 10.0; Win64; x64) AppleWebKit/537.36 (KHTML, like Gecko) Chrome/99.0.4844.82 Safari/537.36",1536,864,1536,714,"main",1431379,151,26,24,"HM","Moderate","Harder than Reference","D","j","safeDeck","riskyDeck",14,0,7,"left",0,0,39,"present","safeDeck",705,2250,-1,1
"0kpbaqjh4rwi",1103.19078947368,659.645406787663,13519,"02/04/2022@19:15:27","Mozilla/5.0 (Windows NT 10.0; Win64; x64) AppleWebKit/537.36 (KHTML, like Gecko) Chrome/99.0.4844.82 Safari/537.36",1536,864,1536,714,"main",1431379,152,26,24,"EM","Moderate","Easier than Reference","F","k","safeDeck","riskyDeck",-28,0,-14,"right",1,0,4,"absent","riskyDeck",509,562,1,0
"1ngp7r1zkjh",831,266.176857005447,13398,"21/03/2022@19:30:26","Mozilla/5.0 (Windows NT 10.0; Win64; x64) AppleWebKit/537.36 (KHTML, like Gecko) Chrome/99.0.4844.82 Safari/537.36",1536,864,1536,746,"main",1002913,2,4,3,"EE","Extreme","Easier than Reference","F","k","safeDeck","riskyDeck",-14,0,-7,"right",1,0,18,"absent","riskyDeck",846,3062,1,0
"1ngp7r1zkjh",831,266.176857005447,13398,"21/03/2022@19:30:26","Mozilla/5.0 (Windows NT 10.0; Win64; x64) AppleWebKit/537.36 (KHTML, like Gecko) Chrome/99.0.4844.82 Safari/537.36",1536,864,1536,746,"main",1002913,4,4,3,"HE","Extreme","Harder than Reference","D","k","riskyDeck","safeDeck",0,28,14,"left",1,0,60,"absent","riskyDeck",1024,6313,-1,0
"1ngp7r1zkjh",831,266.176857005447,13398,"21/03/2022@19:30:26","Mozilla/5.0 (Windows NT 10.0; Win64; x64) AppleWebKit/537.36 (KHTML, like Gecko) Chrome/99.0.4844.82 Safari/537.36",1536,864,1536,746,"main",1002913,5,4,3,"EM","Moderate","Easier than Reference","F","j","safeDeck","riskyDeck",0,-28,-14,"right",1,0,4,"present","riskyDeck",978,1136,1,0
"1ngp7r1zkjh",831,266.176857005447,13398,"21/03/2022@19:30:26","Mozilla/5.0 (Windows NT 10.0; Win64; x64) AppleWebKit/537.36 (KHTML, like Gecko) Chrome/99.0.4844.82 Safari/537.36",1536,864,1536,746,"main",1002913,7,4,3,"EE","Extreme","Easier than Reference","D","j","riskyDeck","safeDeck",0,-14,-7,"left",1,0,18,"present","riskyDeck",1214,900,-1,0
"1ngp7r1zkjh",831,266.176857005447,13398,"21/03/2022@19:30:26","Mozilla/5.0 (Windows NT 10.0; Win64; x64) AppleWebKit/537.36 (KHTML, like Gecko) Chrome/99.0.4844.82 Safari/537.36",1536,864,1536,746,"main",1002913,8,4,3,"HM","Moderate","Harder than Reference","F","j","safeDeck","riskyDeck",0,14,7,"right",1,0,32,"present","riskyDeck",1187,2460,1,0
"1ngp7r1zkjh",831,266.176857005447,13398,"21/03/2022@19:30:26","Mozilla/5.0 (Windows NT 10.0; Win64; x64) AppleWebKit/537.36 (KHTML, like Gecko) Chrome/99.0.4844.82 Safari/537.36",1536,864,1536,746,"main",1002913,9,4,3,"HM","Moderate","Harder than Reference","D","j","riskyDeck","safeDeck",14,0,7,"left",1,0,32,"present","riskyDeck",948,1130,-1,0
"1ngp7r1zkjh",831,266.176857005447,13398,"21/03/2022@19:30:26","Mozilla/5.0 (Windows NT 10.0; Win64; x64) AppleWebKit/537.36 (KHTML, like Gecko) Chrome/99.0.4844.82 Safari/537.36",1536,864,1536,746,"main",1002913,10,4,3,"EM","Moderate","Easier than Reference","F","j","safeDeck","riskyDeck",0,-28,-14,"right",1,0,4,"present","riskyDeck",828,596,1,0
"1ngp7r1zkjh",831,266.176857005447,13398,"21/03/2022@19:30:26","Mozilla/5.0 (Windows NT 10.0; Win64; x64) AppleWebKit/537.36 (KHTML, like Gecko) Chrome/99.0.4844.82 Safari/537.36",1536,864,1536,746,"main",1002913,11,5,4,"EE","Extreme","Easier than Reference","F","k","safeDeck","riskyDeck",-14,0,-7,"right",1,0,18,"absent","riskyDeck",946,3280,1,0
"1ngp7r1zkjh",831,266.176857005447,13398,"21/03/2022@19:30:26","Mozilla/5.0 (Windows NT 10.0; Win64; x64) AppleWebKit/537.36 (KHTML, like Gecko) Chrome/99.0.4844.82 Safari/537.36",1536,864,1536,746,"main",1002913,12,5,4,"HE","Extreme","Harder than Reference","D","k","riskyDeck","safeDeck",0,28,14,"left",1,0,60,"absent","riskyDeck",988,6386,-1,0
"1ngp7r1zkjh",831,266.176857005447,13398,"21/03/2022@19:30:26","Mozilla/5.0 (Windows NT 10.0; Win64; x64) AppleWebKit/537.36 (KHTML, like Gecko) Chrome/99.0.4844.82 Safari/537.36",1536,864,1536,746,"main",1002913,13,5,4,"EE","Extreme","Easier than Reference","D","k","riskyDeck","safeDeck",-14,0,-7,"left",1,0,32,"absent","riskyDeck",872,4035,-1,0
"1ngp7r1zkjh",831,266.176857005447,13398,"21/03/2022@19:30:26","Mozilla/5.0 (Windows NT 10.0; Win64; x64) AppleWebKit/537.36 (KHTML, like Gecko) Chrome/99.0.4844.82 Safari/537.36",1536,864,1536,746,"main",1002913,14,5,4,"EM","Moderate","Easier than Reference","F","k","safeDeck","riskyDeck",-28,0,-14,"right",1,0,4,"absent","riskyDeck",872,849,1,0
"1ngp7r1zkjh",831,266.176857005447,13398,"21/03/2022@19:30:26","Mozilla/5.0 (Windows NT 10.0; Win64; x64) AppleWebKit/537.36 (KHTML, like Gecko) Chrome/99.0.4844.82 Safari/537.36",1536,864,1536,746,"main",1002913,15,5,4,"HM","Moderate","Harder than Reference","D","k","riskyDeck","safeDeck",0,14,7,"left",1,0,46,"absent","riskyDeck",1146,4524,-1,0
"1ngp7r1zkjh",831,266.176857005447,13398,"21/03/2022@19:30:26","Mozilla/5.0 (Windows NT 10.0; Win64; x64) AppleWebKit/537.36 (KHTML, like Gecko) Chrome/99.0.4844.82 Safari/537.36",1536,864,1536,746,"main",1002913,16,5,4,"HE","Extreme","Harder than Reference","D","j","riskyDeck","safeDeck",28,0,14,"left",1,0,32,"present","riskyDeck",941,1768,-1,0
"1ngp7r1zkjh",831,266.176857005447,13398,"21/03/2022@19:30:26","Mozilla/5.0 (Windows NT 10.0; Win64; x64) AppleWebKit/537.36 (KHTML, like Gecko) Chrome/99.0.4844.82 Safari/537.36",1536,864,1536,746,"main",1002913,18,5,4,"EE","Extreme","Easier than Reference","D","k","riskyDeck","safeDeck",-14,0,-7,"left",1,0,32,"absent","riskyDeck",1044,4888,-1,0
"1ngp7r1zkjh",831,266.176857005447,13398,"21/03/2022@19:30:26","Mozilla/5.0 (Windows NT 10.0; Win64; x64) AppleWebKit/537.36 (KHTML, like Gecko) Chrome/99.0.4844.82 Safari/537.36",1536,864,1536,746,"main",1002913,19,5,4,"EM","Moderate","Easier than Reference","F","j","safeDeck","riskyDeck",0,-28,-14,"right",1,0,32,"present","riskyDeck",749,1139,1,0
"1ngp7r1zkjh",831,266.176857005447,13398,"21/03/2022@19:30:26","Mozilla/5.0 (Windows NT 10.0; Win64; x64) AppleWebKit/537.36 (KHTML, like Gecko) Chrome/99.0.4844.82 Safari/537.36",1536,864,1536,746,"main",1002913,20,6,4,"HE","Extreme","Harder than Reference","F","k","safeDeck","riskyDeck",28,0,14,"right",1,0,32,"absent","riskyDeck",847,3049,1,0
"1ngp7r1zkjh",831,266.176857005447,13398,"21/03/2022@19:30:26","Mozilla/5.0 (Windows NT 10.0; Win64; x64) AppleWebKit/537.36 (KHTML, like Gecko) Chrome/99.0.4844.82 Safari/537.36",1536,864,1536,746,"main",1002913,21,6,5,"EE","Extreme","Easier than Reference","F","k","safeDeck","riskyDeck",-14,0,-7,"right",1,0,18,"absent","riskyDeck",529,2338,1,0
"1ngp7r1zkjh",831,266.176857005447,13398,"21/03/2022@19:30:26","Mozilla/5.0 (Windows NT 10.0; Win64; x64) AppleWebKit/537.36 (KHTML, like Gecko) Chrome/99.0.4844.82 Safari/537.36",1536,864,1536,746,"main",1002913,22,6,5,"HM","Moderate","Harder than Reference","D","j","riskyDeck","safeDeck",0,14,7,"left",1,0,32,"present","riskyDeck",875,1996,-1,0
"1ngp7r1zkjh",831,266.176857005447,13398,"21/03/2022@19:30:26","Mozilla/5.0 (Windows NT 10.0; Win64; x64) AppleWebKit/537.36 (KHTML, like Gecko) Chrome/99.0.4844.82 Safari/537.36",1536,864,1536,746,"main",1002913,23,6,5,"EM","Moderate","Easier than Reference","F","k","safeDeck","riskyDeck",-28,0,-14,"right",1,0,4,"absent","riskyDeck",1006,1212,1,0
"1ngp7r1zkjh",831,266.176857005447,13398,"21/03/2022@19:30:26","Mozilla/5.0 (Windows NT 10.0; Win64; x64) AppleWebKit/537.36 (KHTML, like Gecko) Chrome/99.0.4844.82 Safari/537.36",1536,864,1536,746,"main",1002913,24,6,5,"HE","Extreme","Harder than Reference","F","k","safeDeck","riskyDeck",0,28,14,"right",1,0,60,"absent","riskyDeck",699,7347,1,0
"1ngp7r1zkjh",831,266.176857005447,13398,"21/03/2022@19:30:26","Mozilla/5.0 (Windows NT 10.0; Win64; x64) AppleWebKit/537.36 (KHTML, like Gecko) Chrome/99.0.4844.82 Safari/537.36",1536,864,1536,746,"main",1002913,25,6,5,"HE","Extreme","Harder than Reference","D","j","riskyDeck","safeDeck",0,28,14,"left",1,0,60,"present","riskyDeck",857,1480,-1,0
"1ngp7r1zkjh",831,266.176857005447,13398,"21/03/2022@19:30:26","Mozilla/5.0 (Windows NT 10.0; Win64; x64) AppleWebKit/537.36 (KHTML, like Gecko) Chrome/99.0.4844.82 Safari/537.36",1536,864,1536,746,"main",1002913,26,6,5,"EE","Extreme","Easier than Reference","F","j","safeDeck","riskyDeck",-14,0,-7,"right",1,0,32,"present","riskyDeck",858,2568,1,0
"1ngp7r1zkjh",831,266.176857005447,13398,"21/03/2022@19:30:26","Mozilla/5.0 (Windows NT 10.0; Win64; x64) AppleWebKit/537.36 (KHTML, like Gecko) Chrome/99.0.4844.82 Safari/537.36",1536,864,1536,746,"main",1002913,27,6,5,"HM","Moderate","Harder than Reference","F","j","safeDeck","riskyDeck",0,14,7,"right",1,0,46,"present","riskyDeck",682,3855,1,0
"1ngp7r1zkjh",831,266.176857005447,13398,"21/03/2022@19:30:26","Mozilla/5.0 (Windows NT 10.0; Win64; x64) AppleWebKit/537.36 (KHTML, like Gecko) Chrome/99.0.4844.82 Safari/537.36",1536,864,1536,746,"main",1002913,28,6,5,"EM","Moderate","Easier than Reference","F","k","safeDeck","riskyDeck",0,-28,-14,"right",1,0,4,"absent","riskyDeck",506,582,1,0
"1ngp7r1zkjh",831,266.176857005447,13398,"21/03/2022@19:30:26","Mozilla/5.0 (Windows NT 10.0; Win64; x64) AppleWebKit/537.36 (KHTML, like Gecko) Chrome/99.0.4844.82 Safari/537.36",1536,864,1536,746,"main",1002913,30,6,5,"HM","Moderate","Harder than Reference","F","k","safeDeck","riskyDeck",0,14,7,"right",1,0,46,"absent","riskyDeck",754,5111,1,0
"1ngp7r1zkjh",831,266.176857005447,13398,"21/03/2022@19:30:26","Mozilla/5.0 (Windows NT 10.0; Win64; x64) AppleWebKit/537.36 (KHTML, like Gecko) Chrome/99.0.4844.82 Safari/537.36",1536,864,1536,746,"main",1002913,31,7,6,"HE","Extreme","Harder than Reference","D","k","riskyDeck","safeDeck",28,0,14,"left",1,0,60,"absent","riskyDeck",1101,6039,-1,0
"1ngp7r1zkjh",831,266.176857005447,13398,"21/03/2022@19:30:26","Mozilla/5.0 (Windows NT 10.0; Win64; x64) AppleWebKit/537.36 (KHTML, like Gecko) Chrome/99.0.4844.82 Safari/537.36",1536,864,1536,746,"main",1002913,32,7,6,"EM","Moderate","Easier than Reference","D","k","riskyDeck","safeDeck",0,-28,-14,"left",1,0,4,"absent","riskyDeck",870,1364,-1,0
"1ngp7r1zkjh",831,266.176857005447,13398,"21/03/2022@19:30:26","Mozilla/5.0 (Windows NT 10.0; Win64; x64) AppleWebKit/537.36 (KHTML, like Gecko) Chrome/99.0.4844.82 Safari/537.36",1536,864,1536,746,"main",1002913,33,7,6,"EM","Moderate","Easier than Reference","D","j","riskyDeck","safeDeck",0,-28,-14,"left",1,0,4,"present","riskyDeck",901,947,-1,0
"1ngp7r1zkjh",831,266.176857005447,13398,"21/03/2022@19:30:26","Mozilla/5.0 (Windows NT 10.0; Win64; x64) AppleWebKit/537.36 (KHTML, like Gecko) Chrome/99.0.4844.82 Safari/537.36",1536,864,1536,746,"main",1002913,34,7,6,"EE","Extreme","Easier than Reference","D","k","riskyDeck","safeDeck",-14,0,-7,"left",1,0,32,"absent","riskyDeck",954,4056,-1,0
"1ngp7r1zkjh",831,266.176857005447,13398,"21/03/2022@19:30:26","Mozilla/5.0 (Windows NT 10.0; Win64; x64) AppleWebKit/537.36 (KHTML, like Gecko) Chrome/99.0.4844.82 Safari/537.36",1536,864,1536,746,"main",1002913,35,7,6,"HM","Moderate","Harder than Reference","D","j","riskyDeck","safeDeck",14,0,7,"left",1,0,46,"present","riskyDeck",936,1796,-1,0
"1ngp7r1zkjh",831,266.176857005447,13398,"21/03/2022@19:30:26","Mozilla/5.0 (Windows NT 10.0; Win64; x64) AppleWebKit/537.36 (KHTML, like Gecko) Chrome/99.0.4844.82 Safari/537.36",1536,864,1536,746,"main",1002913,36,7,6,"HE","Extreme","Harder than Reference","D","j","riskyDeck","safeDeck",28,0,14,"left",1,0,60,"present","riskyDeck",699,7099,-1,0
"1ngp7r1zkjh",831,266.176857005447,13398,"21/03/2022@19:30:26","Mozilla/5.0 (Windows NT 10.0; Win64; x64) AppleWebKit/537.36 (KHTML, like Gecko) Chrome/99.0.4844.82 Safari/537.36",1536,864,1536,746,"main",1002913,37,7,6,"EE","Extreme","Easier than Reference","F","j","safeDeck","riskyDeck",-14,0,-7,"right",1,0,18,"present","riskyDeck",935,891,1,0
"1ngp7r1zkjh",831,266.176857005447,13398,"21/03/2022@19:30:26","Mozilla/5.0 (Windows NT 10.0; Win64; x64) AppleWebKit/537.36 (KHTML, like Gecko) Chrome/99.0.4844.82 Safari/537.36",1536,864,1536,746,"main",1002913,38,7,6,"HM","Moderate","Harder than Reference","D","j","riskyDeck","safeDeck",14,0,7,"left",1,0,32,"present","riskyDeck",643,2547,-1,0
"1ngp7r1zkjh",831,266.176857005447,13398,"21/03/2022@19:30:26","Mozilla/5.0 (Windows NT 10.0; Win64; x64) AppleWebKit/537.36 (KHTML, like Gecko) Chrome/99.0.4844.82 Safari/537.36",1536,864,1536,746,"main",1002913,39,7,6,"HE","Extreme","Harder than Reference","F","j","safeDeck","riskyDeck",0,28,14,"right",1,0,32,"present","riskyDeck",1183,2790,1,0
"1ngp7r1zkjh",831,266.176857005447,13398,"21/03/2022@19:30:26","Mozilla/5.0 (Windows NT 10.0; Win64; x64) AppleWebKit/537.36 (KHTML, like Gecko) Chrome/99.0.4844.82 Safari/537.36",1536,864,1536,746,"main",1002913,40,8,6,"EM","Moderate","Easier than Reference","D","k","riskyDeck","safeDeck",0,-28,-14,"left",1,0,32,"absent","riskyDeck",820,3684,-1,0
"1ngp7r1zkjh",831,266.176857005447,13398,"21/03/2022@19:30:26","Mozilla/5.0 (Windows NT 10.0; Win64; x64) AppleWebKit/537.36 (KHTML, like Gecko) Chrome/99.0.4844.82 Safari/537.36",1536,864,1536,746,"main",1002913,41,8,7,"EE","Extreme","Easier than Reference","F","k","safeDeck","riskyDeck",0,-14,-7,"right",1,0,32,"absent","riskyDeck",649,4829,1,0
"1ngp7r1zkjh",831,266.176857005447,13398,"21/03/2022@19:30:26","Mozilla/5.0 (Windows NT 10.0; Win64; x64) AppleWebKit/537.36 (KHTML, like Gecko) Chrome/99.0.4844.82 Safari/537.36",1536,864,1536,746,"main",1002913,42,8,7,"EM","Moderate","Easier than Reference","D","j","riskyDeck","safeDeck",0,-28,-14,"left",1,0,32,"present","riskyDeck",726,3129,-1,0
"1ngp7r1zkjh",831,266.176857005447,13398,"21/03/2022@19:30:26","Mozilla/5.0 (Windows NT 10.0; Win64; x64) AppleWebKit/537.36 (KHTML, like Gecko) Chrome/99.0.4844.82 Safari/537.36",1536,864,1536,746,"main",1002913,43,8,7,"HM","Moderate","Harder than Reference","F","j","safeDeck","riskyDeck",14,0,7,"right",1,0,32,"present","riskyDeck",604,2807,1,0
"1ngp7r1zkjh",831,266.176857005447,13398,"21/03/2022@19:30:26","Mozilla/5.0 (Windows NT 10.0; Win64; x64) AppleWebKit/537.36 (KHTML, like Gecko) Chrome/99.0.4844.82 Safari/537.36",1536,864,1536,746,"main",1002913,44,8,7,"HE","Extreme","Harder than Reference","F","k","safeDeck","riskyDeck",0,28,14,"right",1,0,32,"absent","riskyDeck",885,5524,1,0
"1ngp7r1zkjh",831,266.176857005447,13398,"21/03/2022@19:30:26","Mozilla/5.0 (Windows NT 10.0; Win64; x64) AppleWebKit/537.36 (KHTML, like Gecko) Chrome/99.0.4844.82 Safari/537.36",1536,864,1536,746,"main",1002913,45,8,7,"HE","Extreme","Harder than Reference","F","j","safeDeck","riskyDeck",0,28,14,"right",1,0,60,"present","riskyDeck",692,1855,1,0
"1ngp7r1zkjh",831,266.176857005447,13398,"21/03/2022@19:30:26","Mozilla/5.0 (Windows NT 10.0; Win64; x64) AppleWebKit/537.36 (KHTML, like Gecko) Chrome/99.0.4844.82 Safari/537.36",1536,864,1536,746,"main",1002913,46,8,7,"EE","Extreme","Easier than Reference","F","j","safeDeck","riskyDeck",0,-14,-7,"right",1,0,32,"present","riskyDeck",1261,1760,1,0
"1ngp7r1zkjh",831,266.176857005447,13398,"21/03/2022@19:30:26","Mozilla/5.0 (Windows NT 10.0; Win64; x64) AppleWebKit/537.36 (KHTML, like Gecko) Chrome/99.0.4844.82 Safari/537.36",1536,864,1536,746,"main",1002913,47,8,7,"EM","Moderate","Easier than Reference","D","j","riskyDeck","safeDeck",0,-28,-14,"left",1,0,32,"present","riskyDeck",678,3293,-1,0
"1ngp7r1zkjh",831,266.176857005447,13398,"21/03/2022@19:30:26","Mozilla/5.0 (Windows NT 10.0; Win64; x64) AppleWebKit/537.36 (KHTML, like Gecko) Chrome/99.0.4844.82 Safari/537.36",1536,864,1536,746,"main",1002913,48,8,7,"HM","Moderate","Harder than Reference","F","j","safeDeck","riskyDeck",0,14,7,"right",1,0,32,"present","riskyDeck",1277,921,1,0
"1ngp7r1zkjh",831,266.176857005447,13398,"21/03/2022@19:30:26","Mozilla/5.0 (Windows NT 10.0; Win64; x64) AppleWebKit/537.36 (KHTML, like Gecko) Chrome/99.0.4844.82 Safari/537.36",1536,864,1536,746,"main",1002913,49,8,7,"EE","Extreme","Easier than Reference","D","j","riskyDeck","safeDeck",-14,0,-7,"left",1,0,32,"present","riskyDeck",699,831,-1,0
"1ngp7r1zkjh",831,266.176857005447,13398,"21/03/2022@19:30:26","Mozilla/5.0 (Windows NT 10.0; Win64; x64) AppleWebKit/537.36 (KHTML, like Gecko) Chrome/99.0.4844.82 Safari/537.36",1536,864,1536,746,"main",1002913,50,8,7,"HE","Extreme","Harder than Reference","F","k","safeDeck","riskyDeck",28,0,14,"right",1,0,60,"absent","riskyDeck",754,5126,1,0
"1ngp7r1zkjh",831,266.176857005447,13398,"21/03/2022@19:30:26","Mozilla/5.0 (Windows NT 10.0; Win64; x64) AppleWebKit/537.36 (KHTML, like Gecko) Chrome/99.0.4844.82 Safari/537.36",1536,864,1536,746,"main",1002913,51,9,7,"HM","Moderate","Harder than Reference","F","j","safeDeck","riskyDeck",0,14,7,"right",1,0,46,"present","riskyDeck",848,2027,1,0
"1ngp7r1zkjh",831,266.176857005447,13398,"21/03/2022@19:30:26","Mozilla/5.0 (Windows NT 10.0; Win64; x64) AppleWebKit/537.36 (KHTML, like Gecko) Chrome/99.0.4844.82 Safari/537.36",1536,864,1536,746,"main",1002913,52,9,8,"EM","Moderate","Easier than Reference","D","k","riskyDeck","safeDeck",-28,0,-14,"left",1,0,32,"absent","riskyDeck",1357,3753,-1,0
"1ngp7r1zkjh",831,266.176857005447,13398,"21/03/2022@19:30:26","Mozilla/5.0 (Windows NT 10.0; Win64; x64) AppleWebKit/537.36 (KHTML, like Gecko) Chrome/99.0.4844.82 Safari/537.36",1536,864,1536,746,"main",1002913,53,9,8,"EE","Extreme","Easier than Reference","F","k","safeDeck","riskyDeck",-14,0,-7,"right",1,0,32,"absent","riskyDeck",696,3425,1,0
"1ngp7r1zkjh",831,266.176857005447,13398,"21/03/2022@19:30:26","Mozilla/5.0 (Windows NT 10.0; Win64; x64) AppleWebKit/537.36 (KHTML, like Gecko) Chrome/99.0.4844.82 Safari/537.36",1536,864,1536,746,"main",1002913,54,9,8,"HM","Moderate","Harder than Reference","D","j","riskyDeck","safeDeck",14,0,7,"left",1,0,46,"present","riskyDeck",629,1256,-1,0
"1ngp7r1zkjh",831,266.176857005447,13398,"21/03/2022@19:30:26","Mozilla/5.0 (Windows NT 10.0; Win64; x64) AppleWebKit/537.36 (KHTML, like Gecko) Chrome/99.0.4844.82 Safari/537.36",1536,864,1536,746,"main",1002913,55,9,8,"EM","Moderate","Easier than Reference","F","j","safeDeck","riskyDeck",0,-28,-14,"right",1,0,4,"present","riskyDeck",636,748,1,0
"1ngp7r1zkjh",831,266.176857005447,13398,"21/03/2022@19:30:26","Mozilla/5.0 (Windows NT 10.0; Win64; x64) AppleWebKit/537.36 (KHTML, like Gecko) Chrome/99.0.4844.82 Safari/537.36",1536,864,1536,746,"main",1002913,56,9,8,"HE","Extreme","Harder than Reference","D","k","riskyDeck","safeDeck",0,28,14,"left",1,0,32,"absent","riskyDeck",615,3286,-1,0
"1ngp7r1zkjh",831,266.176857005447,13398,"21/03/2022@19:30:26","Mozilla/5.0 (Windows NT 10.0; Win64; x64) AppleWebKit/537.36 (KHTML, like Gecko) Chrome/99.0.4844.82 Safari/537.36",1536,864,1536,746,"main",1002913,57,9,8,"HE","Extreme","Harder than Reference","D","k","riskyDeck","safeDeck",0,28,14,"left",1,0,60,"absent","riskyDeck",651,6439,-1,0
"1ngp7r1zkjh",831,266.176857005447,13398,"21/03/2022@19:30:26","Mozilla/5.0 (Windows NT 10.0; Win64; x64) AppleWebKit/537.36 (KHTML, like Gecko) Chrome/99.0.4844.82 Safari/537.36",1536,864,1536,746,"main",1002913,58,9,8,"EM","Moderate","Easier than Reference","D","j","riskyDeck","safeDeck",-28,0,-14,"left",1,0,32,"present","riskyDeck",730,2080,-1,0
"1ngp7r1zkjh",831,266.176857005447,13398,"21/03/2022@19:30:26","Mozilla/5.0 (Windows NT 10.0; Win64; x64) AppleWebKit/537.36 (KHTML, like Gecko) Chrome/99.0.4844.82 Safari/537.36",1536,864,1536,746,"main",1002913,59,9,8,"EE","Extreme","Easier than Reference","D","j","riskyDeck","safeDeck",-14,0,-7,"left",1,0,32,"present","riskyDeck",1044,1807,-1,0
"1ngp7r1zkjh",831,266.176857005447,13398,"21/03/2022@19:30:26","Mozilla/5.0 (Windows NT 10.0; Win64; x64) AppleWebKit/537.36 (KHTML, like Gecko) Chrome/99.0.4844.82 Safari/537.36",1536,864,1536,746,"main",1002913,60,9,8,"HM","Moderate","Harder than Reference","F","k","safeDeck","riskyDeck",0,14,7,"right",1,0,32,"absent","riskyDeck",872,3992,1,0
"1ngp7r1zkjh",831,266.176857005447,13398,"21/03/2022@19:30:26","Mozilla/5.0 (Windows NT 10.0; Win64; x64) AppleWebKit/537.36 (KHTML, like Gecko) Chrome/99.0.4844.82 Safari/537.36",1536,864,1536,746,"main",1002913,61,9,8,"HE","Extreme","Harder than Reference","F","j","safeDeck","riskyDeck",0,28,14,"right",1,0,32,"present","riskyDeck",847,2152,1,0
"1ngp7r1zkjh",831,266.176857005447,13398,"21/03/2022@19:30:26","Mozilla/5.0 (Windows NT 10.0; Win64; x64) AppleWebKit/537.36 (KHTML, like Gecko) Chrome/99.0.4844.82 Safari/537.36",1536,864,1536,746,"main",1002913,62,10,8,"EM","Moderate","Easier than Reference","D","k","riskyDeck","safeDeck",-28,0,-14,"left",1,0,32,"absent","riskyDeck",762,2562,-1,0
"1ngp7r1zkjh",831,266.176857005447,13398,"21/03/2022@19:30:26","Mozilla/5.0 (Windows NT 10.0; Win64; x64) AppleWebKit/537.36 (KHTML, like Gecko) Chrome/99.0.4844.82 Safari/537.36",1536,864,1536,746,"main",1002913,63,10,8,"EE","Extreme","Easier than Reference","D","j","riskyDeck","safeDeck",-14,0,-7,"left",1,0,18,"present","riskyDeck",572,1173,-1,0
"1ngp7r1zkjh",831,266.176857005447,13398,"21/03/2022@19:30:26","Mozilla/5.0 (Windows NT 10.0; Win64; x64) AppleWebKit/537.36 (KHTML, like Gecko) Chrome/99.0.4844.82 Safari/537.36",1536,864,1536,746,"main",1002913,64,10,9,"HM","Moderate","Harder than Reference","D","k","riskyDeck","safeDeck",0,14,7,"left",1,0,32,"absent","riskyDeck",961,2482,-1,0
"1ngp7r1zkjh",831,266.176857005447,13398,"21/03/2022@19:30:26","Mozilla/5.0 (Windows NT 10.0; Win64; x64) AppleWebKit/537.36 (KHTML, like Gecko) Chrome/99.0.4844.82 Safari/537.36",1536,864,1536,746,"main",1002913,65,10,9,"HE","Extreme","Harder than Reference","D","j","riskyDeck","safeDeck",0,28,14,"left",1,0,32,"present","riskyDeck",631,1394,-1,0
"1ngp7r1zkjh",831,266.176857005447,13398,"21/03/2022@19:30:26","Mozilla/5.0 (Windows NT 10.0; Win64; x64) AppleWebKit/537.36 (KHTML, like Gecko) Chrome/99.0.4844.82 Safari/537.36",1536,864,1536,746,"main",1002913,66,10,9,"EE","Extreme","Easier than Reference","D","k","riskyDeck","safeDeck",-14,0,-7,"left",1,0,18,"absent","riskyDeck",679,1963,-1,0
"1ngp7r1zkjh",831,266.176857005447,13398,"21/03/2022@19:30:26","Mozilla/5.0 (Windows NT 10.0; Win64; x64) AppleWebKit/537.36 (KHTML, like Gecko) Chrome/99.0.4844.82 Safari/537.36",1536,864,1536,746,"main",1002913,67,10,9,"HM","Moderate","Harder than Reference","F","k","safeDeck","riskyDeck",14,0,7,"right",1,0,32,"absent","riskyDeck",717,3145,1,0
"1ngp7r1zkjh",831,266.176857005447,13398,"21/03/2022@19:30:26","Mozilla/5.0 (Windows NT 10.0; Win64; x64) AppleWebKit/537.36 (KHTML, like Gecko) Chrome/99.0.4844.82 Safari/537.36",1536,864,1536,746,"main",1002913,68,10,9,"EM","Moderate","Easier than Reference","F","k","safeDeck","riskyDeck",0,-28,-14,"right",1,0,4,"absent","riskyDeck",583,1095,1,0
"1ngp7r1zkjh",831,266.176857005447,13398,"21/03/2022@19:30:26","Mozilla/5.0 (Windows NT 10.0; Win64; x64) AppleWebKit/537.36 (KHTML, like Gecko) Chrome/99.0.4844.82 Safari/537.36",1536,864,1536,746,"main",1002913,69,10,9,"HM","Moderate","Harder than Reference","F","k","safeDeck","riskyDeck",14,0,7,"right",1,0,46,"absent","riskyDeck",711,3674,1,0
"1ngp7r1zkjh",831,266.176857005447,13398,"21/03/2022@19:30:26","Mozilla/5.0 (Windows NT 10.0; Win64; x64) AppleWebKit/537.36 (KHTML, like Gecko) Chrome/99.0.4844.82 Safari/537.36",1536,864,1536,746,"main",1002913,70,10,9,"EM","Moderate","Easier than Reference","F","k","safeDeck","riskyDeck",-28,0,-14,"right",1,1,32,"present","riskyDeck",627,3877,1,0
"1ngp7r1zkjh",831,266.176857005447,13398,"21/03/2022@19:30:26","Mozilla/5.0 (Windows NT 10.0; Win64; x64) AppleWebKit/537.36 (KHTML, like Gecko) Chrome/99.0.4844.82 Safari/537.36",1536,864,1536,746,"main",1002913,71,10,9,"HE","Extreme","Harder than Reference","F","j","safeDeck","riskyDeck",0,28,14,"right",1,0,32,"present","riskyDeck",742,2133,1,0
"1ngp7r1zkjh",831,266.176857005447,13398,"21/03/2022@19:30:26","Mozilla/5.0 (Windows NT 10.0; Win64; x64) AppleWebKit/537.36 (KHTML, like Gecko) Chrome/99.0.4844.82 Safari/537.36",1536,864,1536,746,"main",1002913,72,10,9,"EE","Extreme","Easier than Reference","F","k","safeDeck","riskyDeck",-14,0,-7,"right",1,0,18,"absent","riskyDeck",799,2134,1,0
"1ngp7r1zkjh",831,266.176857005447,13398,"21/03/2022@19:30:26","Mozilla/5.0 (Windows NT 10.0; Win64; x64) AppleWebKit/537.36 (KHTML, like Gecko) Chrome/99.0.4844.82 Safari/537.36",1536,864,1536,746,"main",1002913,73,10,9,"EM","Moderate","Easier than Reference","D","k","riskyDeck","safeDeck",-28,0,-14,"left",1,0,4,"absent","riskyDeck",1130,803,-1,0
"1ngp7r1zkjh",831,266.176857005447,13398,"21/03/2022@19:30:26","Mozilla/5.0 (Windows NT 10.0; Win64; x64) AppleWebKit/537.36 (KHTML, like Gecko) Chrome/99.0.4844.82 Safari/537.36",1536,864,1536,746,"main",1002913,74,11,9,"EE","Extreme","Easier than Reference","D","k","riskyDeck","safeDeck",-14,0,-7,"left",1,0,18,"absent","riskyDeck",859,3225,-1,0
"1ngp7r1zkjh",831,266.176857005447,13398,"21/03/2022@19:30:26","Mozilla/5.0 (Windows NT 10.0; Win64; x64) AppleWebKit/537.36 (KHTML, like Gecko) Chrome/99.0.4844.82 Safari/537.36",1536,864,1536,746,"main",1002913,75,11,9,"HM","Moderate","Harder than Reference","D","j","riskyDeck","safeDeck",14,0,7,"left",1,0,32,"present","riskyDeck",582,1004,-1,0
"1ngp7r1zkjh",831,266.176857005447,13398,"21/03/2022@19:30:26","Mozilla/5.0 (Windows NT 10.0; Win64; x64) AppleWebKit/537.36 (KHTML, like Gecko) Chrome/99.0.4844.82 Safari/537.36",1536,864,1536,746,"main",1002913,76,11,10,"HE","Extreme","Harder than Reference","D","k","riskyDeck","safeDeck",0,28,14,"left",1,0,60,"absent","riskyDeck",960,6381,-1,0
"1ngp7r1zkjh",831,266.176857005447,13398,"21/03/2022@19:30:26","Mozilla/5.0 (Windows NT 10.0; Win64; x64) AppleWebKit/537.36 (KHTML, like Gecko) Chrome/99.0.4844.82 Safari/537.36",1536,864,1536,746,"main",1002913,77,11,10,"EM","Moderate","Easier than Reference","D","j","riskyDeck","safeDeck",0,-28,-14,"left",1,0,4,"present","riskyDeck",850,739,-1,0
"1ngp7r1zkjh",831,266.176857005447,13398,"21/03/2022@19:30:26","Mozilla/5.0 (Windows NT 10.0; Win64; x64) AppleWebKit/537.36 (KHTML, like Gecko) Chrome/99.0.4844.82 Safari/537.36",1536,864,1536,746,"main",1002913,78,11,10,"EE","Extreme","Easier than Reference","D","k","riskyDeck","safeDeck",-14,0,-7,"left",1,0,18,"absent","riskyDeck",724,2558,-1,0
"1ngp7r1zkjh",831,266.176857005447,13398,"21/03/2022@19:30:26","Mozilla/5.0 (Windows NT 10.0; Win64; x64) AppleWebKit/537.36 (KHTML, like Gecko) Chrome/99.0.4844.82 Safari/537.36",1536,864,1536,746,"main",1002913,79,11,10,"HM","Moderate","Harder than Reference","D","j","riskyDeck","safeDeck",0,14,7,"left",1,0,46,"present","riskyDeck",623,1435,-1,0
"1ngp7r1zkjh",831,266.176857005447,13398,"21/03/2022@19:30:26","Mozilla/5.0 (Windows NT 10.0; Win64; x64) AppleWebKit/537.36 (KHTML, like Gecko) Chrome/99.0.4844.82 Safari/537.36",1536,864,1536,746,"main",1002913,80,11,10,"HE","Extreme","Harder than Reference","D","k","riskyDeck","safeDeck",28,0,14,"left",1,0,60,"absent","riskyDeck",506,6832,-1,0
"1ngp7r1zkjh",831,266.176857005447,13398,"21/03/2022@19:30:26","Mozilla/5.0 (Windows NT 10.0; Win64; x64) AppleWebKit/537.36 (KHTML, like Gecko) Chrome/99.0.4844.82 Safari/537.36",1536,864,1536,746,"main",1002913,81,11,10,"EE","Extreme","Easier than Reference","D","j","safeDeck","riskyDeck",-14,0,-7,"left",0,0,25,"present","safeDeck",1067,1602,-1,1
"1ngp7r1zkjh",831,266.176857005447,13398,"21/03/2022@19:30:26","Mozilla/5.0 (Windows NT 10.0; Win64; x64) AppleWebKit/537.36 (KHTML, like Gecko) Chrome/99.0.4844.82 Safari/537.36",1536,864,1536,746,"main",1002913,82,11,10,"EM","Moderate","Easier than Reference","F","j","safeDeck","riskyDeck",0,-28,-14,"right",1,0,4,"present","riskyDeck",716,651,1,0
"1ngp7r1zkjh",831,266.176857005447,13398,"21/03/2022@19:30:26","Mozilla/5.0 (Windows NT 10.0; Win64; x64) AppleWebKit/537.36 (KHTML, like Gecko) Chrome/99.0.4844.82 Safari/537.36",1536,864,1536,746,"main",1002913,83,11,10,"HE","Extreme","Harder than Reference","F","k","safeDeck","riskyDeck",28,0,14,"right",1,0,60,"absent","riskyDeck",728,5593,1,0
"1ngp7r1zkjh",831,266.176857005447,13398,"21/03/2022@19:30:26","Mozilla/5.0 (Windows NT 10.0; Win64; x64) AppleWebKit/537.36 (KHTML, like Gecko) Chrome/99.0.4844.82 Safari/537.36",1536,864,1536,746,"main",1002913,84,12,10,"HM","Moderate","Harder than Reference","D","j","riskyDeck","safeDeck",0,14,7,"left",1,0,32,"present","riskyDeck",627,2954,-1,0
"1ngp7r1zkjh",831,266.176857005447,13398,"21/03/2022@19:30:26","Mozilla/5.0 (Windows NT 10.0; Win64; x64) AppleWebKit/537.36 (KHTML, like Gecko) Chrome/99.0.4844.82 Safari/537.36",1536,864,1536,746,"main",1002913,85,12,11,"EM","Moderate","Easier than Reference","D","j","riskyDeck","safeDeck",0,-28,-14,"left",1,0,32,"present","riskyDeck",946,3450,-1,0
"1ngp7r1zkjh",831,266.176857005447,13398,"21/03/2022@19:30:26","Mozilla/5.0 (Windows NT 10.0; Win64; x64) AppleWebKit/537.36 (KHTML, like Gecko) Chrome/99.0.4844.82 Safari/537.36",1536,864,1536,746,"main",1002913,86,12,11,"HE","Extreme","Harder than Reference","D","j","riskyDeck","safeDeck",28,0,14,"left",1,0,60,"present","riskyDeck",706,6903,-1,0
"1ngp7r1zkjh",831,266.176857005447,13398,"21/03/2022@19:30:26","Mozilla/5.0 (Windows NT 10.0; Win64; x64) AppleWebKit/537.36 (KHTML, like Gecko) Chrome/99.0.4844.82 Safari/537.36",1536,864,1536,746,"main",1002913,87,12,11,"EE","Extreme","Easier than Reference","D","j","riskyDeck","safeDeck",0,-14,-7,"left",1,0,32,"present","riskyDeck",460,820,-1,0
"1ngp7r1zkjh",831,266.176857005447,13398,"21/03/2022@19:30:26","Mozilla/5.0 (Windows NT 10.0; Win64; x64) AppleWebKit/537.36 (KHTML, like Gecko) Chrome/99.0.4844.82 Safari/537.36",1536,864,1536,746,"main",1002913,88,12,11,"HM","Moderate","Harder than Reference","F","j","safeDeck","riskyDeck",14,0,7,"right",1,0,32,"present","riskyDeck",1084,1065,1,0
"1ngp7r1zkjh",831,266.176857005447,13398,"21/03/2022@19:30:26","Mozilla/5.0 (Windows NT 10.0; Win64; x64) AppleWebKit/537.36 (KHTML, like Gecko) Chrome/99.0.4844.82 Safari/537.36",1536,864,1536,746,"main",1002913,89,12,11,"HE","Extreme","Harder than Reference","F","k","safeDeck","riskyDeck",0,28,14,"right",1,0,32,"absent","riskyDeck",1317,4903,1,0
"1ngp7r1zkjh",831,266.176857005447,13398,"21/03/2022@19:30:26","Mozilla/5.0 (Windows NT 10.0; Win64; x64) AppleWebKit/537.36 (KHTML, like Gecko) Chrome/99.0.4844.82 Safari/537.36",1536,864,1536,746,"main",1002913,90,12,11,"EM","Moderate","Easier than Reference","F","k","safeDeck","riskyDeck",-28,0,-14,"right",1,0,4,"absent","riskyDeck",833,1432,1,0
"1ngp7r1zkjh",831,266.176857005447,13398,"21/03/2022@19:30:26","Mozilla/5.0 (Windows NT 10.0; Win64; x64) AppleWebKit/537.36 (KHTML, like Gecko) Chrome/99.0.4844.82 Safari/537.36",1536,864,1536,746,"main",1002913,91,12,11,"HM","Moderate","Harder than Reference","F","k","safeDeck","riskyDeck",14,0,7,"right",1,0,32,"absent","riskyDeck",683,4455,1,0
"1ngp7r1zkjh",831,266.176857005447,13398,"21/03/2022@19:30:26","Mozilla/5.0 (Windows NT 10.0; Win64; x64) AppleWebKit/537.36 (KHTML, like Gecko) Chrome/99.0.4844.82 Safari/537.36",1536,864,1536,746,"main",1002913,92,12,11,"EE","Extreme","Easier than Reference","D","j","riskyDeck","safeDeck",0,-14,-7,"left",1,0,32,"present","riskyDeck",809,1169,-1,0
"1ngp7r1zkjh",831,266.176857005447,13398,"21/03/2022@19:30:26","Mozilla/5.0 (Windows NT 10.0; Win64; x64) AppleWebKit/537.36 (KHTML, like Gecko) Chrome/99.0.4844.82 Safari/537.36",1536,864,1536,746,"main",1002913,93,12,11,"EM","Moderate","Easier than Reference","D","j","riskyDeck","safeDeck",0,-28,-14,"left",1,0,32,"present","riskyDeck",726,1306,-1,0
"1ngp7r1zkjh",831,266.176857005447,13398,"21/03/2022@19:30:26","Mozilla/5.0 (Windows NT 10.0; Win64; x64) AppleWebKit/537.36 (KHTML, like Gecko) Chrome/99.0.4844.82 Safari/537.36",1536,864,1536,746,"main",1002913,94,12,11,"HM","Moderate","Harder than Reference","D","k","riskyDeck","safeDeck",0,14,7,"left",1,0,46,"absent","riskyDeck",731,4888,-1,0
"1ngp7r1zkjh",831,266.176857005447,13398,"21/03/2022@19:30:26","Mozilla/5.0 (Windows NT 10.0; Win64; x64) AppleWebKit/537.36 (KHTML, like Gecko) Chrome/99.0.4844.82 Safari/537.36",1536,864,1536,746,"main",1002913,95,13,11,"EE","Extreme","Easier than Reference","F","j","safeDeck","riskyDeck",-14,0,-7,"right",1,0,18,"present","riskyDeck",630,1578,1,0
"1ngp7r1zkjh",831,266.176857005447,13398,"21/03/2022@19:30:26","Mozilla/5.0 (Windows NT 10.0; Win64; x64) AppleWebKit/537.36 (KHTML, like Gecko) Chrome/99.0.4844.82 Safari/537.36",1536,864,1536,746,"main",1002913,96,13,12,"HE","Extreme","Harder than Reference","D","j","riskyDeck","safeDeck",28,0,14,"left",1,0,60,"present","riskyDeck",514,893,-1,0
"1ngp7r1zkjh",831,266.176857005447,13398,"21/03/2022@19:30:26","Mozilla/5.0 (Windows NT 10.0; Win64; x64) AppleWebKit/537.36 (KHTML, like Gecko) Chrome/99.0.4844.82 Safari/537.36",1536,864,1536,746,"main",1002913,97,13,12,"HE","Extreme","Harder than Reference","D","j","riskyDeck","safeDeck",0,28,14,"left",1,0,60,"present","riskyDeck",731,6807,-1,0
"1ngp7r1zkjh",831,266.176857005447,13398,"21/03/2022@19:30:26","Mozilla/5.0 (Windows NT 10.0; Win64; x64) AppleWebKit/537.36 (KHTML, like Gecko) Chrome/99.0.4844.82 Safari/537.36",1536,864,1536,746,"main",1002913,98,13,12,"EE","Extreme","Easier than Reference","F","j","safeDeck","riskyDeck",-14,0,-7,"right",1,0,18,"present","riskyDeck",815,1156,1,0
"1ngp7r1zkjh",831,266.176857005447,13398,"21/03/2022@19:30:26","Mozilla/5.0 (Windows NT 10.0; Win64; x64) AppleWebKit/537.36 (KHTML, like Gecko) Chrome/99.0.4844.82 Safari/537.36",1536,864,1536,746,"main",1002913,99,13,12,"EM","Moderate","Easier than Reference","F","k","safeDeck","riskyDeck",-28,0,-14,"right",1,0,32,"absent","riskyDeck",794,3204,1,0
"1ngp7r1zkjh",831,266.176857005447,13398,"21/03/2022@19:30:26","Mozilla/5.0 (Windows NT 10.0; Win64; x64) AppleWebKit/537.36 (KHTML, like Gecko) Chrome/99.0.4844.82 Safari/537.36",1536,864,1536,746,"main",1002913,100,13,12,"HM","Moderate","Harder than Reference","D","k","riskyDeck","safeDeck",14,0,7,"left",1,1,46,"present","riskyDeck",721,5259,-1,0
"1ngp7r1zkjh",831,266.176857005447,13398,"21/03/2022@19:30:26","Mozilla/5.0 (Windows NT 10.0; Win64; x64) AppleWebKit/537.36 (KHTML, like Gecko) Chrome/99.0.4844.82 Safari/537.36",1536,864,1536,746,"main",1002913,101,13,12,"EE","Extreme","Easier than Reference","D","k","riskyDeck","safeDeck",0,-14,-7,"left",1,0,18,"absent","riskyDeck",708,2076,-1,0
"1ngp7r1zkjh",831,266.176857005447,13398,"21/03/2022@19:30:26","Mozilla/5.0 (Windows NT 10.0; Win64; x64) AppleWebKit/537.36 (KHTML, like Gecko) Chrome/99.0.4844.82 Safari/537.36",1536,864,1536,746,"main",1002913,102,13,12,"EM","Moderate","Easier than Reference","D","k","riskyDeck","safeDeck",-28,0,-14,"left",1,0,4,"absent","riskyDeck",618,787,-1,0
"1ngp7r1zkjh",831,266.176857005447,13398,"21/03/2022@19:30:26","Mozilla/5.0 (Windows NT 10.0; Win64; x64) AppleWebKit/537.36 (KHTML, like Gecko) Chrome/99.0.4844.82 Safari/537.36",1536,864,1536,746,"main",1002913,103,13,12,"HM","Moderate","Harder than Reference","F","k","safeDeck","riskyDeck",14,0,7,"right",1,0,46,"absent","riskyDeck",604,6420,1,0
"1ngp7r1zkjh",831,266.176857005447,13398,"21/03/2022@19:30:26","Mozilla/5.0 (Windows NT 10.0; Win64; x64) AppleWebKit/537.36 (KHTML, like Gecko) Chrome/99.0.4844.82 Safari/537.36",1536,864,1536,746,"main",1002913,104,13,12,"HE","Extreme","Harder than Reference","D","j","riskyDeck","safeDeck",28,0,14,"left",1,0,60,"present","riskyDeck",607,1117,-1,0
"1ngp7r1zkjh",831,266.176857005447,13398,"21/03/2022@19:30:26","Mozilla/5.0 (Windows NT 10.0; Win64; x64) AppleWebKit/537.36 (KHTML, like Gecko) Chrome/99.0.4844.82 Safari/537.36",1536,864,1536,746,"main",1002913,105,14,12,"HM","Moderate","Harder than Reference","F","k","safeDeck","riskyDeck",14,0,7,"right",1,0,46,"absent","riskyDeck",691,4502,1,0
"1ngp7r1zkjh",831,266.176857005447,13398,"21/03/2022@19:30:26","Mozilla/5.0 (Windows NT 10.0; Win64; x64) AppleWebKit/537.36 (KHTML, like Gecko) Chrome/99.0.4844.82 Safari/537.36",1536,864,1536,746,"main",1002913,106,14,13,"EE","Extreme","Easier than Reference","F","j","safeDeck","riskyDeck",0,-14,-7,"right",1,0,32,"present","riskyDeck",683,761,1,0
"1ngp7r1zkjh",831,266.176857005447,13398,"21/03/2022@19:30:26","Mozilla/5.0 (Windows NT 10.0; Win64; x64) AppleWebKit/537.36 (KHTML, like Gecko) Chrome/99.0.4844.82 Safari/537.36",1536,864,1536,746,"main",1002913,107,14,13,"HE","Extreme","Harder than Reference","F","j","safeDeck","riskyDeck",0,28,14,"right",1,0,32,"present","riskyDeck",632,743,1,0
"1ngp7r1zkjh",831,266.176857005447,13398,"21/03/2022@19:30:26","Mozilla/5.0 (Windows NT 10.0; Win64; x64) AppleWebKit/537.36 (KHTML, like Gecko) Chrome/99.0.4844.82 Safari/537.36",1536,864,1536,746,"main",1002913,108,14,13,"EM","Moderate","Easier than Reference","F","k","safeDeck","riskyDeck",0,-28,-14,"right",1,0,32,"absent","riskyDeck",1191,4258,1,0
"1ngp7r1zkjh",831,266.176857005447,13398,"21/03/2022@19:30:26","Mozilla/5.0 (Windows NT 10.0; Win64; x64) AppleWebKit/537.36 (KHTML, like Gecko) Chrome/99.0.4844.82 Safari/537.36",1536,864,1536,746,"main",1002913,109,14,13,"EM","Moderate","Easier than Reference","F","j","safeDeck","riskyDeck",-28,0,-14,"right",1,0,4,"present","riskyDeck",644,563,1,0
"1ngp7r1zkjh",831,266.176857005447,13398,"21/03/2022@19:30:26","Mozilla/5.0 (Windows NT 10.0; Win64; x64) AppleWebKit/537.36 (KHTML, like Gecko) Chrome/99.0.4844.82 Safari/537.36",1536,864,1536,746,"main",1002913,110,14,13,"EE","Extreme","Easier than Reference","F","j","safeDeck","riskyDeck",0,-14,-7,"right",1,0,18,"present","riskyDeck",901,953,1,0
"1ngp7r1zkjh",831,266.176857005447,13398,"21/03/2022@19:30:26","Mozilla/5.0 (Windows NT 10.0; Win64; x64) AppleWebKit/537.36 (KHTML, like Gecko) Chrome/99.0.4844.82 Safari/537.36",1536,864,1536,746,"main",1002913,111,14,13,"HE","Extreme","Harder than Reference","D","j","riskyDeck","safeDeck",0,28,14,"left",1,0,60,"present","riskyDeck",1180,1492,-1,0
"1ngp7r1zkjh",831,266.176857005447,13398,"21/03/2022@19:30:26","Mozilla/5.0 (Windows NT 10.0; Win64; x64) AppleWebKit/537.36 (KHTML, like Gecko) Chrome/99.0.4844.82 Safari/537.36",1536,864,1536,746,"main",1002913,112,14,13,"HM","Moderate","Harder than Reference","D","k","riskyDeck","safeDeck",0,14,7,"left",1,0,46,"absent","riskyDeck",638,4493,-1,0
"1ngp7r1zkjh",831,266.176857005447,13398,"21/03/2022@19:30:26","Mozilla/5.0 (Windows NT 10.0; Win64; x64) AppleWebKit/537.36 (KHTML, like Gecko) Chrome/99.0.4844.82 Safari/537.36",1536,864,1536,746,"main",1002913,113,14,13,"EE","Extreme","Easier than Reference","D","k","riskyDeck","safeDeck",0,-14,-7,"left",1,0,32,"absent","riskyDeck",640,3273,-1,0
"1ngp7r1zkjh",831,266.176857005447,13398,"21/03/2022@19:30:26","Mozilla/5.0 (Windows NT 10.0; Win64; x64) AppleWebKit/537.36 (KHTML, like Gecko) Chrome/99.0.4844.82 Safari/537.36",1536,864,1536,746,"main",1002913,114,14,13,"HE","Extreme","Harder than Reference","D","j","riskyDeck","safeDeck",0,28,14,"left",1,0,60,"present","riskyDeck",747,5119,-1,0
"1ngp7r1zkjh",831,266.176857005447,13398,"21/03/2022@19:30:26","Mozilla/5.0 (Windows NT 10.0; Win64; x64) AppleWebKit/537.36 (KHTML, like Gecko) Chrome/99.0.4844.82 Safari/537.36",1536,864,1536,746,"main",1002913,115,14,13,"EM","Moderate","Easier than Reference","F","k","safeDeck","riskyDeck",-28,0,-14,"right",1,0,32,"absent","riskyDeck",825,3373,1,0
"1ngp7r1zkjh",831,266.176857005447,13398,"21/03/2022@19:30:26","Mozilla/5.0 (Windows NT 10.0; Win64; x64) AppleWebKit/537.36 (KHTML, like Gecko) Chrome/99.0.4844.82 Safari/537.36",1536,864,1536,746,"main",1002913,116,15,13,"HM","Moderate","Harder than Reference","D","j","riskyDeck","safeDeck",14,0,7,"left",1,0,32,"present","riskyDeck",849,2946,-1,0
"1ngp7r1zkjh",831,266.176857005447,13398,"21/03/2022@19:30:26","Mozilla/5.0 (Windows NT 10.0; Win64; x64) AppleWebKit/537.36 (KHTML, like Gecko) Chrome/99.0.4844.82 Safari/537.36",1536,864,1536,746,"main",1002913,117,15,14,"EE","Extreme","Easier than Reference","D","j","riskyDeck","safeDeck",-14,0,-7,"left",1,0,18,"present","riskyDeck",812,1484,-1,0
"1ngp7r1zkjh",831,266.176857005447,13398,"21/03/2022@19:30:26","Mozilla/5.0 (Windows NT 10.0; Win64; x64) AppleWebKit/537.36 (KHTML, like Gecko) Chrome/99.0.4844.82 Safari/537.36",1536,864,1536,746,"main",1002913,118,15,14,"HE","Extreme","Harder than Reference","F","k","safeDeck","riskyDeck",28,0,14,"right",1,0,32,"absent","riskyDeck",815,4297,1,0
"1ngp7r1zkjh",831,266.176857005447,13398,"21/03/2022@19:30:26","Mozilla/5.0 (Windows NT 10.0; Win64; x64) AppleWebKit/537.36 (KHTML, like Gecko) Chrome/99.0.4844.82 Safari/537.36",1536,864,1536,746,"main",1002913,119,15,14,"HM","Moderate","Harder than Reference","D","k","riskyDeck","safeDeck",14,0,7,"left",1,0,46,"absent","riskyDeck",711,5775,-1,0
"1ngp7r1zkjh",831,266.176857005447,13398,"21/03/2022@19:30:26","Mozilla/5.0 (Windows NT 10.0; Win64; x64) AppleWebKit/537.36 (KHTML, like Gecko) Chrome/99.0.4844.82 Safari/537.36",1536,864,1536,746,"main",1002913,120,15,14,"EM","Moderate","Easier than Reference","F","j","riskyDeck","safeDeck",0,-28,-14,"right",0,0,18,"present","safeDeck",910,860,1,1
"1ngp7r1zkjh",831,266.176857005447,13398,"21/03/2022@19:30:26","Mozilla/5.0 (Windows NT 10.0; Win64; x64) AppleWebKit/537.36 (KHTML, like Gecko) Chrome/99.0.4844.82 Safari/537.36",1536,864,1536,746,"main",1002913,122,15,14,"EM","Moderate","Easier than Reference","F","k","safeDeck","riskyDeck",0,-28,-14,"right",1,0,32,"absent","riskyDeck",863,3064,1,0
"1ngp7r1zkjh",831,266.176857005447,13398,"21/03/2022@19:30:26","Mozilla/5.0 (Windows NT 10.0; Win64; x64) AppleWebKit/537.36 (KHTML, like Gecko) Chrome/99.0.4844.82 Safari/537.36",1536,864,1536,746,"main",1002913,123,15,14,"HM","Moderate","Harder than Reference","D","j","riskyDeck","safeDeck",0,14,7,"left",1,0,46,"present","riskyDeck",766,2363,-1,0
"1ngp7r1zkjh",831,266.176857005447,13398,"21/03/2022@19:30:26","Mozilla/5.0 (Windows NT 10.0; Win64; x64) AppleWebKit/537.36 (KHTML, like Gecko) Chrome/99.0.4844.82 Safari/537.36",1536,864,1536,746,"main",1002913,124,15,14,"HE","Extreme","Harder than Reference","D","j","riskyDeck","safeDeck",0,28,14,"left",1,0,60,"present","riskyDeck",764,2189,-1,0
"1ngp7r1zkjh",831,266.176857005447,13398,"21/03/2022@19:30:26","Mozilla/5.0 (Windows NT 10.0; Win64; x64) AppleWebKit/537.36 (KHTML, like Gecko) Chrome/99.0.4844.82 Safari/537.36",1536,864,1536,746,"main",1002913,125,15,14,"EE","Extreme","Easier than Reference","F","j","safeDeck","riskyDeck",-14,0,-7,"right",1,0,18,"present","riskyDeck",655,1161,1,0
"1ngp7r1zkjh",831,266.176857005447,13398,"21/03/2022@19:30:26","Mozilla/5.0 (Windows NT 10.0; Win64; x64) AppleWebKit/537.36 (KHTML, like Gecko) Chrome/99.0.4844.82 Safari/537.36",1536,864,1536,746,"main",1002913,126,15,14,"EM","Moderate","Easier than Reference","F","j","safeDeck","riskyDeck",-28,0,-14,"right",1,0,32,"present","riskyDeck",757,657,1,0
"1ngp7r1zkjh",831,266.176857005447,13398,"21/03/2022@19:30:26","Mozilla/5.0 (Windows NT 10.0; Win64; x64) AppleWebKit/537.36 (KHTML, like Gecko) Chrome/99.0.4844.82 Safari/537.36",1536,864,1536,746,"main",1002913,127,16,14,"HM","Moderate","Harder than Reference","F","k","safeDeck","riskyDeck",0,14,7,"right",1,0,32,"absent","riskyDeck",771,2533,1,0
"1ngp7r1zkjh",831,266.176857005447,13398,"21/03/2022@19:30:26","Mozilla/5.0 (Windows NT 10.0; Win64; x64) AppleWebKit/537.36 (KHTML, like Gecko) Chrome/99.0.4844.82 Safari/537.36",1536,864,1536,746,"main",1002913,128,16,15,"HE","Extreme","Harder than Reference","F","k","safeDeck","riskyDeck",28,0,14,"right",1,0,32,"absent","riskyDeck",516,2436,1,0
"1ngp7r1zkjh",831,266.176857005447,13398,"21/03/2022@19:30:26","Mozilla/5.0 (Windows NT 10.0; Win64; x64) AppleWebKit/537.36 (KHTML, like Gecko) Chrome/99.0.4844.82 Safari/537.36",1536,864,1536,746,"main",1002913,129,16,15,"HE","Extreme","Harder than Reference","F","k","safeDeck","riskyDeck",0,28,14,"right",1,0,60,"absent","riskyDeck",699,5670,1,0
"1ngp7r1zkjh",831,266.176857005447,13398,"21/03/2022@19:30:26","Mozilla/5.0 (Windows NT 10.0; Win64; x64) AppleWebKit/537.36 (KHTML, like Gecko) Chrome/99.0.4844.82 Safari/537.36",1536,864,1536,746,"main",1002913,130,16,15,"HM","Moderate","Harder than Reference","F","j","riskyDeck","safeDeck",0,14,7,"right",0,0,39,"present","safeDeck",605,2354,1,1
"1ngp7r1zkjh",831,266.176857005447,13398,"21/03/2022@19:30:26","Mozilla/5.0 (Windows NT 10.0; Win64; x64) AppleWebKit/537.36 (KHTML, like Gecko) Chrome/99.0.4844.82 Safari/537.36",1536,864,1536,746,"main",1002913,131,16,15,"EE","Extreme","Easier than Reference","D","j","riskyDeck","safeDeck",0,-14,-7,"left",1,0,18,"present","riskyDeck",539,1359,-1,0
"1ngp7r1zkjh",831,266.176857005447,13398,"21/03/2022@19:30:26","Mozilla/5.0 (Windows NT 10.0; Win64; x64) AppleWebKit/537.36 (KHTML, like Gecko) Chrome/99.0.4844.82 Safari/537.36",1536,864,1536,746,"main",1002913,132,16,15,"EM","Moderate","Easier than Reference","D","k","riskyDeck","safeDeck",-28,0,-14,"left",1,0,4,"absent","riskyDeck",472,773,-1,0
"1ngp7r1zkjh",831,266.176857005447,13398,"21/03/2022@19:30:26","Mozilla/5.0 (Windows NT 10.0; Win64; x64) AppleWebKit/537.36 (KHTML, like Gecko) Chrome/99.0.4844.82 Safari/537.36",1536,864,1536,746,"main",1002913,133,16,15,"HE","Extreme","Harder than Reference","D","j","riskyDeck","safeDeck",0,28,14,"left",1,0,32,"present","riskyDeck",542,1014,-1,0
"1ngp7r1zkjh",831,266.176857005447,13398,"21/03/2022@19:30:26","Mozilla/5.0 (Windows NT 10.0; Win64; x64) AppleWebKit/537.36 (KHTML, like Gecko) Chrome/99.0.4844.82 Safari/537.36",1536,864,1536,746,"main",1002913,134,16,15,"HM","Moderate","Harder than Reference","D","k","riskyDeck","safeDeck",0,14,7,"left",1,0,32,"absent","riskyDeck",486,2727,-1,0
"1ngp7r1zkjh",831,266.176857005447,13398,"21/03/2022@19:30:26","Mozilla/5.0 (Windows NT 10.0; Win64; x64) AppleWebKit/537.36 (KHTML, like Gecko) Chrome/99.0.4844.82 Safari/537.36",1536,864,1536,746,"main",1002913,135,16,15,"EM","Moderate","Easier than Reference","D","k","riskyDeck","safeDeck",-28,0,-14,"left",1,0,4,"absent","riskyDeck",632,631,-1,0
"1ngp7r1zkjh",831,266.176857005447,13398,"21/03/2022@19:30:26","Mozilla/5.0 (Windows NT 10.0; Win64; x64) AppleWebKit/537.36 (KHTML, like Gecko) Chrome/99.0.4844.82 Safari/537.36",1536,864,1536,746,"main",1002913,136,16,15,"EE","Extreme","Easier than Reference","F","k","safeDeck","riskyDeck",-14,0,-7,"right",1,0,32,"absent","riskyDeck",721,3719,1,0
"1ngp7r1zkjh",831,266.176857005447,13398,"21/03/2022@19:30:26","Mozilla/5.0 (Windows NT 10.0; Win64; x64) AppleWebKit/537.36 (KHTML, like Gecko) Chrome/99.0.4844.82 Safari/537.36",1536,864,1536,746,"main",1002913,137,16,15,"EM","Moderate","Easier than Reference","F","j","safeDeck","riskyDeck",0,-28,-14,"right",1,0,32,"present","riskyDeck",752,1978,1,0
"1ngp7r1zkjh",831,266.176857005447,13398,"21/03/2022@19:30:26","Mozilla/5.0 (Windows NT 10.0; Win64; x64) AppleWebKit/537.36 (KHTML, like Gecko) Chrome/99.0.4844.82 Safari/537.36",1536,864,1536,746,"main",1002913,138,16,15,"HM","Moderate","Harder than Reference","D","j","safeDeck","riskyDeck",14,0,7,"left",0,0,39,"present","safeDeck",1059,4379,-1,1
"1ngp7r1zkjh",831,266.176857005447,13398,"21/03/2022@19:30:26","Mozilla/5.0 (Windows NT 10.0; Win64; x64) AppleWebKit/537.36 (KHTML, like Gecko) Chrome/99.0.4844.82 Safari/537.36",1536,864,1536,746,"main",1002913,139,17,15,"HE","Extreme","Harder than Reference","D","j","riskyDeck","safeDeck",28,0,14,"left",1,0,60,"present","riskyDeck",692,4962,-1,0
"1ngp7r1zkjh",831,266.176857005447,13398,"21/03/2022@19:30:26","Mozilla/5.0 (Windows NT 10.0; Win64; x64) AppleWebKit/537.36 (KHTML, like Gecko) Chrome/99.0.4844.82 Safari/537.36",1536,864,1536,746,"main",1002913,140,17,16,"EE","Extreme","Easier than Reference","D","j","riskyDeck","safeDeck",-14,0,-7,"left",1,0,18,"present","riskyDeck",625,845,-1,0
