"subject","choice_rt_m","choice_rt_sd","sona_id","curTime","userAgent","screenWidth","screenHeight","windowWidth","windowHeight","phase","phase_run_time","trial","exp_runtime_mins","phase_runtime_mins","condition","magnitude","direction","choice_response_key","search_response_key","left_deck_id","right_deck_id","risky_deck_outcome_top","risky_deck_outcome_bottom","safe_deck_outcome","selected_deck_location","selectedRiskyDeck","error","n_stimuli","present_or_absent","chosenDeckId","choice_rt","search_rt","selected_deck_location_num","ssd"
"1ngp7r1zkjh",831,266.176857005447,13398,"21/03/2022@19:30:26","Mozilla/5.0 (Windows NT 10.0; Win64; x64) AppleWebKit/537.36 (KHTML, like Gecko) Chrome/99.0.4844.82 Safari/537.36",1536,864,1536,746,"main",1002913,2,4,3,"EE","Extreme","Easier than Reference","F","k","safeDeck","riskyDeck",-14,0,-7,"right",1,0,18,"absent","riskyDeck",846,3062,1,0
"1ngp7r1zkjh",831,266.176857005447,13398,"21/03/2022@19:30:26","Mozilla/5.0 (Windows NT 10.0; Win64; x64) AppleWebKit/537.36 (KHTML, like Gecko) Chrome/99.0.4844.82 Safari/537.36",1536,864,1536,746,"main",1002913,4,4,3,"HE","Extreme","Harder than Reference","D","k","riskyDeck","safeDeck",0,28,14,"left",1,0,60,"absent","riskyDeck",1024,6313,-1,0
"1ngp7r1zkjh",831,266.176857005447,13398,"21/03/2022@19:30:26","Mozilla/5.0 (Windows NT 10.0; Win64; x64) AppleWebKit/537.36 (KHTML, like Gecko) Chrome/99.0.4844.82 Safari/537.36",1536,864,1536,746,"main",1002913,5,4,3,"EM","Moderate","Easier than Reference","F","j","safeDeck","riskyDeck",0,-28,-14,"right",1,0,4,"present","riskyDeck",978,1136,1,0
"1ngp7r1zkjh",831,266.176857005447,13398,"21/03/2022@19:30:26","Mozilla/5.0 (Windows NT 10.0; Win64; x64) AppleWebKit/537.36 (KHTML, like Gecko) Chrome/99.0.4844.82 Safari/537.36",1536,864,1536,746,"main",1002913,7,4,3,"EE","Extreme","Easier than Reference","D","j","riskyDeck","safeDeck",0,-14,-7,"left",1,0,18,"present","riskyDeck",1214,900,-1,0
"1ngp7r1zkjh",831,266.176857005447,13398,"21/03/2022@19:30:26","Mozilla/5.0 (Windows NT 10.0; Win64; x64) AppleWebKit/537.36 (KHTML, like Gecko) Chrome/99.0.4844.82 Safari/537.36",1536,864,1536,746,"main",1002913,8,4,3,"HM","Moderate","Harder than Reference","F","j","safeDeck","riskyDeck",0,14,7,"right",1,0,32,"present","riskyDeck",1187,2460,1,0
"1ngp7r1zkjh",831,266.176857005447,13398,"21/03/2022@19:30:26","Mozilla/5.0 (Windows NT 10.0; Win64; x64) AppleWebKit/537.36 (KHTML, like Gecko) Chrome/99.0.4844.82 Safari/537.36",1536,864,1536,746,"main",1002913,9,4,3,"HM","Moderate","Harder than Reference","D","j","riskyDeck","safeDeck",14,0,7,"left",1,0,32,"present","riskyDeck",948,1130,-1,0
"1ngp7r1zkjh",831,266.176857005447,13398,"21/03/2022@19:30:26","Mozilla/5.0 (Windows NT 10.0; Win64; x64) AppleWebKit/537.36 (KHTML, like Gecko) Chrome/99.0.4844.82 Safari/537.36",1536,864,1536,746,"main",1002913,10,4,3,"EM","Moderate","Easier than Reference","F","j","safeDeck","riskyDeck",0,-28,-14,"right",1,0,4,"present","riskyDeck",828,596,1,0
"1ngp7r1zkjh",831,266.176857005447,13398,"21/03/2022@19:30:26","Mozilla/5.0 (Windows NT 10.0; Win64; x64) AppleWebKit/537.36 (KHTML, like Gecko) Chrome/99.0.4844.82 Safari/537.36",1536,864,1536,746,"main",1002913,11,5,4,"EE","Extreme","Easier than Reference","F","k","safeDeck","riskyDeck",-14,0,-7,"right",1,0,18,"absent","riskyDeck",946,3280,1,0
"1ngp7r1zkjh",831,266.176857005447,13398,"21/03/2022@19:30:26","Mozilla/5.0 (Windows NT 10.0; Win64; x64) AppleWebKit/537.36 (KHTML, like Gecko) Chrome/99.0.4844.82 Safari/537.36",1536,864,1536,746,"main",1002913,12,5,4,"HE","Extreme","Harder than Reference","D","k","riskyDeck","safeDeck",0,28,14,"left",1,0,60,"absent","riskyDeck",988,6386,-1,0
"1ngp7r1zkjh",831,266.176857005447,13398,"21/03/2022@19:30:26","Mozilla/5.0 (Windows NT 10.0; Win64; x64) AppleWebKit/537.36 (KHTML, like Gecko) Chrome/99.0.4844.82 Safari/537.36",1536,864,1536,746,"main",1002913,13,5,4,"EE","Extreme","Easier than Reference","D","k","riskyDeck","safeDeck",-14,0,-7,"left",1,0,32,"absent","riskyDeck",872,4035,-1,0
"1ngp7r1zkjh",831,266.176857005447,13398,"21/03/2022@19:30:26","Mozilla/5.0 (Windows NT 10.0; Win64; x64) AppleWebKit/537.36 (KHTML, like Gecko) Chrome/99.0.4844.82 Safari/537.36",1536,864,1536,746,"main",1002913,14,5,4,"EM","Moderate","Easier than Reference","F","k","safeDeck","riskyDeck",-28,0,-14,"right",1,0,4,"absent","riskyDeck",872,849,1,0
"1ngp7r1zkjh",831,266.176857005447,13398,"21/03/2022@19:30:26","Mozilla/5.0 (Windows NT 10.0; Win64; x64) AppleWebKit/537.36 (KHTML, like Gecko) Chrome/99.0.4844.82 Safari/537.36",1536,864,1536,746,"main",1002913,15,5,4,"HM","Moderate","Harder than Reference","D","k","riskyDeck","safeDeck",0,14,7,"left",1,0,46,"absent","riskyDeck",1146,4524,-1,0
"1ngp7r1zkjh",831,266.176857005447,13398,"21/03/2022@19:30:26","Mozilla/5.0 (Windows NT 10.0; Win64; x64) AppleWebKit/537.36 (KHTML, like Gecko) Chrome/99.0.4844.82 Safari/537.36",1536,864,1536,746,"main",1002913,16,5,4,"HE","Extreme","Harder than Reference","D","j","riskyDeck","safeDeck",28,0,14,"left",1,0,32,"present","riskyDeck",941,1768,-1,0
"1ngp7r1zkjh",831,266.176857005447,13398,"21/03/2022@19:30:26","Mozilla/5.0 (Windows NT 10.0; Win64; x64) AppleWebKit/537.36 (KHTML, like Gecko) Chrome/99.0.4844.82 Safari/537.36",1536,864,1536,746,"main",1002913,18,5,4,"EE","Extreme","Easier than Reference","D","k","riskyDeck","safeDeck",-14,0,-7,"left",1,0,32,"absent","riskyDeck",1044,4888,-1,0
"1ngp7r1zkjh",831,266.176857005447,13398,"21/03/2022@19:30:26","Mozilla/5.0 (Windows NT 10.0; Win64; x64) AppleWebKit/537.36 (KHTML, like Gecko) Chrome/99.0.4844.82 Safari/537.36",1536,864,1536,746,"main",1002913,19,5,4,"EM","Moderate","Easier than Reference","F","j","safeDeck","riskyDeck",0,-28,-14,"right",1,0,32,"present","riskyDeck",749,1139,1,0
"1ngp7r1zkjh",831,266.176857005447,13398,"21/03/2022@19:30:26","Mozilla/5.0 (Windows NT 10.0; Win64; x64) AppleWebKit/537.36 (KHTML, like Gecko) Chrome/99.0.4844.82 Safari/537.36",1536,864,1536,746,"main",1002913,20,6,4,"HE","Extreme","Harder than Reference","F","k","safeDeck","riskyDeck",28,0,14,"right",1,0,32,"absent","riskyDeck",847,3049,1,0
"1ngp7r1zkjh",831,266.176857005447,13398,"21/03/2022@19:30:26","Mozilla/5.0 (Windows NT 10.0; Win64; x64) AppleWebKit/537.36 (KHTML, like Gecko) Chrome/99.0.4844.82 Safari/537.36",1536,864,1536,746,"main",1002913,21,6,5,"EE","Extreme","Easier than Reference","F","k","safeDeck","riskyDeck",-14,0,-7,"right",1,0,18,"absent","riskyDeck",529,2338,1,0
"1ngp7r1zkjh",831,266.176857005447,13398,"21/03/2022@19:30:26","Mozilla/5.0 (Windows NT 10.0; Win64; x64) AppleWebKit/537.36 (KHTML, like Gecko) Chrome/99.0.4844.82 Safari/537.36",1536,864,1536,746,"main",1002913,22,6,5,"HM","Moderate","Harder than Reference","D","j","riskyDeck","safeDeck",0,14,7,"left",1,0,32,"present","riskyDeck",875,1996,-1,0
"1ngp7r1zkjh",831,266.176857005447,13398,"21/03/2022@19:30:26","Mozilla/5.0 (Windows NT 10.0; Win64; x64) AppleWebKit/537.36 (KHTML, like Gecko) Chrome/99.0.4844.82 Safari/537.36",1536,864,1536,746,"main",1002913,23,6,5,"EM","Moderate","Easier than Reference","F","k","safeDeck","riskyDeck",-28,0,-14,"right",1,0,4,"absent","riskyDeck",1006,1212,1,0
"1ngp7r1zkjh",831,266.176857005447,13398,"21/03/2022@19:30:26","Mozilla/5.0 (Windows NT 10.0; Win64; x64) AppleWebKit/537.36 (KHTML, like Gecko) Chrome/99.0.4844.82 Safari/537.36",1536,864,1536,746,"main",1002913,24,6,5,"HE","Extreme","Harder than Reference","F","k","safeDeck","riskyDeck",0,28,14,"right",1,0,60,"absent","riskyDeck",699,7347,1,0
"1ngp7r1zkjh",831,266.176857005447,13398,"21/03/2022@19:30:26","Mozilla/5.0 (Windows NT 10.0; Win64; x64) AppleWebKit/537.36 (KHTML, like Gecko) Chrome/99.0.4844.82 Safari/537.36",1536,864,1536,746,"main",1002913,25,6,5,"HE","Extreme","Harder than Reference","D","j","riskyDeck","safeDeck",0,28,14,"left",1,0,60,"present","riskyDeck",857,1480,-1,0
"1ngp7r1zkjh",831,266.176857005447,13398,"21/03/2022@19:30:26","Mozilla/5.0 (Windows NT 10.0; Win64; x64) AppleWebKit/537.36 (KHTML, like Gecko) Chrome/99.0.4844.82 Safari/537.36",1536,864,1536,746,"main",1002913,26,6,5,"EE","Extreme","Easier than Reference","F","j","safeDeck","riskyDeck",-14,0,-7,"right",1,0,32,"present","riskyDeck",858,2568,1,0
"1ngp7r1zkjh",831,266.176857005447,13398,"21/03/2022@19:30:26","Mozilla/5.0 (Windows NT 10.0; Win64; x64) AppleWebKit/537.36 (KHTML, like Gecko) Chrome/99.0.4844.82 Safari/537.36",1536,864,1536,746,"main",1002913,27,6,5,"HM","Moderate","Harder than Reference","F","j","safeDeck","riskyDeck",0,14,7,"right",1,0,46,"present","riskyDeck",682,3855,1,0
"1ngp7r1zkjh",831,266.176857005447,13398,"21/03/2022@19:30:26","Mozilla/5.0 (Windows NT 10.0; Win64; x64) AppleWebKit/537.36 (KHTML, like Gecko) Chrome/99.0.4844.82 Safari/537.36",1536,864,1536,746,"main",1002913,28,6,5,"EM","Moderate","Easier than Reference","F","k","safeDeck","riskyDeck",0,-28,-14,"right",1,0,4,"absent","riskyDeck",506,582,1,0
"1ngp7r1zkjh",831,266.176857005447,13398,"21/03/2022@19:30:26","Mozilla/5.0 (Windows NT 10.0; Win64; x64) AppleWebKit/537.36 (KHTML, like Gecko) Chrome/99.0.4844.82 Safari/537.36",1536,864,1536,746,"main",1002913,30,6,5,"HM","Moderate","Harder than Reference","F","k","safeDeck","riskyDeck",0,14,7,"right",1,0,46,"absent","riskyDeck",754,5111,1,0
"1ngp7r1zkjh",831,266.176857005447,13398,"21/03/2022@19:30:26","Mozilla/5.0 (Windows NT 10.0; Win64; x64) AppleWebKit/537.36 (KHTML, like Gecko) Chrome/99.0.4844.82 Safari/537.36",1536,864,1536,746,"main",1002913,31,7,6,"HE","Extreme","Harder than Reference","D","k","riskyDeck","safeDeck",28,0,14,"left",1,0,60,"absent","riskyDeck",1101,6039,-1,0
"1ngp7r1zkjh",831,266.176857005447,13398,"21/03/2022@19:30:26","Mozilla/5.0 (Windows NT 10.0; Win64; x64) AppleWebKit/537.36 (KHTML, like Gecko) Chrome/99.0.4844.82 Safari/537.36",1536,864,1536,746,"main",1002913,32,7,6,"EM","Moderate","Easier than Reference","D","k","riskyDeck","safeDeck",0,-28,-14,"left",1,0,4,"absent","riskyDeck",870,1364,-1,0
"1ngp7r1zkjh",831,266.176857005447,13398,"21/03/2022@19:30:26","Mozilla/5.0 (Windows NT 10.0; Win64; x64) AppleWebKit/537.36 (KHTML, like Gecko) Chrome/99.0.4844.82 Safari/537.36",1536,864,1536,746,"main",1002913,33,7,6,"EM","Moderate","Easier than Reference","D","j","riskyDeck","safeDeck",0,-28,-14,"left",1,0,4,"present","riskyDeck",901,947,-1,0
"1ngp7r1zkjh",831,266.176857005447,13398,"21/03/2022@19:30:26","Mozilla/5.0 (Windows NT 10.0; Win64; x64) AppleWebKit/537.36 (KHTML, like Gecko) Chrome/99.0.4844.82 Safari/537.36",1536,864,1536,746,"main",1002913,34,7,6,"EE","Extreme","Easier than Reference","D","k","riskyDeck","safeDeck",-14,0,-7,"left",1,0,32,"absent","riskyDeck",954,4056,-1,0
"1ngp7r1zkjh",831,266.176857005447,13398,"21/03/2022@19:30:26","Mozilla/5.0 (Windows NT 10.0; Win64; x64) AppleWebKit/537.36 (KHTML, like Gecko) Chrome/99.0.4844.82 Safari/537.36",1536,864,1536,746,"main",1002913,35,7,6,"HM","Moderate","Harder than Reference","D","j","riskyDeck","safeDeck",14,0,7,"left",1,0,46,"present","riskyDeck",936,1796,-1,0
"1ngp7r1zkjh",831,266.176857005447,13398,"21/03/2022@19:30:26","Mozilla/5.0 (Windows NT 10.0; Win64; x64) AppleWebKit/537.36 (KHTML, like Gecko) Chrome/99.0.4844.82 Safari/537.36",1536,864,1536,746,"main",1002913,36,7,6,"HE","Extreme","Harder than Reference","D","j","riskyDeck","safeDeck",28,0,14,"left",1,0,60,"present","riskyDeck",699,7099,-1,0
"1ngp7r1zkjh",831,266.176857005447,13398,"21/03/2022@19:30:26","Mozilla/5.0 (Windows NT 10.0; Win64; x64) AppleWebKit/537.36 (KHTML, like Gecko) Chrome/99.0.4844.82 Safari/537.36",1536,864,1536,746,"main",1002913,37,7,6,"EE","Extreme","Easier than Reference","F","j","safeDeck","riskyDeck",-14,0,-7,"right",1,0,18,"present","riskyDeck",935,891,1,0
"1ngp7r1zkjh",831,266.176857005447,13398,"21/03/2022@19:30:26","Mozilla/5.0 (Windows NT 10.0; Win64; x64) AppleWebKit/537.36 (KHTML, like Gecko) Chrome/99.0.4844.82 Safari/537.36",1536,864,1536,746,"main",1002913,38,7,6,"HM","Moderate","Harder than Reference","D","j","riskyDeck","safeDeck",14,0,7,"left",1,0,32,"present","riskyDeck",643,2547,-1,0
"1ngp7r1zkjh",831,266.176857005447,13398,"21/03/2022@19:30:26","Mozilla/5.0 (Windows NT 10.0; Win64; x64) AppleWebKit/537.36 (KHTML, like Gecko) Chrome/99.0.4844.82 Safari/537.36",1536,864,1536,746,"main",1002913,39,7,6,"HE","Extreme","Harder than Reference","F","j","safeDeck","riskyDeck",0,28,14,"right",1,0,32,"present","riskyDeck",1183,2790,1,0
"1ngp7r1zkjh",831,266.176857005447,13398,"21/03/2022@19:30:26","Mozilla/5.0 (Windows NT 10.0; Win64; x64) AppleWebKit/537.36 (KHTML, like Gecko) Chrome/99.0.4844.82 Safari/537.36",1536,864,1536,746,"main",1002913,40,8,6,"EM","Moderate","Easier than Reference","D","k","riskyDeck","safeDeck",0,-28,-14,"left",1,0,32,"absent","riskyDeck",820,3684,-1,0
"1ngp7r1zkjh",831,266.176857005447,13398,"21/03/2022@19:30:26","Mozilla/5.0 (Windows NT 10.0; Win64; x64) AppleWebKit/537.36 (KHTML, like Gecko) Chrome/99.0.4844.82 Safari/537.36",1536,864,1536,746,"main",1002913,41,8,7,"EE","Extreme","Easier than Reference","F","k","safeDeck","riskyDeck",0,-14,-7,"right",1,0,32,"absent","riskyDeck",649,4829,1,0
"1ngp7r1zkjh",831,266.176857005447,13398,"21/03/2022@19:30:26","Mozilla/5.0 (Windows NT 10.0; Win64; x64) AppleWebKit/537.36 (KHTML, like Gecko) Chrome/99.0.4844.82 Safari/537.36",1536,864,1536,746,"main",1002913,42,8,7,"EM","Moderate","Easier than Reference","D","j","riskyDeck","safeDeck",0,-28,-14,"left",1,0,32,"present","riskyDeck",726,3129,-1,0
"1ngp7r1zkjh",831,266.176857005447,13398,"21/03/2022@19:30:26","Mozilla/5.0 (Windows NT 10.0; Win64; x64) AppleWebKit/537.36 (KHTML, like Gecko) Chrome/99.0.4844.82 Safari/537.36",1536,864,1536,746,"main",1002913,43,8,7,"HM","Moderate","Harder than Reference","F","j","safeDeck","riskyDeck",14,0,7,"right",1,0,32,"present","riskyDeck",604,2807,1,0
"1ngp7r1zkjh",831,266.176857005447,13398,"21/03/2022@19:30:26","Mozilla/5.0 (Windows NT 10.0; Win64; x64) AppleWebKit/537.36 (KHTML, like Gecko) Chrome/99.0.4844.82 Safari/537.36",1536,864,1536,746,"main",1002913,44,8,7,"HE","Extreme","Harder than Reference","F","k","safeDeck","riskyDeck",0,28,14,"right",1,0,32,"absent","riskyDeck",885,5524,1,0
"1ngp7r1zkjh",831,266.176857005447,13398,"21/03/2022@19:30:26","Mozilla/5.0 (Windows NT 10.0; Win64; x64) AppleWebKit/537.36 (KHTML, like Gecko) Chrome/99.0.4844.82 Safari/537.36",1536,864,1536,746,"main",1002913,45,8,7,"HE","Extreme","Harder than Reference","F","j","safeDeck","riskyDeck",0,28,14,"right",1,0,60,"present","riskyDeck",692,1855,1,0
"1ngp7r1zkjh",831,266.176857005447,13398,"21/03/2022@19:30:26","Mozilla/5.0 (Windows NT 10.0; Win64; x64) AppleWebKit/537.36 (KHTML, like Gecko) Chrome/99.0.4844.82 Safari/537.36",1536,864,1536,746,"main",1002913,46,8,7,"EE","Extreme","Easier than Reference","F","j","safeDeck","riskyDeck",0,-14,-7,"right",1,0,32,"present","riskyDeck",1261,1760,1,0
"1ngp7r1zkjh",831,266.176857005447,13398,"21/03/2022@19:30:26","Mozilla/5.0 (Windows NT 10.0; Win64; x64) AppleWebKit/537.36 (KHTML, like Gecko) Chrome/99.0.4844.82 Safari/537.36",1536,864,1536,746,"main",1002913,47,8,7,"EM","Moderate","Easier than Reference","D","j","riskyDeck","safeDeck",0,-28,-14,"left",1,0,32,"present","riskyDeck",678,3293,-1,0
"1ngp7r1zkjh",831,266.176857005447,13398,"21/03/2022@19:30:26","Mozilla/5.0 (Windows NT 10.0; Win64; x64) AppleWebKit/537.36 (KHTML, like Gecko) Chrome/99.0.4844.82 Safari/537.36",1536,864,1536,746,"main",1002913,48,8,7,"HM","Moderate","Harder than Reference","F","j","safeDeck","riskyDeck",0,14,7,"right",1,0,32,"present","riskyDeck",1277,921,1,0
"1ngp7r1zkjh",831,266.176857005447,13398,"21/03/2022@19:30:26","Mozilla/5.0 (Windows NT 10.0; Win64; x64) AppleWebKit/537.36 (KHTML, like Gecko) Chrome/99.0.4844.82 Safari/537.36",1536,864,1536,746,"main",1002913,49,8,7,"EE","Extreme","Easier than Reference","D","j","riskyDeck","safeDeck",-14,0,-7,"left",1,0,32,"present","riskyDeck",699,831,-1,0
"1ngp7r1zkjh",831,266.176857005447,13398,"21/03/2022@19:30:26","Mozilla/5.0 (Windows NT 10.0; Win64; x64) AppleWebKit/537.36 (KHTML, like Gecko) Chrome/99.0.4844.82 Safari/537.36",1536,864,1536,746,"main",1002913,50,8,7,"HE","Extreme","Harder than Reference","F","k","safeDeck","riskyDeck",28,0,14,"right",1,0,60,"absent","riskyDeck",754,5126,1,0
"1ngp7r1zkjh",831,266.176857005447,13398,"21/03/2022@19:30:26","Mozilla/5.0 (Windows NT 10.0; Win64; x64) AppleWebKit/537.36 (KHTML, like Gecko) Chrome/99.0.4844.82 Safari/537.36",1536,864,1536,746,"main",1002913,51,9,7,"HM","Moderate","Harder than Reference","F","j","safeDeck","riskyDeck",0,14,7,"right",1,0,46,"present","riskyDeck",848,2027,1,0
"1ngp7r1zkjh",831,266.176857005447,13398,"21/03/2022@19:30:26","Mozilla/5.0 (Windows NT 10.0; Win64; x64) AppleWebKit/537.36 (KHTML, like Gecko) Chrome/99.0.4844.82 Safari/537.36",1536,864,1536,746,"main",1002913,52,9,8,"EM","Moderate","Easier than Reference","D","k","riskyDeck","safeDeck",-28,0,-14,"left",1,0,32,"absent","riskyDeck",1357,3753,-1,0
"1ngp7r1zkjh",831,266.176857005447,13398,"21/03/2022@19:30:26","Mozilla/5.0 (Windows NT 10.0; Win64; x64) AppleWebKit/537.36 (KHTML, like Gecko) Chrome/99.0.4844.82 Safari/537.36",1536,864,1536,746,"main",1002913,53,9,8,"EE","Extreme","Easier than Reference","F","k","safeDeck","riskyDeck",-14,0,-7,"right",1,0,32,"absent","riskyDeck",696,3425,1,0
"1ngp7r1zkjh",831,266.176857005447,13398,"21/03/2022@19:30:26","Mozilla/5.0 (Windows NT 10.0; Win64; x64) AppleWebKit/537.36 (KHTML, like Gecko) Chrome/99.0.4844.82 Safari/537.36",1536,864,1536,746,"main",1002913,54,9,8,"HM","Moderate","Harder than Reference","D","j","riskyDeck","safeDeck",14,0,7,"left",1,0,46,"present","riskyDeck",629,1256,-1,0
"1ngp7r1zkjh",831,266.176857005447,13398,"21/03/2022@19:30:26","Mozilla/5.0 (Windows NT 10.0; Win64; x64) AppleWebKit/537.36 (KHTML, like Gecko) Chrome/99.0.4844.82 Safari/537.36",1536,864,1536,746,"main",1002913,55,9,8,"EM","Moderate","Easier than Reference","F","j","safeDeck","riskyDeck",0,-28,-14,"right",1,0,4,"present","riskyDeck",636,748,1,0
"1ngp7r1zkjh",831,266.176857005447,13398,"21/03/2022@19:30:26","Mozilla/5.0 (Windows NT 10.0; Win64; x64) AppleWebKit/537.36 (KHTML, like Gecko) Chrome/99.0.4844.82 Safari/537.36",1536,864,1536,746,"main",1002913,56,9,8,"HE","Extreme","Harder than Reference","D","k","riskyDeck","safeDeck",0,28,14,"left",1,0,32,"absent","riskyDeck",615,3286,-1,0
"1ngp7r1zkjh",831,266.176857005447,13398,"21/03/2022@19:30:26","Mozilla/5.0 (Windows NT 10.0; Win64; x64) AppleWebKit/537.36 (KHTML, like Gecko) Chrome/99.0.4844.82 Safari/537.36",1536,864,1536,746,"main",1002913,57,9,8,"HE","Extreme","Harder than Reference","D","k","riskyDeck","safeDeck",0,28,14,"left",1,0,60,"absent","riskyDeck",651,6439,-1,0
"1ngp7r1zkjh",831,266.176857005447,13398,"21/03/2022@19:30:26","Mozilla/5.0 (Windows NT 10.0; Win64; x64) AppleWebKit/537.36 (KHTML, like Gecko) Chrome/99.0.4844.82 Safari/537.36",1536,864,1536,746,"main",1002913,58,9,8,"EM","Moderate","Easier than Reference","D","j","riskyDeck","safeDeck",-28,0,-14,"left",1,0,32,"present","riskyDeck",730,2080,-1,0
"1ngp7r1zkjh",831,266.176857005447,13398,"21/03/2022@19:30:26","Mozilla/5.0 (Windows NT 10.0; Win64; x64) AppleWebKit/537.36 (KHTML, like Gecko) Chrome/99.0.4844.82 Safari/537.36",1536,864,1536,746,"main",1002913,59,9,8,"EE","Extreme","Easier than Reference","D","j","riskyDeck","safeDeck",-14,0,-7,"left",1,0,32,"present","riskyDeck",1044,1807,-1,0
"1ngp7r1zkjh",831,266.176857005447,13398,"21/03/2022@19:30:26","Mozilla/5.0 (Windows NT 10.0; Win64; x64) AppleWebKit/537.36 (KHTML, like Gecko) Chrome/99.0.4844.82 Safari/537.36",1536,864,1536,746,"main",1002913,60,9,8,"HM","Moderate","Harder than Reference","F","k","safeDeck","riskyDeck",0,14,7,"right",1,0,32,"absent","riskyDeck",872,3992,1,0
"1ngp7r1zkjh",831,266.176857005447,13398,"21/03/2022@19:30:26","Mozilla/5.0 (Windows NT 10.0; Win64; x64) AppleWebKit/537.36 (KHTML, like Gecko) Chrome/99.0.4844.82 Safari/537.36",1536,864,1536,746,"main",1002913,61,9,8,"HE","Extreme","Harder than Reference","F","j","safeDeck","riskyDeck",0,28,14,"right",1,0,32,"present","riskyDeck",847,2152,1,0
"1ngp7r1zkjh",831,266.176857005447,13398,"21/03/2022@19:30:26","Mozilla/5.0 (Windows NT 10.0; Win64; x64) AppleWebKit/537.36 (KHTML, like Gecko) Chrome/99.0.4844.82 Safari/537.36",1536,864,1536,746,"main",1002913,62,10,8,"EM","Moderate","Easier than Reference","D","k","riskyDeck","safeDeck",-28,0,-14,"left",1,0,32,"absent","riskyDeck",762,2562,-1,0
"1ngp7r1zkjh",831,266.176857005447,13398,"21/03/2022@19:30:26","Mozilla/5.0 (Windows NT 10.0; Win64; x64) AppleWebKit/537.36 (KHTML, like Gecko) Chrome/99.0.4844.82 Safari/537.36",1536,864,1536,746,"main",1002913,63,10,8,"EE","Extreme","Easier than Reference","D","j","riskyDeck","safeDeck",-14,0,-7,"left",1,0,18,"present","riskyDeck",572,1173,-1,0
"1ngp7r1zkjh",831,266.176857005447,13398,"21/03/2022@19:30:26","Mozilla/5.0 (Windows NT 10.0; Win64; x64) AppleWebKit/537.36 (KHTML, like Gecko) Chrome/99.0.4844.82 Safari/537.36",1536,864,1536,746,"main",1002913,64,10,9,"HM","Moderate","Harder than Reference","D","k","riskyDeck","safeDeck",0,14,7,"left",1,0,32,"absent","riskyDeck",961,2482,-1,0
"1ngp7r1zkjh",831,266.176857005447,13398,"21/03/2022@19:30:26","Mozilla/5.0 (Windows NT 10.0; Win64; x64) AppleWebKit/537.36 (KHTML, like Gecko) Chrome/99.0.4844.82 Safari/537.36",1536,864,1536,746,"main",1002913,65,10,9,"HE","Extreme","Harder than Reference","D","j","riskyDeck","safeDeck",0,28,14,"left",1,0,32,"present","riskyDeck",631,1394,-1,0
"1ngp7r1zkjh",831,266.176857005447,13398,"21/03/2022@19:30:26","Mozilla/5.0 (Windows NT 10.0; Win64; x64) AppleWebKit/537.36 (KHTML, like Gecko) Chrome/99.0.4844.82 Safari/537.36",1536,864,1536,746,"main",1002913,66,10,9,"EE","Extreme","Easier than Reference","D","k","riskyDeck","safeDeck",-14,0,-7,"left",1,0,18,"absent","riskyDeck",679,1963,-1,0
"1ngp7r1zkjh",831,266.176857005447,13398,"21/03/2022@19:30:26","Mozilla/5.0 (Windows NT 10.0; Win64; x64) AppleWebKit/537.36 (KHTML, like Gecko) Chrome/99.0.4844.82 Safari/537.36",1536,864,1536,746,"main",1002913,67,10,9,"HM","Moderate","Harder than Reference","F","k","safeDeck","riskyDeck",14,0,7,"right",1,0,32,"absent","riskyDeck",717,3145,1,0
"1ngp7r1zkjh",831,266.176857005447,13398,"21/03/2022@19:30:26","Mozilla/5.0 (Windows NT 10.0; Win64; x64) AppleWebKit/537.36 (KHTML, like Gecko) Chrome/99.0.4844.82 Safari/537.36",1536,864,1536,746,"main",1002913,68,10,9,"EM","Moderate","Easier than Reference","F","k","safeDeck","riskyDeck",0,-28,-14,"right",1,0,4,"absent","riskyDeck",583,1095,1,0
"1ngp7r1zkjh",831,266.176857005447,13398,"21/03/2022@19:30:26","Mozilla/5.0 (Windows NT 10.0; Win64; x64) AppleWebKit/537.36 (KHTML, like Gecko) Chrome/99.0.4844.82 Safari/537.36",1536,864,1536,746,"main",1002913,69,10,9,"HM","Moderate","Harder than Reference","F","k","safeDeck","riskyDeck",14,0,7,"right",1,0,46,"absent","riskyDeck",711,3674,1,0
"1ngp7r1zkjh",831,266.176857005447,13398,"21/03/2022@19:30:26","Mozilla/5.0 (Windows NT 10.0; Win64; x64) AppleWebKit/537.36 (KHTML, like Gecko) Chrome/99.0.4844.82 Safari/537.36",1536,864,1536,746,"main",1002913,70,10,9,"EM","Moderate","Easier than Reference","F","k","safeDeck","riskyDeck",-28,0,-14,"right",1,1,32,"present","riskyDeck",627,3877,1,0
"1ngp7r1zkjh",831,266.176857005447,13398,"21/03/2022@19:30:26","Mozilla/5.0 (Windows NT 10.0; Win64; x64) AppleWebKit/537.36 (KHTML, like Gecko) Chrome/99.0.4844.82 Safari/537.36",1536,864,1536,746,"main",1002913,71,10,9,"HE","Extreme","Harder than Reference","F","j","safeDeck","riskyDeck",0,28,14,"right",1,0,32,"present","riskyDeck",742,2133,1,0
"1ngp7r1zkjh",831,266.176857005447,13398,"21/03/2022@19:30:26","Mozilla/5.0 (Windows NT 10.0; Win64; x64) AppleWebKit/537.36 (KHTML, like Gecko) Chrome/99.0.4844.82 Safari/537.36",1536,864,1536,746,"main",1002913,72,10,9,"EE","Extreme","Easier than Reference","F","k","safeDeck","riskyDeck",-14,0,-7,"right",1,0,18,"absent","riskyDeck",799,2134,1,0
"1ngp7r1zkjh",831,266.176857005447,13398,"21/03/2022@19:30:26","Mozilla/5.0 (Windows NT 10.0; Win64; x64) AppleWebKit/537.36 (KHTML, like Gecko) Chrome/99.0.4844.82 Safari/537.36",1536,864,1536,746,"main",1002913,73,10,9,"EM","Moderate","Easier than Reference","D","k","riskyDeck","safeDeck",-28,0,-14,"left",1,0,4,"absent","riskyDeck",1130,803,-1,0
"1ngp7r1zkjh",831,266.176857005447,13398,"21/03/2022@19:30:26","Mozilla/5.0 (Windows NT 10.0; Win64; x64) AppleWebKit/537.36 (KHTML, like Gecko) Chrome/99.0.4844.82 Safari/537.36",1536,864,1536,746,"main",1002913,74,11,9,"EE","Extreme","Easier than Reference","D","k","riskyDeck","safeDeck",-14,0,-7,"left",1,0,18,"absent","riskyDeck",859,3225,-1,0
"1ngp7r1zkjh",831,266.176857005447,13398,"21/03/2022@19:30:26","Mozilla/5.0 (Windows NT 10.0; Win64; x64) AppleWebKit/537.36 (KHTML, like Gecko) Chrome/99.0.4844.82 Safari/537.36",1536,864,1536,746,"main",1002913,75,11,9,"HM","Moderate","Harder than Reference","D","j","riskyDeck","safeDeck",14,0,7,"left",1,0,32,"present","riskyDeck",582,1004,-1,0
"1ngp7r1zkjh",831,266.176857005447,13398,"21/03/2022@19:30:26","Mozilla/5.0 (Windows NT 10.0; Win64; x64) AppleWebKit/537.36 (KHTML, like Gecko) Chrome/99.0.4844.82 Safari/537.36",1536,864,1536,746,"main",1002913,76,11,10,"HE","Extreme","Harder than Reference","D","k","riskyDeck","safeDeck",0,28,14,"left",1,0,60,"absent","riskyDeck",960,6381,-1,0
"1ngp7r1zkjh",831,266.176857005447,13398,"21/03/2022@19:30:26","Mozilla/5.0 (Windows NT 10.0; Win64; x64) AppleWebKit/537.36 (KHTML, like Gecko) Chrome/99.0.4844.82 Safari/537.36",1536,864,1536,746,"main",1002913,77,11,10,"EM","Moderate","Easier than Reference","D","j","riskyDeck","safeDeck",0,-28,-14,"left",1,0,4,"present","riskyDeck",850,739,-1,0
"1ngp7r1zkjh",831,266.176857005447,13398,"21/03/2022@19:30:26","Mozilla/5.0 (Windows NT 10.0; Win64; x64) AppleWebKit/537.36 (KHTML, like Gecko) Chrome/99.0.4844.82 Safari/537.36",1536,864,1536,746,"main",1002913,78,11,10,"EE","Extreme","Easier than Reference","D","k","riskyDeck","safeDeck",-14,0,-7,"left",1,0,18,"absent","riskyDeck",724,2558,-1,0
"1ngp7r1zkjh",831,266.176857005447,13398,"21/03/2022@19:30:26","Mozilla/5.0 (Windows NT 10.0; Win64; x64) AppleWebKit/537.36 (KHTML, like Gecko) Chrome/99.0.4844.82 Safari/537.36",1536,864,1536,746,"main",1002913,79,11,10,"HM","Moderate","Harder than Reference","D","j","riskyDeck","safeDeck",0,14,7,"left",1,0,46,"present","riskyDeck",623,1435,-1,0
"1ngp7r1zkjh",831,266.176857005447,13398,"21/03/2022@19:30:26","Mozilla/5.0 (Windows NT 10.0; Win64; x64) AppleWebKit/537.36 (KHTML, like Gecko) Chrome/99.0.4844.82 Safari/537.36",1536,864,1536,746,"main",1002913,80,11,10,"HE","Extreme","Harder than Reference","D","k","riskyDeck","safeDeck",28,0,14,"left",1,0,60,"absent","riskyDeck",506,6832,-1,0
"1ngp7r1zkjh",831,266.176857005447,13398,"21/03/2022@19:30:26","Mozilla/5.0 (Windows NT 10.0; Win64; x64) AppleWebKit/537.36 (KHTML, like Gecko) Chrome/99.0.4844.82 Safari/537.36",1536,864,1536,746,"main",1002913,81,11,10,"EE","Extreme","Easier than Reference","D","j","safeDeck","riskyDeck",-14,0,-7,"left",0,0,25,"present","safeDeck",1067,1602,-1,1
"1ngp7r1zkjh",831,266.176857005447,13398,"21/03/2022@19:30:26","Mozilla/5.0 (Windows NT 10.0; Win64; x64) AppleWebKit/537.36 (KHTML, like Gecko) Chrome/99.0.4844.82 Safari/537.36",1536,864,1536,746,"main",1002913,82,11,10,"EM","Moderate","Easier than Reference","F","j","safeDeck","riskyDeck",0,-28,-14,"right",1,0,4,"present","riskyDeck",716,651,1,0
"1ngp7r1zkjh",831,266.176857005447,13398,"21/03/2022@19:30:26","Mozilla/5.0 (Windows NT 10.0; Win64; x64) AppleWebKit/537.36 (KHTML, like Gecko) Chrome/99.0.4844.82 Safari/537.36",1536,864,1536,746,"main",1002913,83,11,10,"HE","Extreme","Harder than Reference","F","k","safeDeck","riskyDeck",28,0,14,"right",1,0,60,"absent","riskyDeck",728,5593,1,0
"1ngp7r1zkjh",831,266.176857005447,13398,"21/03/2022@19:30:26","Mozilla/5.0 (Windows NT 10.0; Win64; x64) AppleWebKit/537.36 (KHTML, like Gecko) Chrome/99.0.4844.82 Safari/537.36",1536,864,1536,746,"main",1002913,84,12,10,"HM","Moderate","Harder than Reference","D","j","riskyDeck","safeDeck",0,14,7,"left",1,0,32,"present","riskyDeck",627,2954,-1,0
"1ngp7r1zkjh",831,266.176857005447,13398,"21/03/2022@19:30:26","Mozilla/5.0 (Windows NT 10.0; Win64; x64) AppleWebKit/537.36 (KHTML, like Gecko) Chrome/99.0.4844.82 Safari/537.36",1536,864,1536,746,"main",1002913,85,12,11,"EM","Moderate","Easier than Reference","D","j","riskyDeck","safeDeck",0,-28,-14,"left",1,0,32,"present","riskyDeck",946,3450,-1,0
"1ngp7r1zkjh",831,266.176857005447,13398,"21/03/2022@19:30:26","Mozilla/5.0 (Windows NT 10.0; Win64; x64) AppleWebKit/537.36 (KHTML, like Gecko) Chrome/99.0.4844.82 Safari/537.36",1536,864,1536,746,"main",1002913,86,12,11,"HE","Extreme","Harder than Reference","D","j","riskyDeck","safeDeck",28,0,14,"left",1,0,60,"present","riskyDeck",706,6903,-1,0
"1ngp7r1zkjh",831,266.176857005447,13398,"21/03/2022@19:30:26","Mozilla/5.0 (Windows NT 10.0; Win64; x64) AppleWebKit/537.36 (KHTML, like Gecko) Chrome/99.0.4844.82 Safari/537.36",1536,864,1536,746,"main",1002913,87,12,11,"EE","Extreme","Easier than Reference","D","j","riskyDeck","safeDeck",0,-14,-7,"left",1,0,32,"present","riskyDeck",460,820,-1,0
"1ngp7r1zkjh",831,266.176857005447,13398,"21/03/2022@19:30:26","Mozilla/5.0 (Windows NT 10.0; Win64; x64) AppleWebKit/537.36 (KHTML, like Gecko) Chrome/99.0.4844.82 Safari/537.36",1536,864,1536,746,"main",1002913,88,12,11,"HM","Moderate","Harder than Reference","F","j","safeDeck","riskyDeck",14,0,7,"right",1,0,32,"present","riskyDeck",1084,1065,1,0
"1ngp7r1zkjh",831,266.176857005447,13398,"21/03/2022@19:30:26","Mozilla/5.0 (Windows NT 10.0; Win64; x64) AppleWebKit/537.36 (KHTML, like Gecko) Chrome/99.0.4844.82 Safari/537.36",1536,864,1536,746,"main",1002913,89,12,11,"HE","Extreme","Harder than Reference","F","k","safeDeck","riskyDeck",0,28,14,"right",1,0,32,"absent","riskyDeck",1317,4903,1,0
"1ngp7r1zkjh",831,266.176857005447,13398,"21/03/2022@19:30:26","Mozilla/5.0 (Windows NT 10.0; Win64; x64) AppleWebKit/537.36 (KHTML, like Gecko) Chrome/99.0.4844.82 Safari/537.36",1536,864,1536,746,"main",1002913,90,12,11,"EM","Moderate","Easier than Reference","F","k","safeDeck","riskyDeck",-28,0,-14,"right",1,0,4,"absent","riskyDeck",833,1432,1,0
"1ngp7r1zkjh",831,266.176857005447,13398,"21/03/2022@19:30:26","Mozilla/5.0 (Windows NT 10.0; Win64; x64) AppleWebKit/537.36 (KHTML, like Gecko) Chrome/99.0.4844.82 Safari/537.36",1536,864,1536,746,"main",1002913,91,12,11,"HM","Moderate","Harder than Reference","F","k","safeDeck","riskyDeck",14,0,7,"right",1,0,32,"absent","riskyDeck",683,4455,1,0
"1ngp7r1zkjh",831,266.176857005447,13398,"21/03/2022@19:30:26","Mozilla/5.0 (Windows NT 10.0; Win64; x64) AppleWebKit/537.36 (KHTML, like Gecko) Chrome/99.0.4844.82 Safari/537.36",1536,864,1536,746,"main",1002913,92,12,11,"EE","Extreme","Easier than Reference","D","j","riskyDeck","safeDeck",0,-14,-7,"left",1,0,32,"present","riskyDeck",809,1169,-1,0
"1ngp7r1zkjh",831,266.176857005447,13398,"21/03/2022@19:30:26","Mozilla/5.0 (Windows NT 10.0; Win64; x64) AppleWebKit/537.36 (KHTML, like Gecko) Chrome/99.0.4844.82 Safari/537.36",1536,864,1536,746,"main",1002913,93,12,11,"EM","Moderate","Easier than Reference","D","j","riskyDeck","safeDeck",0,-28,-14,"left",1,0,32,"present","riskyDeck",726,1306,-1,0
"1ngp7r1zkjh",831,266.176857005447,13398,"21/03/2022@19:30:26","Mozilla/5.0 (Windows NT 10.0; Win64; x64) AppleWebKit/537.36 (KHTML, like Gecko) Chrome/99.0.4844.82 Safari/537.36",1536,864,1536,746,"main",1002913,94,12,11,"HM","Moderate","Harder than Reference","D","k","riskyDeck","safeDeck",0,14,7,"left",1,0,46,"absent","riskyDeck",731,4888,-1,0
"1ngp7r1zkjh",831,266.176857005447,13398,"21/03/2022@19:30:26","Mozilla/5.0 (Windows NT 10.0; Win64; x64) AppleWebKit/537.36 (KHTML, like Gecko) Chrome/99.0.4844.82 Safari/537.36",1536,864,1536,746,"main",1002913,95,13,11,"EE","Extreme","Easier than Reference","F","j","safeDeck","riskyDeck",-14,0,-7,"right",1,0,18,"present","riskyDeck",630,1578,1,0
"1ngp7r1zkjh",831,266.176857005447,13398,"21/03/2022@19:30:26","Mozilla/5.0 (Windows NT 10.0; Win64; x64) AppleWebKit/537.36 (KHTML, like Gecko) Chrome/99.0.4844.82 Safari/537.36",1536,864,1536,746,"main",1002913,96,13,12,"HE","Extreme","Harder than Reference","D","j","riskyDeck","safeDeck",28,0,14,"left",1,0,60,"present","riskyDeck",514,893,-1,0
"1ngp7r1zkjh",831,266.176857005447,13398,"21/03/2022@19:30:26","Mozilla/5.0 (Windows NT 10.0; Win64; x64) AppleWebKit/537.36 (KHTML, like Gecko) Chrome/99.0.4844.82 Safari/537.36",1536,864,1536,746,"main",1002913,97,13,12,"HE","Extreme","Harder than Reference","D","j","riskyDeck","safeDeck",0,28,14,"left",1,0,60,"present","riskyDeck",731,6807,-1,0
"1ngp7r1zkjh",831,266.176857005447,13398,"21/03/2022@19:30:26","Mozilla/5.0 (Windows NT 10.0; Win64; x64) AppleWebKit/537.36 (KHTML, like Gecko) Chrome/99.0.4844.82 Safari/537.36",1536,864,1536,746,"main",1002913,98,13,12,"EE","Extreme","Easier than Reference","F","j","safeDeck","riskyDeck",-14,0,-7,"right",1,0,18,"present","riskyDeck",815,1156,1,0
"1ngp7r1zkjh",831,266.176857005447,13398,"21/03/2022@19:30:26","Mozilla/5.0 (Windows NT 10.0; Win64; x64) AppleWebKit/537.36 (KHTML, like Gecko) Chrome/99.0.4844.82 Safari/537.36",1536,864,1536,746,"main",1002913,99,13,12,"EM","Moderate","Easier than Reference","F","k","safeDeck","riskyDeck",-28,0,-14,"right",1,0,32,"absent","riskyDeck",794,3204,1,0
"1ngp7r1zkjh",831,266.176857005447,13398,"21/03/2022@19:30:26","Mozilla/5.0 (Windows NT 10.0; Win64; x64) AppleWebKit/537.36 (KHTML, like Gecko) Chrome/99.0.4844.82 Safari/537.36",1536,864,1536,746,"main",1002913,100,13,12,"HM","Moderate","Harder than Reference","D","k","riskyDeck","safeDeck",14,0,7,"left",1,1,46,"present","riskyDeck",721,5259,-1,0
"1ngp7r1zkjh",831,266.176857005447,13398,"21/03/2022@19:30:26","Mozilla/5.0 (Windows NT 10.0; Win64; x64) AppleWebKit/537.36 (KHTML, like Gecko) Chrome/99.0.4844.82 Safari/537.36",1536,864,1536,746,"main",1002913,101,13,12,"EE","Extreme","Easier than Reference","D","k","riskyDeck","safeDeck",0,-14,-7,"left",1,0,18,"absent","riskyDeck",708,2076,-1,0
"1ngp7r1zkjh",831,266.176857005447,13398,"21/03/2022@19:30:26","Mozilla/5.0 (Windows NT 10.0; Win64; x64) AppleWebKit/537.36 (KHTML, like Gecko) Chrome/99.0.4844.82 Safari/537.36",1536,864,1536,746,"main",1002913,102,13,12,"EM","Moderate","Easier than Reference","D","k","riskyDeck","safeDeck",-28,0,-14,"left",1,0,4,"absent","riskyDeck",618,787,-1,0
"1ngp7r1zkjh",831,266.176857005447,13398,"21/03/2022@19:30:26","Mozilla/5.0 (Windows NT 10.0; Win64; x64) AppleWebKit/537.36 (KHTML, like Gecko) Chrome/99.0.4844.82 Safari/537.36",1536,864,1536,746,"main",1002913,103,13,12,"HM","Moderate","Harder than Reference","F","k","safeDeck","riskyDeck",14,0,7,"right",1,0,46,"absent","riskyDeck",604,6420,1,0
"1ngp7r1zkjh",831,266.176857005447,13398,"21/03/2022@19:30:26","Mozilla/5.0 (Windows NT 10.0; Win64; x64) AppleWebKit/537.36 (KHTML, like Gecko) Chrome/99.0.4844.82 Safari/537.36",1536,864,1536,746,"main",1002913,104,13,12,"HE","Extreme","Harder than Reference","D","j","riskyDeck","safeDeck",28,0,14,"left",1,0,60,"present","riskyDeck",607,1117,-1,0
"1ngp7r1zkjh",831,266.176857005447,13398,"21/03/2022@19:30:26","Mozilla/5.0 (Windows NT 10.0; Win64; x64) AppleWebKit/537.36 (KHTML, like Gecko) Chrome/99.0.4844.82 Safari/537.36",1536,864,1536,746,"main",1002913,105,14,12,"HM","Moderate","Harder than Reference","F","k","safeDeck","riskyDeck",14,0,7,"right",1,0,46,"absent","riskyDeck",691,4502,1,0
"1ngp7r1zkjh",831,266.176857005447,13398,"21/03/2022@19:30:26","Mozilla/5.0 (Windows NT 10.0; Win64; x64) AppleWebKit/537.36 (KHTML, like Gecko) Chrome/99.0.4844.82 Safari/537.36",1536,864,1536,746,"main",1002913,106,14,13,"EE","Extreme","Easier than Reference","F","j","safeDeck","riskyDeck",0,-14,-7,"right",1,0,32,"present","riskyDeck",683,761,1,0
"1ngp7r1zkjh",831,266.176857005447,13398,"21/03/2022@19:30:26","Mozilla/5.0 (Windows NT 10.0; Win64; x64) AppleWebKit/537.36 (KHTML, like Gecko) Chrome/99.0.4844.82 Safari/537.36",1536,864,1536,746,"main",1002913,107,14,13,"HE","Extreme","Harder than Reference","F","j","safeDeck","riskyDeck",0,28,14,"right",1,0,32,"present","riskyDeck",632,743,1,0
"1ngp7r1zkjh",831,266.176857005447,13398,"21/03/2022@19:30:26","Mozilla/5.0 (Windows NT 10.0; Win64; x64) AppleWebKit/537.36 (KHTML, like Gecko) Chrome/99.0.4844.82 Safari/537.36",1536,864,1536,746,"main",1002913,108,14,13,"EM","Moderate","Easier than Reference","F","k","safeDeck","riskyDeck",0,-28,-14,"right",1,0,32,"absent","riskyDeck",1191,4258,1,0
"1ngp7r1zkjh",831,266.176857005447,13398,"21/03/2022@19:30:26","Mozilla/5.0 (Windows NT 10.0; Win64; x64) AppleWebKit/537.36 (KHTML, like Gecko) Chrome/99.0.4844.82 Safari/537.36",1536,864,1536,746,"main",1002913,109,14,13,"EM","Moderate","Easier than Reference","F","j","safeDeck","riskyDeck",-28,0,-14,"right",1,0,4,"present","riskyDeck",644,563,1,0
"1ngp7r1zkjh",831,266.176857005447,13398,"21/03/2022@19:30:26","Mozilla/5.0 (Windows NT 10.0; Win64; x64) AppleWebKit/537.36 (KHTML, like Gecko) Chrome/99.0.4844.82 Safari/537.36",1536,864,1536,746,"main",1002913,110,14,13,"EE","Extreme","Easier than Reference","F","j","safeDeck","riskyDeck",0,-14,-7,"right",1,0,18,"present","riskyDeck",901,953,1,0
"1ngp7r1zkjh",831,266.176857005447,13398,"21/03/2022@19:30:26","Mozilla/5.0 (Windows NT 10.0; Win64; x64) AppleWebKit/537.36 (KHTML, like Gecko) Chrome/99.0.4844.82 Safari/537.36",1536,864,1536,746,"main",1002913,111,14,13,"HE","Extreme","Harder than Reference","D","j","riskyDeck","safeDeck",0,28,14,"left",1,0,60,"present","riskyDeck",1180,1492,-1,0
"1ngp7r1zkjh",831,266.176857005447,13398,"21/03/2022@19:30:26","Mozilla/5.0 (Windows NT 10.0; Win64; x64) AppleWebKit/537.36 (KHTML, like Gecko) Chrome/99.0.4844.82 Safari/537.36",1536,864,1536,746,"main",1002913,112,14,13,"HM","Moderate","Harder than Reference","D","k","riskyDeck","safeDeck",0,14,7,"left",1,0,46,"absent","riskyDeck",638,4493,-1,0
"1ngp7r1zkjh",831,266.176857005447,13398,"21/03/2022@19:30:26","Mozilla/5.0 (Windows NT 10.0; Win64; x64) AppleWebKit/537.36 (KHTML, like Gecko) Chrome/99.0.4844.82 Safari/537.36",1536,864,1536,746,"main",1002913,113,14,13,"EE","Extreme","Easier than Reference","D","k","riskyDeck","safeDeck",0,-14,-7,"left",1,0,32,"absent","riskyDeck",640,3273,-1,0
"1ngp7r1zkjh",831,266.176857005447,13398,"21/03/2022@19:30:26","Mozilla/5.0 (Windows NT 10.0; Win64; x64) AppleWebKit/537.36 (KHTML, like Gecko) Chrome/99.0.4844.82 Safari/537.36",1536,864,1536,746,"main",1002913,114,14,13,"HE","Extreme","Harder than Reference","D","j","riskyDeck","safeDeck",0,28,14,"left",1,0,60,"present","riskyDeck",747,5119,-1,0
"1ngp7r1zkjh",831,266.176857005447,13398,"21/03/2022@19:30:26","Mozilla/5.0 (Windows NT 10.0; Win64; x64) AppleWebKit/537.36 (KHTML, like Gecko) Chrome/99.0.4844.82 Safari/537.36",1536,864,1536,746,"main",1002913,115,14,13,"EM","Moderate","Easier than Reference","F","k","safeDeck","riskyDeck",-28,0,-14,"right",1,0,32,"absent","riskyDeck",825,3373,1,0
"1ngp7r1zkjh",831,266.176857005447,13398,"21/03/2022@19:30:26","Mozilla/5.0 (Windows NT 10.0; Win64; x64) AppleWebKit/537.36 (KHTML, like Gecko) Chrome/99.0.4844.82 Safari/537.36",1536,864,1536,746,"main",1002913,116,15,13,"HM","Moderate","Harder than Reference","D","j","riskyDeck","safeDeck",14,0,7,"left",1,0,32,"present","riskyDeck",849,2946,-1,0
"1ngp7r1zkjh",831,266.176857005447,13398,"21/03/2022@19:30:26","Mozilla/5.0 (Windows NT 10.0; Win64; x64) AppleWebKit/537.36 (KHTML, like Gecko) Chrome/99.0.4844.82 Safari/537.36",1536,864,1536,746,"main",1002913,117,15,14,"EE","Extreme","Easier than Reference","D","j","riskyDeck","safeDeck",-14,0,-7,"left",1,0,18,"present","riskyDeck",812,1484,-1,0
"1ngp7r1zkjh",831,266.176857005447,13398,"21/03/2022@19:30:26","Mozilla/5.0 (Windows NT 10.0; Win64; x64) AppleWebKit/537.36 (KHTML, like Gecko) Chrome/99.0.4844.82 Safari/537.36",1536,864,1536,746,"main",1002913,118,15,14,"HE","Extreme","Harder than Reference","F","k","safeDeck","riskyDeck",28,0,14,"right",1,0,32,"absent","riskyDeck",815,4297,1,0
"1ngp7r1zkjh",831,266.176857005447,13398,"21/03/2022@19:30:26","Mozilla/5.0 (Windows NT 10.0; Win64; x64) AppleWebKit/537.36 (KHTML, like Gecko) Chrome/99.0.4844.82 Safari/537.36",1536,864,1536,746,"main",1002913,119,15,14,"HM","Moderate","Harder than Reference","D","k","riskyDeck","safeDeck",14,0,7,"left",1,0,46,"absent","riskyDeck",711,5775,-1,0
"1ngp7r1zkjh",831,266.176857005447,13398,"21/03/2022@19:30:26","Mozilla/5.0 (Windows NT 10.0; Win64; x64) AppleWebKit/537.36 (KHTML, like Gecko) Chrome/99.0.4844.82 Safari/537.36",1536,864,1536,746,"main",1002913,120,15,14,"EM","Moderate","Easier than Reference","F","j","riskyDeck","safeDeck",0,-28,-14,"right",0,0,18,"present","safeDeck",910,860,1,1
"1ngp7r1zkjh",831,266.176857005447,13398,"21/03/2022@19:30:26","Mozilla/5.0 (Windows NT 10.0; Win64; x64) AppleWebKit/537.36 (KHTML, like Gecko) Chrome/99.0.4844.82 Safari/537.36",1536,864,1536,746,"main",1002913,122,15,14,"EM","Moderate","Easier than Reference","F","k","safeDeck","riskyDeck",0,-28,-14,"right",1,0,32,"absent","riskyDeck",863,3064,1,0
"1ngp7r1zkjh",831,266.176857005447,13398,"21/03/2022@19:30:26","Mozilla/5.0 (Windows NT 10.0; Win64; x64) AppleWebKit/537.36 (KHTML, like Gecko) Chrome/99.0.4844.82 Safari/537.36",1536,864,1536,746,"main",1002913,123,15,14,"HM","Moderate","Harder than Reference","D","j","riskyDeck","safeDeck",0,14,7,"left",1,0,46,"present","riskyDeck",766,2363,-1,0
"1ngp7r1zkjh",831,266.176857005447,13398,"21/03/2022@19:30:26","Mozilla/5.0 (Windows NT 10.0; Win64; x64) AppleWebKit/537.36 (KHTML, like Gecko) Chrome/99.0.4844.82 Safari/537.36",1536,864,1536,746,"main",1002913,124,15,14,"HE","Extreme","Harder than Reference","D","j","riskyDeck","safeDeck",0,28,14,"left",1,0,60,"present","riskyDeck",764,2189,-1,0
"1ngp7r1zkjh",831,266.176857005447,13398,"21/03/2022@19:30:26","Mozilla/5.0 (Windows NT 10.0; Win64; x64) AppleWebKit/537.36 (KHTML, like Gecko) Chrome/99.0.4844.82 Safari/537.36",1536,864,1536,746,"main",1002913,125,15,14,"EE","Extreme","Easier than Reference","F","j","safeDeck","riskyDeck",-14,0,-7,"right",1,0,18,"present","riskyDeck",655,1161,1,0
"1ngp7r1zkjh",831,266.176857005447,13398,"21/03/2022@19:30:26","Mozilla/5.0 (Windows NT 10.0; Win64; x64) AppleWebKit/537.36 (KHTML, like Gecko) Chrome/99.0.4844.82 Safari/537.36",1536,864,1536,746,"main",1002913,126,15,14,"EM","Moderate","Easier than Reference","F","j","safeDeck","riskyDeck",-28,0,-14,"right",1,0,32,"present","riskyDeck",757,657,1,0
"1ngp7r1zkjh",831,266.176857005447,13398,"21/03/2022@19:30:26","Mozilla/5.0 (Windows NT 10.0; Win64; x64) AppleWebKit/537.36 (KHTML, like Gecko) Chrome/99.0.4844.82 Safari/537.36",1536,864,1536,746,"main",1002913,127,16,14,"HM","Moderate","Harder than Reference","F","k","safeDeck","riskyDeck",0,14,7,"right",1,0,32,"absent","riskyDeck",771,2533,1,0
"1ngp7r1zkjh",831,266.176857005447,13398,"21/03/2022@19:30:26","Mozilla/5.0 (Windows NT 10.0; Win64; x64) AppleWebKit/537.36 (KHTML, like Gecko) Chrome/99.0.4844.82 Safari/537.36",1536,864,1536,746,"main",1002913,128,16,15,"HE","Extreme","Harder than Reference","F","k","safeDeck","riskyDeck",28,0,14,"right",1,0,32,"absent","riskyDeck",516,2436,1,0
"1ngp7r1zkjh",831,266.176857005447,13398,"21/03/2022@19:30:26","Mozilla/5.0 (Windows NT 10.0; Win64; x64) AppleWebKit/537.36 (KHTML, like Gecko) Chrome/99.0.4844.82 Safari/537.36",1536,864,1536,746,"main",1002913,129,16,15,"HE","Extreme","Harder than Reference","F","k","safeDeck","riskyDeck",0,28,14,"right",1,0,60,"absent","riskyDeck",699,5670,1,0
"1ngp7r1zkjh",831,266.176857005447,13398,"21/03/2022@19:30:26","Mozilla/5.0 (Windows NT 10.0; Win64; x64) AppleWebKit/537.36 (KHTML, like Gecko) Chrome/99.0.4844.82 Safari/537.36",1536,864,1536,746,"main",1002913,130,16,15,"HM","Moderate","Harder than Reference","F","j","riskyDeck","safeDeck",0,14,7,"right",0,0,39,"present","safeDeck",605,2354,1,1
"1ngp7r1zkjh",831,266.176857005447,13398,"21/03/2022@19:30:26","Mozilla/5.0 (Windows NT 10.0; Win64; x64) AppleWebKit/537.36 (KHTML, like Gecko) Chrome/99.0.4844.82 Safari/537.36",1536,864,1536,746,"main",1002913,131,16,15,"EE","Extreme","Easier than Reference","D","j","riskyDeck","safeDeck",0,-14,-7,"left",1,0,18,"present","riskyDeck",539,1359,-1,0
"1ngp7r1zkjh",831,266.176857005447,13398,"21/03/2022@19:30:26","Mozilla/5.0 (Windows NT 10.0; Win64; x64) AppleWebKit/537.36 (KHTML, like Gecko) Chrome/99.0.4844.82 Safari/537.36",1536,864,1536,746,"main",1002913,132,16,15,"EM","Moderate","Easier than Reference","D","k","riskyDeck","safeDeck",-28,0,-14,"left",1,0,4,"absent","riskyDeck",472,773,-1,0
"1ngp7r1zkjh",831,266.176857005447,13398,"21/03/2022@19:30:26","Mozilla/5.0 (Windows NT 10.0; Win64; x64) AppleWebKit/537.36 (KHTML, like Gecko) Chrome/99.0.4844.82 Safari/537.36",1536,864,1536,746,"main",1002913,133,16,15,"HE","Extreme","Harder than Reference","D","j","riskyDeck","safeDeck",0,28,14,"left",1,0,32,"present","riskyDeck",542,1014,-1,0
"1ngp7r1zkjh",831,266.176857005447,13398,"21/03/2022@19:30:26","Mozilla/5.0 (Windows NT 10.0; Win64; x64) AppleWebKit/537.36 (KHTML, like Gecko) Chrome/99.0.4844.82 Safari/537.36",1536,864,1536,746,"main",1002913,134,16,15,"HM","Moderate","Harder than Reference","D","k","riskyDeck","safeDeck",0,14,7,"left",1,0,32,"absent","riskyDeck",486,2727,-1,0
"1ngp7r1zkjh",831,266.176857005447,13398,"21/03/2022@19:30:26","Mozilla/5.0 (Windows NT 10.0; Win64; x64) AppleWebKit/537.36 (KHTML, like Gecko) Chrome/99.0.4844.82 Safari/537.36",1536,864,1536,746,"main",1002913,135,16,15,"EM","Moderate","Easier than Reference","D","k","riskyDeck","safeDeck",-28,0,-14,"left",1,0,4,"absent","riskyDeck",632,631,-1,0
"1ngp7r1zkjh",831,266.176857005447,13398,"21/03/2022@19:30:26","Mozilla/5.0 (Windows NT 10.0; Win64; x64) AppleWebKit/537.36 (KHTML, like Gecko) Chrome/99.0.4844.82 Safari/537.36",1536,864,1536,746,"main",1002913,136,16,15,"EE","Extreme","Easier than Reference","F","k","safeDeck","riskyDeck",-14,0,-7,"right",1,0,32,"absent","riskyDeck",721,3719,1,0
"1ngp7r1zkjh",831,266.176857005447,13398,"21/03/2022@19:30:26","Mozilla/5.0 (Windows NT 10.0; Win64; x64) AppleWebKit/537.36 (KHTML, like Gecko) Chrome/99.0.4844.82 Safari/537.36",1536,864,1536,746,"main",1002913,137,16,15,"EM","Moderate","Easier than Reference","F","j","safeDeck","riskyDeck",0,-28,-14,"right",1,0,32,"present","riskyDeck",752,1978,1,0
"1ngp7r1zkjh",831,266.176857005447,13398,"21/03/2022@19:30:26","Mozilla/5.0 (Windows NT 10.0; Win64; x64) AppleWebKit/537.36 (KHTML, like Gecko) Chrome/99.0.4844.82 Safari/537.36",1536,864,1536,746,"main",1002913,138,16,15,"HM","Moderate","Harder than Reference","D","j","safeDeck","riskyDeck",14,0,7,"left",0,0,39,"present","safeDeck",1059,4379,-1,1
"1ngp7r1zkjh",831,266.176857005447,13398,"21/03/2022@19:30:26","Mozilla/5.0 (Windows NT 10.0; Win64; x64) AppleWebKit/537.36 (KHTML, like Gecko) Chrome/99.0.4844.82 Safari/537.36",1536,864,1536,746,"main",1002913,139,17,15,"HE","Extreme","Harder than Reference","D","j","riskyDeck","safeDeck",28,0,14,"left",1,0,60,"present","riskyDeck",692,4962,-1,0
"1ngp7r1zkjh",831,266.176857005447,13398,"21/03/2022@19:30:26","Mozilla/5.0 (Windows NT 10.0; Win64; x64) AppleWebKit/537.36 (KHTML, like Gecko) Chrome/99.0.4844.82 Safari/537.36",1536,864,1536,746,"main",1002913,140,17,16,"EE","Extreme","Easier than Reference","D","j","riskyDeck","safeDeck",-14,0,-7,"left",1,0,18,"present","riskyDeck",625,845,-1,0
"1ngp7r1zkjh",831,266.176857005447,13398,"21/03/2022@19:30:26","Mozilla/5.0 (Windows NT 10.0; Win64; x64) AppleWebKit/537.36 (KHTML, like Gecko) Chrome/99.0.4844.82 Safari/537.36",1536,864,1536,746,"main",1002913,141,17,16,"HE","Extreme","Harder than Reference","D","j","riskyDeck","safeDeck",0,28,14,"left",1,0,32,"present","riskyDeck",797,2059,-1,0
"1ngp7r1zkjh",831,266.176857005447,13398,"21/03/2022@19:30:26","Mozilla/5.0 (Windows NT 10.0; Win64; x64) AppleWebKit/537.36 (KHTML, like Gecko) Chrome/99.0.4844.82 Safari/537.36",1536,864,1536,746,"main",1002913,142,17,16,"EM","Moderate","Easier than Reference","D","j","riskyDeck","safeDeck",-28,0,-14,"left",1,0,32,"present","riskyDeck",744,1722,-1,0
"1ngp7r1zkjh",831,266.176857005447,13398,"21/03/2022@19:30:26","Mozilla/5.0 (Windows NT 10.0; Win64; x64) AppleWebKit/537.36 (KHTML, like Gecko) Chrome/99.0.4844.82 Safari/537.36",1536,864,1536,746,"main",1002913,143,17,16,"HM","Moderate","Harder than Reference","D","k","riskyDeck","safeDeck",14,0,7,"left",1,0,46,"absent","riskyDeck",716,4639,-1,0
"1ngp7r1zkjh",831,266.176857005447,13398,"21/03/2022@19:30:26","Mozilla/5.0 (Windows NT 10.0; Win64; x64) AppleWebKit/537.36 (KHTML, like Gecko) Chrome/99.0.4844.82 Safari/537.36",1536,864,1536,746,"main",1002913,144,17,16,"EE","Extreme","Easier than Reference","F","k","safeDeck","riskyDeck",0,-14,-7,"right",1,0,32,"absent","riskyDeck",790,4775,1,0
"1ngp7r1zkjh",831,266.176857005447,13398,"21/03/2022@19:30:26","Mozilla/5.0 (Windows NT 10.0; Win64; x64) AppleWebKit/537.36 (KHTML, like Gecko) Chrome/99.0.4844.82 Safari/537.36",1536,864,1536,746,"main",1002913,145,17,16,"EE","Extreme","Easier than Reference","F","j","safeDeck","riskyDeck",0,-14,-7,"right",1,0,18,"present","riskyDeck",728,1452,1,0
"1ngp7r1zkjh",831,266.176857005447,13398,"21/03/2022@19:30:26","Mozilla/5.0 (Windows NT 10.0; Win64; x64) AppleWebKit/537.36 (KHTML, like Gecko) Chrome/99.0.4844.82 Safari/537.36",1536,864,1536,746,"main",1002913,147,17,16,"HM","Moderate","Harder than Reference","F","k","safeDeck","riskyDeck",14,0,7,"right",1,0,32,"absent","riskyDeck",812,3505,1,0
"1ngp7r1zkjh",831,266.176857005447,13398,"21/03/2022@19:30:26","Mozilla/5.0 (Windows NT 10.0; Win64; x64) AppleWebKit/537.36 (KHTML, like Gecko) Chrome/99.0.4844.82 Safari/537.36",1536,864,1536,746,"main",1002913,148,17,16,"HE","Extreme","Harder than Reference","F","k","safeDeck","riskyDeck",28,0,14,"right",1,0,32,"absent","riskyDeck",747,3690,1,0
"1ngp7r1zkjh",831,266.176857005447,13398,"21/03/2022@19:30:26","Mozilla/5.0 (Windows NT 10.0; Win64; x64) AppleWebKit/537.36 (KHTML, like Gecko) Chrome/99.0.4844.82 Safari/537.36",1536,864,1536,746,"main",1002913,149,17,16,"EE","Extreme","Easier than Reference","F","k","safeDeck","riskyDeck",0,-14,-7,"right",1,0,32,"absent","riskyDeck",707,3331,1,0
"1ngp7r1zkjh",831,266.176857005447,13398,"21/03/2022@19:30:26","Mozilla/5.0 (Windows NT 10.0; Win64; x64) AppleWebKit/537.36 (KHTML, like Gecko) Chrome/99.0.4844.82 Safari/537.36",1536,864,1536,746,"main",1002913,150,18,17,"HE","Extreme","Harder than Reference","F","j","safeDeck","riskyDeck",28,0,14,"right",1,0,60,"present","riskyDeck",508,6562,1,0
"1ngp7r1zkjh",831,266.176857005447,13398,"21/03/2022@19:30:26","Mozilla/5.0 (Windows NT 10.0; Win64; x64) AppleWebKit/537.36 (KHTML, like Gecko) Chrome/99.0.4844.82 Safari/537.36",1536,864,1536,746,"main",1002913,151,18,17,"EM","Moderate","Easier than Reference","F","j","safeDeck","riskyDeck",-28,0,-14,"right",1,0,32,"present","riskyDeck",929,1215,1,0
"1ngp7r1zkjh",831,266.176857005447,13398,"21/03/2022@19:30:26","Mozilla/5.0 (Windows NT 10.0; Win64; x64) AppleWebKit/537.36 (KHTML, like Gecko) Chrome/99.0.4844.82 Safari/537.36",1536,864,1536,746,"main",1002913,152,18,17,"HM","Moderate","Harder than Reference","D","k","riskyDeck","safeDeck",0,14,7,"left",1,0,32,"absent","riskyDeck",624,3448,-1,0
"eshgcb5si7e",1050.04026845638,856.981407909547,13550,"24/03/2022@11:45:38","Mozilla/5.0 (Macintosh; Intel Mac OS X 10_15_7) AppleWebKit/537.36 (KHTML, like Gecko) Chrome/96.0.4664.110 Safari/537.36",1440,900,1440,728,"main",1011083,4,4,2,"EM","Moderate","Easier than Reference","F","k","riskyDeck","safeDeck",0,-28,-14,"right",0,0,18,"absent","safeDeck",1424,3782,1,1
"eshgcb5si7e",1050.04026845638,856.981407909547,13550,"24/03/2022@11:45:38","Mozilla/5.0 (Macintosh; Intel Mac OS X 10_15_7) AppleWebKit/537.36 (KHTML, like Gecko) Chrome/96.0.4664.110 Safari/537.36",1440,900,1440,728,"main",1011083,5,4,2,"HM","Moderate","Harder than Reference","D","j","safeDeck","riskyDeck",0,14,7,"left",0,0,39,"present","safeDeck",1049,2658,-1,1
"eshgcb5si7e",1050.04026845638,856.981407909547,13550,"24/03/2022@11:45:38","Mozilla/5.0 (Macintosh; Intel Mac OS X 10_15_7) AppleWebKit/537.36 (KHTML, like Gecko) Chrome/96.0.4664.110 Safari/537.36",1440,900,1440,728,"main",1011083,6,4,3,"EE","Extreme","Easier than Reference","F","j","riskyDeck","safeDeck",-14,0,-7,"right",0,0,25,"present","safeDeck",1199,4533,1,1
"eshgcb5si7e",1050.04026845638,856.981407909547,13550,"24/03/2022@11:45:38","Mozilla/5.0 (Macintosh; Intel Mac OS X 10_15_7) AppleWebKit/537.36 (KHTML, like Gecko) Chrome/96.0.4664.110 Safari/537.36",1440,900,1440,728,"main",1011083,7,4,3,"HE","Extreme","Harder than Reference","F","j","safeDeck","riskyDeck",28,0,14,"right",1,0,32,"present","riskyDeck",1158,2079,1,0
"eshgcb5si7e",1050.04026845638,856.981407909547,13550,"24/03/2022@11:45:38","Mozilla/5.0 (Macintosh; Intel Mac OS X 10_15_7) AppleWebKit/537.36 (KHTML, like Gecko) Chrome/96.0.4664.110 Safari/537.36",1440,900,1440,728,"main",1011083,8,4,3,"EM","Moderate","Easier than Reference","F","j","safeDeck","riskyDeck",0,-28,-14,"right",1,0,32,"present","riskyDeck",1619,2663,1,0
"eshgcb5si7e",1050.04026845638,856.981407909547,13550,"24/03/2022@11:45:38","Mozilla/5.0 (Macintosh; Intel Mac OS X 10_15_7) AppleWebKit/537.36 (KHTML, like Gecko) Chrome/96.0.4664.110 Safari/537.36",1440,900,1440,728,"main",1011083,9,4,3,"HE","Extreme","Harder than Reference","D","j","riskyDeck","safeDeck",0,28,14,"left",1,0,32,"present","riskyDeck",715,1347,-1,0
"eshgcb5si7e",1050.04026845638,856.981407909547,13550,"24/03/2022@11:45:38","Mozilla/5.0 (Macintosh; Intel Mac OS X 10_15_7) AppleWebKit/537.36 (KHTML, like Gecko) Chrome/96.0.4664.110 Safari/537.36",1440,900,1440,728,"main",1011083,10,4,3,"EE","Extreme","Easier than Reference","D","k","safeDeck","riskyDeck",-14,0,-7,"left",0,0,25,"absent","safeDeck",596,4223,-1,1
"eshgcb5si7e",1050.04026845638,856.981407909547,13550,"24/03/2022@11:45:38","Mozilla/5.0 (Macintosh; Intel Mac OS X 10_15_7) AppleWebKit/537.36 (KHTML, like Gecko) Chrome/96.0.4664.110 Safari/537.36",1440,900,1440,728,"main",1011083,11,4,3,"EM","Moderate","Easier than Reference","F","j","safeDeck","riskyDeck",0,-28,-14,"right",1,0,4,"present","riskyDeck",1062,2107,1,0
"eshgcb5si7e",1050.04026845638,856.981407909547,13550,"24/03/2022@11:45:38","Mozilla/5.0 (Macintosh; Intel Mac OS X 10_15_7) AppleWebKit/537.36 (KHTML, like Gecko) Chrome/96.0.4664.110 Safari/537.36",1440,900,1440,728,"main",1011083,12,4,3,"HM","Moderate","Harder than Reference","D","j","safeDeck","riskyDeck",0,14,7,"left",0,0,39,"present","safeDeck",1024,2895,-1,1
"eshgcb5si7e",1050.04026845638,856.981407909547,13550,"24/03/2022@11:45:38","Mozilla/5.0 (Macintosh; Intel Mac OS X 10_15_7) AppleWebKit/537.36 (KHTML, like Gecko) Chrome/96.0.4664.110 Safari/537.36",1440,900,1440,728,"main",1011083,13,4,3,"EE","Extreme","Easier than Reference","F","k","safeDeck","riskyDeck",-14,0,-7,"right",1,0,32,"absent","riskyDeck",1840,5146,1,0
"eshgcb5si7e",1050.04026845638,856.981407909547,13550,"24/03/2022@11:45:38","Mozilla/5.0 (Macintosh; Intel Mac OS X 10_15_7) AppleWebKit/537.36 (KHTML, like Gecko) Chrome/96.0.4664.110 Safari/537.36",1440,900,1440,728,"main",1011083,14,5,3,"EM","Moderate","Easier than Reference","D","k","riskyDeck","safeDeck",0,-28,-14,"left",1,0,32,"absent","riskyDeck",1096,4357,-1,0
"eshgcb5si7e",1050.04026845638,856.981407909547,13550,"24/03/2022@11:45:38","Mozilla/5.0 (Macintosh; Intel Mac OS X 10_15_7) AppleWebKit/537.36 (KHTML, like Gecko) Chrome/96.0.4664.110 Safari/537.36",1440,900,1440,728,"main",1011083,15,5,3,"HE","Extreme","Harder than Reference","D","k","riskyDeck","safeDeck",28,0,14,"left",1,0,60,"absent","riskyDeck",1127,5162,-1,0
"eshgcb5si7e",1050.04026845638,856.981407909547,13550,"24/03/2022@11:45:38","Mozilla/5.0 (Macintosh; Intel Mac OS X 10_15_7) AppleWebKit/537.36 (KHTML, like Gecko) Chrome/96.0.4664.110 Safari/537.36",1440,900,1440,728,"main",1011083,16,5,4,"HM","Moderate","Harder than Reference","F","k","safeDeck","riskyDeck",0,14,7,"right",1,0,32,"absent","riskyDeck",732,3298,1,0
"eshgcb5si7e",1050.04026845638,856.981407909547,13550,"24/03/2022@11:45:38","Mozilla/5.0 (Macintosh; Intel Mac OS X 10_15_7) AppleWebKit/537.36 (KHTML, like Gecko) Chrome/96.0.4664.110 Safari/537.36",1440,900,1440,728,"main",1011083,17,5,4,"EM","Moderate","Easier than Reference","D","j","safeDeck","riskyDeck",0,-28,-14,"left",0,0,18,"present","safeDeck",994,898,-1,1
"eshgcb5si7e",1050.04026845638,856.981407909547,13550,"24/03/2022@11:45:38","Mozilla/5.0 (Macintosh; Intel Mac OS X 10_15_7) AppleWebKit/537.36 (KHTML, like Gecko) Chrome/96.0.4664.110 Safari/537.36",1440,900,1440,728,"main",1011083,18,5,4,"HE","Extreme","Harder than Reference","D","k","safeDeck","riskyDeck",0,28,14,"left",0,1,46,"present","safeDeck",1445,4986,-1,1
"eshgcb5si7e",1050.04026845638,856.981407909547,13550,"24/03/2022@11:45:38","Mozilla/5.0 (Macintosh; Intel Mac OS X 10_15_7) AppleWebKit/537.36 (KHTML, like Gecko) Chrome/96.0.4664.110 Safari/537.36",1440,900,1440,728,"main",1011083,19,5,4,"HM","Moderate","Harder than Reference","F","j","riskyDeck","safeDeck",14,0,7,"right",0,0,39,"present","safeDeck",1467,1614,1,1
"eshgcb5si7e",1050.04026845638,856.981407909547,13550,"24/03/2022@11:45:38","Mozilla/5.0 (Macintosh; Intel Mac OS X 10_15_7) AppleWebKit/537.36 (KHTML, like Gecko) Chrome/96.0.4664.110 Safari/537.36",1440,900,1440,728,"main",1011083,20,5,4,"EE","Extreme","Easier than Reference","D","k","safeDeck","riskyDeck",0,-14,-7,"left",0,0,25,"absent","safeDeck",679,4367,-1,1
"eshgcb5si7e",1050.04026845638,856.981407909547,13550,"24/03/2022@11:45:38","Mozilla/5.0 (Macintosh; Intel Mac OS X 10_15_7) AppleWebKit/537.36 (KHTML, like Gecko) Chrome/96.0.4664.110 Safari/537.36",1440,900,1440,728,"main",1011083,21,5,4,"HE","Extreme","Harder than Reference","F","j","safeDeck","riskyDeck",28,0,14,"right",1,0,32,"present","riskyDeck",1684,1206,1,0
"eshgcb5si7e",1050.04026845638,856.981407909547,13550,"24/03/2022@11:45:38","Mozilla/5.0 (Macintosh; Intel Mac OS X 10_15_7) AppleWebKit/537.36 (KHTML, like Gecko) Chrome/96.0.4664.110 Safari/537.36",1440,900,1440,728,"main",1011083,22,5,4,"HM","Moderate","Harder than Reference","D","j","riskyDeck","safeDeck",0,14,7,"left",1,0,32,"present","riskyDeck",1105,1969,-1,0
"eshgcb5si7e",1050.04026845638,856.981407909547,13550,"24/03/2022@11:45:38","Mozilla/5.0 (Macintosh; Intel Mac OS X 10_15_7) AppleWebKit/537.36 (KHTML, like Gecko) Chrome/96.0.4664.110 Safari/537.36",1440,900,1440,728,"main",1011083,23,5,4,"EE","Extreme","Easier than Reference","F","k","riskyDeck","safeDeck",-14,0,-7,"right",0,0,25,"absent","safeDeck",660,2497,1,1
"eshgcb5si7e",1050.04026845638,856.981407909547,13550,"24/03/2022@11:45:38","Mozilla/5.0 (Macintosh; Intel Mac OS X 10_15_7) AppleWebKit/537.36 (KHTML, like Gecko) Chrome/96.0.4664.110 Safari/537.36",1440,900,1440,728,"main",1011083,24,5,4,"EM","Moderate","Easier than Reference","F","j","riskyDeck","safeDeck",0,-28,-14,"right",0,0,18,"present","safeDeck",1560,1689,1,1
"eshgcb5si7e",1050.04026845638,856.981407909547,13550,"24/03/2022@11:45:38","Mozilla/5.0 (Macintosh; Intel Mac OS X 10_15_7) AppleWebKit/537.36 (KHTML, like Gecko) Chrome/96.0.4664.110 Safari/537.36",1440,900,1440,728,"main",1011083,25,6,4,"EE","Extreme","Easier than Reference","D","j","safeDeck","riskyDeck",0,-14,-7,"left",0,0,25,"present","safeDeck",671,3065,-1,1
"eshgcb5si7e",1050.04026845638,856.981407909547,13550,"24/03/2022@11:45:38","Mozilla/5.0 (Macintosh; Intel Mac OS X 10_15_7) AppleWebKit/537.36 (KHTML, like Gecko) Chrome/96.0.4664.110 Safari/537.36",1440,900,1440,728,"main",1011083,26,6,5,"EM","Moderate","Easier than Reference","F","j","riskyDeck","safeDeck",-28,0,-14,"right",0,0,18,"present","safeDeck",1561,3195,1,1
"eshgcb5si7e",1050.04026845638,856.981407909547,13550,"24/03/2022@11:45:38","Mozilla/5.0 (Macintosh; Intel Mac OS X 10_15_7) AppleWebKit/537.36 (KHTML, like Gecko) Chrome/96.0.4664.110 Safari/537.36",1440,900,1440,728,"main",1011083,27,6,5,"HE","Extreme","Harder than Reference","D","j","safeDeck","riskyDeck",0,28,14,"left",0,0,46,"present","safeDeck",745,3874,-1,1
"eshgcb5si7e",1050.04026845638,856.981407909547,13550,"24/03/2022@11:45:38","Mozilla/5.0 (Macintosh; Intel Mac OS X 10_15_7) AppleWebKit/537.36 (KHTML, like Gecko) Chrome/96.0.4664.110 Safari/537.36",1440,900,1440,728,"main",1011083,28,6,5,"HM","Moderate","Harder than Reference","D","j","safeDeck","riskyDeck",14,0,7,"left",0,0,39,"present","safeDeck",937,1791,-1,1
"eshgcb5si7e",1050.04026845638,856.981407909547,13550,"24/03/2022@11:45:38","Mozilla/5.0 (Macintosh; Intel Mac OS X 10_15_7) AppleWebKit/537.36 (KHTML, like Gecko) Chrome/96.0.4664.110 Safari/537.36",1440,900,1440,728,"main",1011083,30,6,5,"EM","Moderate","Easier than Reference","F","j","riskyDeck","safeDeck",-28,0,-14,"right",0,0,18,"present","safeDeck",1035,1525,1,1
"eshgcb5si7e",1050.04026845638,856.981407909547,13550,"24/03/2022@11:45:38","Mozilla/5.0 (Macintosh; Intel Mac OS X 10_15_7) AppleWebKit/537.36 (KHTML, like Gecko) Chrome/96.0.4664.110 Safari/537.36",1440,900,1440,728,"main",1011083,31,6,5,"EE","Extreme","Easier than Reference","D","j","riskyDeck","safeDeck",0,-14,-7,"left",1,0,32,"present","riskyDeck",1099,3799,-1,0
"eshgcb5si7e",1050.04026845638,856.981407909547,13550,"24/03/2022@11:45:38","Mozilla/5.0 (Macintosh; Intel Mac OS X 10_15_7) AppleWebKit/537.36 (KHTML, like Gecko) Chrome/96.0.4664.110 Safari/537.36",1440,900,1440,728,"main",1011083,32,6,5,"HE","Extreme","Harder than Reference","F","k","riskyDeck","safeDeck",0,28,14,"right",0,0,46,"absent","safeDeck",441,5363,1,1
"eshgcb5si7e",1050.04026845638,856.981407909547,13550,"24/03/2022@11:45:38","Mozilla/5.0 (Macintosh; Intel Mac OS X 10_15_7) AppleWebKit/537.36 (KHTML, like Gecko) Chrome/96.0.4664.110 Safari/537.36",1440,900,1440,728,"main",1011083,33,6,5,"EM","Moderate","Easier than Reference","F","j","safeDeck","riskyDeck",0,-28,-14,"right",1,0,32,"present","riskyDeck",947,1270,1,0
"eshgcb5si7e",1050.04026845638,856.981407909547,13550,"24/03/2022@11:45:38","Mozilla/5.0 (Macintosh; Intel Mac OS X 10_15_7) AppleWebKit/537.36 (KHTML, like Gecko) Chrome/96.0.4664.110 Safari/537.36",1440,900,1440,728,"main",1011083,35,7,6,"HE","Extreme","Harder than Reference","F","j","riskyDeck","safeDeck",0,28,14,"right",0,0,46,"present","safeDeck",1236,2175,1,1
"eshgcb5si7e",1050.04026845638,856.981407909547,13550,"24/03/2022@11:45:38","Mozilla/5.0 (Macintosh; Intel Mac OS X 10_15_7) AppleWebKit/537.36 (KHTML, like Gecko) Chrome/96.0.4664.110 Safari/537.36",1440,900,1440,728,"main",1011083,36,7,6,"EE","Extreme","Easier than Reference","D","j","safeDeck","riskyDeck",-14,0,-7,"left",0,0,25,"present","safeDeck",752,2774,-1,1
"eshgcb5si7e",1050.04026845638,856.981407909547,13550,"24/03/2022@11:45:38","Mozilla/5.0 (Macintosh; Intel Mac OS X 10_15_7) AppleWebKit/537.36 (KHTML, like Gecko) Chrome/96.0.4664.110 Safari/537.36",1440,900,1440,728,"main",1011083,37,7,6,"EM","Moderate","Easier than Reference","F","j","riskyDeck","safeDeck",-28,0,-14,"right",0,0,18,"present","safeDeck",921,996,1,1
"eshgcb5si7e",1050.04026845638,856.981407909547,13550,"24/03/2022@11:45:38","Mozilla/5.0 (Macintosh; Intel Mac OS X 10_15_7) AppleWebKit/537.36 (KHTML, like Gecko) Chrome/96.0.4664.110 Safari/537.36",1440,900,1440,728,"main",1011083,38,7,6,"EE","Extreme","Easier than Reference","D","j","safeDeck","riskyDeck",-14,0,-7,"left",0,0,25,"present","safeDeck",564,2030,-1,1
"eshgcb5si7e",1050.04026845638,856.981407909547,13550,"24/03/2022@11:45:38","Mozilla/5.0 (Macintosh; Intel Mac OS X 10_15_7) AppleWebKit/537.36 (KHTML, like Gecko) Chrome/96.0.4664.110 Safari/537.36",1440,900,1440,728,"main",1011083,39,7,6,"HM","Moderate","Harder than Reference","F","k","safeDeck","riskyDeck",0,14,7,"right",1,0,46,"absent","riskyDeck",2455,3883,1,0
"eshgcb5si7e",1050.04026845638,856.981407909547,13550,"24/03/2022@11:45:38","Mozilla/5.0 (Macintosh; Intel Mac OS X 10_15_7) AppleWebKit/537.36 (KHTML, like Gecko) Chrome/96.0.4664.110 Safari/537.36",1440,900,1440,728,"main",1011083,40,7,6,"HE","Extreme","Harder than Reference","D","k","safeDeck","riskyDeck",28,0,14,"left",0,0,46,"absent","safeDeck",556,3296,-1,1
"eshgcb5si7e",1050.04026845638,856.981407909547,13550,"24/03/2022@11:45:38","Mozilla/5.0 (Macintosh; Intel Mac OS X 10_15_7) AppleWebKit/537.36 (KHTML, like Gecko) Chrome/96.0.4664.110 Safari/537.36",1440,900,1440,728,"main",1011083,42,7,6,"EM","Moderate","Easier than Reference","D","j","safeDeck","riskyDeck",-28,0,-14,"left",0,0,18,"present","safeDeck",700,803,-1,1
"eshgcb5si7e",1050.04026845638,856.981407909547,13550,"24/03/2022@11:45:38","Mozilla/5.0 (Macintosh; Intel Mac OS X 10_15_7) AppleWebKit/537.36 (KHTML, like Gecko) Chrome/96.0.4664.110 Safari/537.36",1440,900,1440,728,"main",1011083,43,8,6,"HM","Moderate","Harder than Reference","D","j","safeDeck","riskyDeck",0,14,7,"left",0,0,39,"present","safeDeck",1152,3492,-1,1
"eshgcb5si7e",1050.04026845638,856.981407909547,13550,"24/03/2022@11:45:38","Mozilla/5.0 (Macintosh; Intel Mac OS X 10_15_7) AppleWebKit/537.36 (KHTML, like Gecko) Chrome/96.0.4664.110 Safari/537.36",1440,900,1440,728,"main",1011083,44,8,6,"HE","Extreme","Harder than Reference","D","j","safeDeck","riskyDeck",28,0,14,"left",0,0,46,"present","safeDeck",850,3152,-1,1
"eshgcb5si7e",1050.04026845638,856.981407909547,13550,"24/03/2022@11:45:38","Mozilla/5.0 (Macintosh; Intel Mac OS X 10_15_7) AppleWebKit/537.36 (KHTML, like Gecko) Chrome/96.0.4664.110 Safari/537.36",1440,900,1440,728,"main",1011083,45,8,7,"EE","Extreme","Easier than Reference","F","k","riskyDeck","safeDeck",-14,0,-7,"right",0,0,25,"absent","safeDeck",996,3103,1,1
"eshgcb5si7e",1050.04026845638,856.981407909547,13550,"24/03/2022@11:45:38","Mozilla/5.0 (Macintosh; Intel Mac OS X 10_15_7) AppleWebKit/537.36 (KHTML, like Gecko) Chrome/96.0.4664.110 Safari/537.36",1440,900,1440,728,"main",1011083,46,8,7,"HM","Moderate","Harder than Reference","F","j","riskyDeck","safeDeck",14,0,7,"right",0,0,39,"present","safeDeck",853,3990,1,1
"eshgcb5si7e",1050.04026845638,856.981407909547,13550,"24/03/2022@11:45:38","Mozilla/5.0 (Macintosh; Intel Mac OS X 10_15_7) AppleWebKit/537.36 (KHTML, like Gecko) Chrome/96.0.4664.110 Safari/537.36",1440,900,1440,728,"main",1011083,47,8,7,"EM","Moderate","Easier than Reference","D","j","safeDeck","riskyDeck",0,-28,-14,"left",0,0,18,"present","safeDeck",696,1453,-1,1
"eshgcb5si7e",1050.04026845638,856.981407909547,13550,"24/03/2022@11:45:38","Mozilla/5.0 (Macintosh; Intel Mac OS X 10_15_7) AppleWebKit/537.36 (KHTML, like Gecko) Chrome/96.0.4664.110 Safari/537.36",1440,900,1440,728,"main",1011083,48,8,7,"HE","Extreme","Harder than Reference","F","j","riskyDeck","safeDeck",28,0,14,"right",0,0,46,"present","safeDeck",685,4280,1,1
"eshgcb5si7e",1050.04026845638,856.981407909547,13550,"24/03/2022@11:45:38","Mozilla/5.0 (Macintosh; Intel Mac OS X 10_15_7) AppleWebKit/537.36 (KHTML, like Gecko) Chrome/96.0.4664.110 Safari/537.36",1440,900,1440,728,"main",1011083,49,8,7,"HM","Moderate","Harder than Reference","D","j","safeDeck","riskyDeck",0,14,7,"left",0,0,39,"present","safeDeck",1368,1894,-1,1
"eshgcb5si7e",1050.04026845638,856.981407909547,13550,"24/03/2022@11:45:38","Mozilla/5.0 (Macintosh; Intel Mac OS X 10_15_7) AppleWebKit/537.36 (KHTML, like Gecko) Chrome/96.0.4664.110 Safari/537.36",1440,900,1440,728,"main",1011083,51,8,7,"HE","Extreme","Harder than Reference","D","j","safeDeck","riskyDeck",0,28,14,"left",0,0,46,"present","safeDeck",833,1850,-1,1
"eshgcb5si7e",1050.04026845638,856.981407909547,13550,"24/03/2022@11:45:38","Mozilla/5.0 (Macintosh; Intel Mac OS X 10_15_7) AppleWebKit/537.36 (KHTML, like Gecko) Chrome/96.0.4664.110 Safari/537.36",1440,900,1440,728,"main",1011083,52,8,7,"EE","Extreme","Easier than Reference","F","k","safeDeck","riskyDeck",-14,0,-7,"right",1,0,18,"absent","riskyDeck",623,2578,1,0
"eshgcb5si7e",1050.04026845638,856.981407909547,13550,"24/03/2022@11:45:38","Mozilla/5.0 (Macintosh; Intel Mac OS X 10_15_7) AppleWebKit/537.36 (KHTML, like Gecko) Chrome/96.0.4664.110 Safari/537.36",1440,900,1440,728,"main",1011083,53,8,7,"HE","Extreme","Harder than Reference","D","j","riskyDeck","safeDeck",28,0,14,"left",1,0,60,"present","riskyDeck",713,4267,-1,0
"eshgcb5si7e",1050.04026845638,856.981407909547,13550,"24/03/2022@11:45:38","Mozilla/5.0 (Macintosh; Intel Mac OS X 10_15_7) AppleWebKit/537.36 (KHTML, like Gecko) Chrome/96.0.4664.110 Safari/537.36",1440,900,1440,728,"main",1011083,54,9,7,"HM","Moderate","Harder than Reference","F","k","safeDeck","riskyDeck",0,14,7,"right",1,0,46,"absent","riskyDeck",1104,6951,1,0
"eshgcb5si7e",1050.04026845638,856.981407909547,13550,"24/03/2022@11:45:38","Mozilla/5.0 (Macintosh; Intel Mac OS X 10_15_7) AppleWebKit/537.36 (KHTML, like Gecko) Chrome/96.0.4664.110 Safari/537.36",1440,900,1440,728,"main",1011083,55,9,8,"EM","Moderate","Easier than Reference","D","k","safeDeck","riskyDeck",0,-28,-14,"left",0,0,18,"absent","safeDeck",367,3871,-1,1
"eshgcb5si7e",1050.04026845638,856.981407909547,13550,"24/03/2022@11:45:38","Mozilla/5.0 (Macintosh; Intel Mac OS X 10_15_7) AppleWebKit/537.36 (KHTML, like Gecko) Chrome/96.0.4664.110 Safari/537.36",1440,900,1440,728,"main",1011083,56,9,8,"EE","Extreme","Easier than Reference","F","k","safeDeck","riskyDeck",0,-14,-7,"right",1,0,32,"absent","riskyDeck",1148,4879,1,0
"eshgcb5si7e",1050.04026845638,856.981407909547,13550,"24/03/2022@11:45:38","Mozilla/5.0 (Macintosh; Intel Mac OS X 10_15_7) AppleWebKit/537.36 (KHTML, like Gecko) Chrome/96.0.4664.110 Safari/537.36",1440,900,1440,728,"main",1011083,57,9,8,"EM","Moderate","Easier than Reference","F","k","riskyDeck","safeDeck",0,-28,-14,"right",0,0,18,"absent","safeDeck",1223,2366,1,1
"eshgcb5si7e",1050.04026845638,856.981407909547,13550,"24/03/2022@11:45:38","Mozilla/5.0 (Macintosh; Intel Mac OS X 10_15_7) AppleWebKit/537.36 (KHTML, like Gecko) Chrome/96.0.4664.110 Safari/537.36",1440,900,1440,728,"main",1011083,58,9,8,"EE","Extreme","Easier than Reference","D","j","riskyDeck","safeDeck",-14,0,-7,"left",1,0,32,"present","riskyDeck",1068,1446,-1,0
"eshgcb5si7e",1050.04026845638,856.981407909547,13550,"24/03/2022@11:45:38","Mozilla/5.0 (Macintosh; Intel Mac OS X 10_15_7) AppleWebKit/537.36 (KHTML, like Gecko) Chrome/96.0.4664.110 Safari/537.36",1440,900,1440,728,"main",1011083,59,9,8,"HM","Moderate","Harder than Reference","F","k","safeDeck","riskyDeck",14,0,7,"right",1,0,46,"absent","riskyDeck",390,3550,1,0
"eshgcb5si7e",1050.04026845638,856.981407909547,13550,"24/03/2022@11:45:38","Mozilla/5.0 (Macintosh; Intel Mac OS X 10_15_7) AppleWebKit/537.36 (KHTML, like Gecko) Chrome/96.0.4664.110 Safari/537.36",1440,900,1440,728,"main",1011083,60,9,8,"HE","Extreme","Harder than Reference","D","k","safeDeck","riskyDeck",0,28,14,"left",0,0,46,"absent","safeDeck",588,5201,-1,1
"eshgcb5si7e",1050.04026845638,856.981407909547,13550,"24/03/2022@11:45:38","Mozilla/5.0 (Macintosh; Intel Mac OS X 10_15_7) AppleWebKit/537.36 (KHTML, like Gecko) Chrome/96.0.4664.110 Safari/537.36",1440,900,1440,728,"main",1011083,61,9,8,"EM","Moderate","Easier than Reference","F","k","riskyDeck","safeDeck",0,-28,-14,"right",0,0,18,"absent","safeDeck",1085,4199,1,1
"eshgcb5si7e",1050.04026845638,856.981407909547,13550,"24/03/2022@11:45:38","Mozilla/5.0 (Macintosh; Intel Mac OS X 10_15_7) AppleWebKit/537.36 (KHTML, like Gecko) Chrome/96.0.4664.110 Safari/537.36",1440,900,1440,728,"main",1011083,62,9,8,"HE","Extreme","Harder than Reference","D","j","safeDeck","riskyDeck",28,0,14,"left",0,0,46,"present","safeDeck",1471,2685,-1,1
"eshgcb5si7e",1050.04026845638,856.981407909547,13550,"24/03/2022@11:45:38","Mozilla/5.0 (Macintosh; Intel Mac OS X 10_15_7) AppleWebKit/537.36 (KHTML, like Gecko) Chrome/96.0.4664.110 Safari/537.36",1440,900,1440,728,"main",1011083,63,10,8,"EE","Extreme","Easier than Reference","D","k","safeDeck","riskyDeck",-14,0,-7,"left",0,0,25,"absent","safeDeck",1720,3451,-1,1
"eshgcb5si7e",1050.04026845638,856.981407909547,13550,"24/03/2022@11:45:38","Mozilla/5.0 (Macintosh; Intel Mac OS X 10_15_7) AppleWebKit/537.36 (KHTML, like Gecko) Chrome/96.0.4664.110 Safari/537.36",1440,900,1440,728,"main",1011083,64,10,8,"HM","Moderate","Harder than Reference","D","j","riskyDeck","safeDeck",14,0,7,"left",1,0,32,"present","riskyDeck",673,1589,-1,0
"eshgcb5si7e",1050.04026845638,856.981407909547,13550,"24/03/2022@11:45:38","Mozilla/5.0 (Macintosh; Intel Mac OS X 10_15_7) AppleWebKit/537.36 (KHTML, like Gecko) Chrome/96.0.4664.110 Safari/537.36",1440,900,1440,728,"main",1011083,65,10,8,"EE","Extreme","Easier than Reference","D","k","safeDeck","riskyDeck",-14,0,-7,"left",0,0,25,"absent","safeDeck",369,2482,-1,1
"eshgcb5si7e",1050.04026845638,856.981407909547,13550,"24/03/2022@11:45:38","Mozilla/5.0 (Macintosh; Intel Mac OS X 10_15_7) AppleWebKit/537.36 (KHTML, like Gecko) Chrome/96.0.4664.110 Safari/537.36",1440,900,1440,728,"main",1011083,66,10,9,"HM","Moderate","Harder than Reference","F","j","riskyDeck","safeDeck",14,0,7,"right",0,0,39,"present","safeDeck",1754,3704,1,1
"eshgcb5si7e",1050.04026845638,856.981407909547,13550,"24/03/2022@11:45:38","Mozilla/5.0 (Macintosh; Intel Mac OS X 10_15_7) AppleWebKit/537.36 (KHTML, like Gecko) Chrome/96.0.4664.110 Safari/537.36",1440,900,1440,728,"main",1011083,67,10,9,"EM","Moderate","Easier than Reference","D","k","safeDeck","riskyDeck",-28,0,-14,"left",0,0,18,"absent","safeDeck",490,2264,-1,1
"eshgcb5si7e",1050.04026845638,856.981407909547,13550,"24/03/2022@11:45:38","Mozilla/5.0 (Macintosh; Intel Mac OS X 10_15_7) AppleWebKit/537.36 (KHTML, like Gecko) Chrome/96.0.4664.110 Safari/537.36",1440,900,1440,728,"main",1011083,68,10,9,"HE","Extreme","Harder than Reference","D","k","safeDeck","riskyDeck",0,28,14,"left",0,0,46,"absent","safeDeck",416,5253,-1,1
"eshgcb5si7e",1050.04026845638,856.981407909547,13550,"24/03/2022@11:45:38","Mozilla/5.0 (Macintosh; Intel Mac OS X 10_15_7) AppleWebKit/537.36 (KHTML, like Gecko) Chrome/96.0.4664.110 Safari/537.36",1440,900,1440,728,"main",1011083,69,10,9,"HE","Extreme","Harder than Reference","F","k","safeDeck","riskyDeck",28,0,14,"right",1,1,32,"present","riskyDeck",1206,2588,1,0
"eshgcb5si7e",1050.04026845638,856.981407909547,13550,"24/03/2022@11:45:38","Mozilla/5.0 (Macintosh; Intel Mac OS X 10_15_7) AppleWebKit/537.36 (KHTML, like Gecko) Chrome/96.0.4664.110 Safari/537.36",1440,900,1440,728,"main",1011083,70,10,9,"HM","Moderate","Harder than Reference","D","k","safeDeck","riskyDeck",14,0,7,"left",0,0,39,"absent","safeDeck",381,4462,-1,1
"eshgcb5si7e",1050.04026845638,856.981407909547,13550,"24/03/2022@11:45:38","Mozilla/5.0 (Macintosh; Intel Mac OS X 10_15_7) AppleWebKit/537.36 (KHTML, like Gecko) Chrome/96.0.4664.110 Safari/537.36",1440,900,1440,728,"main",1011083,71,10,9,"EM","Moderate","Easier than Reference","D","k","safeDeck","riskyDeck",-28,0,-14,"left",0,0,18,"absent","safeDeck",883,2142,-1,1
"eshgcb5si7e",1050.04026845638,856.981407909547,13550,"24/03/2022@11:45:38","Mozilla/5.0 (Macintosh; Intel Mac OS X 10_15_7) AppleWebKit/537.36 (KHTML, like Gecko) Chrome/96.0.4664.110 Safari/537.36",1440,900,1440,728,"main",1011083,72,10,9,"EE","Extreme","Easier than Reference","D","j","riskyDeck","safeDeck",0,-14,-7,"left",1,0,18,"present","riskyDeck",1396,1764,-1,0
"eshgcb5si7e",1050.04026845638,856.981407909547,13550,"24/03/2022@11:45:38","Mozilla/5.0 (Macintosh; Intel Mac OS X 10_15_7) AppleWebKit/537.36 (KHTML, like Gecko) Chrome/96.0.4664.110 Safari/537.36",1440,900,1440,728,"main",1011083,73,10,9,"EM","Moderate","Easier than Reference","F","k","riskyDeck","safeDeck",0,-28,-14,"right",0,0,18,"absent","safeDeck",1169,1913,1,1
"eshgcb5si7e",1050.04026845638,856.981407909547,13550,"24/03/2022@11:45:38","Mozilla/5.0 (Macintosh; Intel Mac OS X 10_15_7) AppleWebKit/537.36 (KHTML, like Gecko) Chrome/96.0.4664.110 Safari/537.36",1440,900,1440,728,"main",1011083,74,10,9,"HM","Moderate","Harder than Reference","D","j","safeDeck","riskyDeck",14,0,7,"left",0,0,39,"present","safeDeck",901,1367,-1,1
"eshgcb5si7e",1050.04026845638,856.981407909547,13550,"24/03/2022@11:45:38","Mozilla/5.0 (Macintosh; Intel Mac OS X 10_15_7) AppleWebKit/537.36 (KHTML, like Gecko) Chrome/96.0.4664.110 Safari/537.36",1440,900,1440,728,"main",1011083,75,11,9,"EE","Extreme","Easier than Reference","F","k","riskyDeck","safeDeck",0,-14,-7,"right",0,0,25,"absent","safeDeck",1231,3023,1,1
"eshgcb5si7e",1050.04026845638,856.981407909547,13550,"24/03/2022@11:45:38","Mozilla/5.0 (Macintosh; Intel Mac OS X 10_15_7) AppleWebKit/537.36 (KHTML, like Gecko) Chrome/96.0.4664.110 Safari/537.36",1440,900,1440,728,"main",1011083,76,11,10,"HE","Extreme","Harder than Reference","D","k","riskyDeck","safeDeck",28,0,14,"left",1,0,60,"absent","riskyDeck",1009,6538,-1,0
"eshgcb5si7e",1050.04026845638,856.981407909547,13550,"24/03/2022@11:45:38","Mozilla/5.0 (Macintosh; Intel Mac OS X 10_15_7) AppleWebKit/537.36 (KHTML, like Gecko) Chrome/96.0.4664.110 Safari/537.36",1440,900,1440,728,"main",1011083,77,11,10,"EM","Moderate","Easier than Reference","D","k","safeDeck","riskyDeck",0,-28,-14,"left",0,0,18,"absent","safeDeck",2464,3551,-1,1
"eshgcb5si7e",1050.04026845638,856.981407909547,13550,"24/03/2022@11:45:38","Mozilla/5.0 (Macintosh; Intel Mac OS X 10_15_7) AppleWebKit/537.36 (KHTML, like Gecko) Chrome/96.0.4664.110 Safari/537.36",1440,900,1440,728,"main",1011083,78,11,10,"HE","Extreme","Harder than Reference","F","j","riskyDeck","safeDeck",28,0,14,"right",0,0,46,"present","safeDeck",705,6241,1,1
"eshgcb5si7e",1050.04026845638,856.981407909547,13550,"24/03/2022@11:45:38","Mozilla/5.0 (Macintosh; Intel Mac OS X 10_15_7) AppleWebKit/537.36 (KHTML, like Gecko) Chrome/96.0.4664.110 Safari/537.36",1440,900,1440,728,"main",1011083,79,11,10,"HM","Moderate","Harder than Reference","D","j","safeDeck","riskyDeck",0,14,7,"left",0,0,39,"present","safeDeck",563,5037,-1,1
"eshgcb5si7e",1050.04026845638,856.981407909547,13550,"24/03/2022@11:45:38","Mozilla/5.0 (Macintosh; Intel Mac OS X 10_15_7) AppleWebKit/537.36 (KHTML, like Gecko) Chrome/96.0.4664.110 Safari/537.36",1440,900,1440,728,"main",1011083,80,11,10,"EE","Extreme","Easier than Reference","D","k","safeDeck","riskyDeck",-14,0,-7,"left",0,0,25,"absent","safeDeck",681,2566,-1,1
"eshgcb5si7e",1050.04026845638,856.981407909547,13550,"24/03/2022@11:45:38","Mozilla/5.0 (Macintosh; Intel Mac OS X 10_15_7) AppleWebKit/537.36 (KHTML, like Gecko) Chrome/96.0.4664.110 Safari/537.36",1440,900,1440,728,"main",1011083,81,11,10,"EM","Moderate","Easier than Reference","F","j","safeDeck","riskyDeck",0,-28,-14,"right",1,0,32,"present","riskyDeck",609,1741,1,0
"eshgcb5si7e",1050.04026845638,856.981407909547,13550,"24/03/2022@11:45:38","Mozilla/5.0 (Macintosh; Intel Mac OS X 10_15_7) AppleWebKit/537.36 (KHTML, like Gecko) Chrome/96.0.4664.110 Safari/537.36",1440,900,1440,728,"main",1011083,82,12,10,"HM","Moderate","Harder than Reference","D","k","riskyDeck","safeDeck",14,0,7,"left",1,0,46,"absent","riskyDeck",972,3599,-1,0
"eshgcb5si7e",1050.04026845638,856.981407909547,13550,"24/03/2022@11:45:38","Mozilla/5.0 (Macintosh; Intel Mac OS X 10_15_7) AppleWebKit/537.36 (KHTML, like Gecko) Chrome/96.0.4664.110 Safari/537.36",1440,900,1440,728,"main",1011083,83,12,10,"HE","Extreme","Harder than Reference","D","j","riskyDeck","safeDeck",0,28,14,"left",1,0,32,"present","riskyDeck",773,2194,-1,0
"eshgcb5si7e",1050.04026845638,856.981407909547,13550,"24/03/2022@11:45:38","Mozilla/5.0 (Macintosh; Intel Mac OS X 10_15_7) AppleWebKit/537.36 (KHTML, like Gecko) Chrome/96.0.4664.110 Safari/537.36",1440,900,1440,728,"main",1011083,84,12,11,"EE","Extreme","Easier than Reference","F","k","riskyDeck","safeDeck",0,-14,-7,"right",0,0,25,"absent","safeDeck",826,2778,1,1
"eshgcb5si7e",1050.04026845638,856.981407909547,13550,"24/03/2022@11:45:38","Mozilla/5.0 (Macintosh; Intel Mac OS X 10_15_7) AppleWebKit/537.36 (KHTML, like Gecko) Chrome/96.0.4664.110 Safari/537.36",1440,900,1440,728,"main",1011083,85,12,11,"EE","Extreme","Easier than Reference","F","j","riskyDeck","safeDeck",-14,0,-7,"right",0,0,25,"present","safeDeck",551,1781,1,1
"eshgcb5si7e",1050.04026845638,856.981407909547,13550,"24/03/2022@11:45:38","Mozilla/5.0 (Macintosh; Intel Mac OS X 10_15_7) AppleWebKit/537.36 (KHTML, like Gecko) Chrome/96.0.4664.110 Safari/537.36",1440,900,1440,728,"main",1011083,86,12,11,"HE","Extreme","Harder than Reference","F","k","safeDeck","riskyDeck",28,0,14,"right",1,0,32,"absent","riskyDeck",1726,3852,1,0
"eshgcb5si7e",1050.04026845638,856.981407909547,13550,"24/03/2022@11:45:38","Mozilla/5.0 (Macintosh; Intel Mac OS X 10_15_7) AppleWebKit/537.36 (KHTML, like Gecko) Chrome/96.0.4664.110 Safari/537.36",1440,900,1440,728,"main",1011083,87,12,11,"HM","Moderate","Harder than Reference","D","k","riskyDeck","safeDeck",0,14,7,"left",1,0,46,"absent","riskyDeck",557,4718,-1,0
"eshgcb5si7e",1050.04026845638,856.981407909547,13550,"24/03/2022@11:45:38","Mozilla/5.0 (Macintosh; Intel Mac OS X 10_15_7) AppleWebKit/537.36 (KHTML, like Gecko) Chrome/96.0.4664.110 Safari/537.36",1440,900,1440,728,"main",1011083,88,12,11,"EM","Moderate","Easier than Reference","D","k","safeDeck","riskyDeck",-28,0,-14,"left",0,0,18,"absent","safeDeck",711,3444,-1,1
"eshgcb5si7e",1050.04026845638,856.981407909547,13550,"24/03/2022@11:45:38","Mozilla/5.0 (Macintosh; Intel Mac OS X 10_15_7) AppleWebKit/537.36 (KHTML, like Gecko) Chrome/96.0.4664.110 Safari/537.36",1440,900,1440,728,"main",1011083,89,12,11,"HE","Extreme","Harder than Reference","D","k","safeDeck","riskyDeck",0,28,14,"left",0,0,46,"absent","safeDeck",995,5057,-1,1
"eshgcb5si7e",1050.04026845638,856.981407909547,13550,"24/03/2022@11:45:38","Mozilla/5.0 (Macintosh; Intel Mac OS X 10_15_7) AppleWebKit/537.36 (KHTML, like Gecko) Chrome/96.0.4664.110 Safari/537.36",1440,900,1440,728,"main",1011083,90,12,11,"EM","Moderate","Easier than Reference","D","j","safeDeck","riskyDeck",-28,0,-14,"left",0,0,18,"present","safeDeck",537,1476,-1,1
"eshgcb5si7e",1050.04026845638,856.981407909547,13550,"24/03/2022@11:45:38","Mozilla/5.0 (Macintosh; Intel Mac OS X 10_15_7) AppleWebKit/537.36 (KHTML, like Gecko) Chrome/96.0.4664.110 Safari/537.36",1440,900,1440,728,"main",1011083,91,12,11,"HM","Moderate","Harder than Reference","D","k","riskyDeck","safeDeck",14,0,7,"left",1,0,46,"absent","riskyDeck",1035,3539,-1,0
"eshgcb5si7e",1050.04026845638,856.981407909547,13550,"24/03/2022@11:45:38","Mozilla/5.0 (Macintosh; Intel Mac OS X 10_15_7) AppleWebKit/537.36 (KHTML, like Gecko) Chrome/96.0.4664.110 Safari/537.36",1440,900,1440,728,"main",1011083,92,12,11,"EE","Extreme","Easier than Reference","F","j","riskyDeck","safeDeck",0,-14,-7,"right",0,0,25,"present","safeDeck",316,1973,1,1
"eshgcb5si7e",1050.04026845638,856.981407909547,13550,"24/03/2022@11:45:38","Mozilla/5.0 (Macintosh; Intel Mac OS X 10_15_7) AppleWebKit/537.36 (KHTML, like Gecko) Chrome/96.0.4664.110 Safari/537.36",1440,900,1440,728,"main",1011083,93,12,11,"EM","Moderate","Easier than Reference","D","j","safeDeck","riskyDeck",0,-28,-14,"left",0,0,18,"present","safeDeck",618,1572,-1,1
"eshgcb5si7e",1050.04026845638,856.981407909547,13550,"24/03/2022@11:45:38","Mozilla/5.0 (Macintosh; Intel Mac OS X 10_15_7) AppleWebKit/537.36 (KHTML, like Gecko) Chrome/96.0.4664.110 Safari/537.36",1440,900,1440,728,"main",1011083,94,13,11,"EE","Extreme","Easier than Reference","D","k","safeDeck","riskyDeck",-14,0,-7,"left",0,0,25,"absent","safeDeck",1030,3163,-1,1
"eshgcb5si7e",1050.04026845638,856.981407909547,13550,"24/03/2022@11:45:38","Mozilla/5.0 (Macintosh; Intel Mac OS X 10_15_7) AppleWebKit/537.36 (KHTML, like Gecko) Chrome/96.0.4664.110 Safari/537.36",1440,900,1440,728,"main",1011083,95,13,12,"HM","Moderate","Harder than Reference","D","k","safeDeck","riskyDeck",14,0,7,"left",0,0,39,"absent","safeDeck",1198,3909,-1,1
"eshgcb5si7e",1050.04026845638,856.981407909547,13550,"24/03/2022@11:45:38","Mozilla/5.0 (Macintosh; Intel Mac OS X 10_15_7) AppleWebKit/537.36 (KHTML, like Gecko) Chrome/96.0.4664.110 Safari/537.36",1440,900,1440,728,"main",1011083,96,13,12,"HE","Extreme","Harder than Reference","D","k","riskyDeck","safeDeck",28,0,14,"left",1,0,32,"absent","riskyDeck",1414,2380,-1,0
"eshgcb5si7e",1050.04026845638,856.981407909547,13550,"24/03/2022@11:45:38","Mozilla/5.0 (Macintosh; Intel Mac OS X 10_15_7) AppleWebKit/537.36 (KHTML, like Gecko) Chrome/96.0.4664.110 Safari/537.36",1440,900,1440,728,"main",1011083,97,13,12,"EE","Extreme","Easier than Reference","D","j","safeDeck","riskyDeck",-14,0,-7,"left",0,0,25,"present","safeDeck",755,2920,-1,1
"eshgcb5si7e",1050.04026845638,856.981407909547,13550,"24/03/2022@11:45:38","Mozilla/5.0 (Macintosh; Intel Mac OS X 10_15_7) AppleWebKit/537.36 (KHTML, like Gecko) Chrome/96.0.4664.110 Safari/537.36",1440,900,1440,728,"main",1011083,98,13,12,"EM","Moderate","Easier than Reference","F","j","riskyDeck","safeDeck",-28,0,-14,"right",0,0,18,"present","safeDeck",544,1672,1,1
"eshgcb5si7e",1050.04026845638,856.981407909547,13550,"24/03/2022@11:45:38","Mozilla/5.0 (Macintosh; Intel Mac OS X 10_15_7) AppleWebKit/537.36 (KHTML, like Gecko) Chrome/96.0.4664.110 Safari/537.36",1440,900,1440,728,"main",1011083,99,13,12,"HE","Extreme","Harder than Reference","D","j","safeDeck","riskyDeck",28,0,14,"left",0,0,46,"present","safeDeck",689,5037,-1,1
"eshgcb5si7e",1050.04026845638,856.981407909547,13550,"24/03/2022@11:45:38","Mozilla/5.0 (Macintosh; Intel Mac OS X 10_15_7) AppleWebKit/537.36 (KHTML, like Gecko) Chrome/96.0.4664.110 Safari/537.36",1440,900,1440,728,"main",1011083,100,13,12,"HM","Moderate","Harder than Reference","D","k","safeDeck","riskyDeck",0,14,7,"left",0,0,39,"absent","safeDeck",1059,6674,-1,1
"eshgcb5si7e",1050.04026845638,856.981407909547,13550,"24/03/2022@11:45:38","Mozilla/5.0 (Macintosh; Intel Mac OS X 10_15_7) AppleWebKit/537.36 (KHTML, like Gecko) Chrome/96.0.4664.110 Safari/537.36",1440,900,1440,728,"main",1011083,101,13,12,"HM","Moderate","Harder than Reference","D","j","riskyDeck","safeDeck",14,0,7,"left",1,0,46,"present","riskyDeck",1211,1331,-1,0
"eshgcb5si7e",1050.04026845638,856.981407909547,13550,"24/03/2022@11:45:38","Mozilla/5.0 (Macintosh; Intel Mac OS X 10_15_7) AppleWebKit/537.36 (KHTML, like Gecko) Chrome/96.0.4664.110 Safari/537.36",1440,900,1440,728,"main",1011083,102,13,12,"HE","Extreme","Harder than Reference","F","j","safeDeck","riskyDeck",0,28,14,"right",1,0,60,"present","riskyDeck",524,1596,1,0
"eshgcb5si7e",1050.04026845638,856.981407909547,13550,"24/03/2022@11:45:38","Mozilla/5.0 (Macintosh; Intel Mac OS X 10_15_7) AppleWebKit/537.36 (KHTML, like Gecko) Chrome/96.0.4664.110 Safari/537.36",1440,900,1440,728,"main",1011083,103,13,12,"EE","Extreme","Easier than Reference","D","j","safeDeck","riskyDeck",-14,0,-7,"left",0,0,25,"present","safeDeck",1737,1131,-1,1
"eshgcb5si7e",1050.04026845638,856.981407909547,13550,"24/03/2022@11:45:38","Mozilla/5.0 (Macintosh; Intel Mac OS X 10_15_7) AppleWebKit/537.36 (KHTML, like Gecko) Chrome/96.0.4664.110 Safari/537.36",1440,900,1440,728,"main",1011083,104,14,12,"EM","Moderate","Easier than Reference","D","j","safeDeck","riskyDeck",0,-28,-14,"left",0,0,18,"present","safeDeck",428,1475,-1,1
"eshgcb5si7e",1050.04026845638,856.981407909547,13550,"24/03/2022@11:45:38","Mozilla/5.0 (Macintosh; Intel Mac OS X 10_15_7) AppleWebKit/537.36 (KHTML, like Gecko) Chrome/96.0.4664.110 Safari/537.36",1440,900,1440,728,"main",1011083,105,14,12,"EE","Extreme","Easier than Reference","D","k","safeDeck","riskyDeck",0,-14,-7,"left",0,0,25,"absent","safeDeck",567,3371,-1,1
"eshgcb5si7e",1050.04026845638,856.981407909547,13550,"24/03/2022@11:45:38","Mozilla/5.0 (Macintosh; Intel Mac OS X 10_15_7) AppleWebKit/537.36 (KHTML, like Gecko) Chrome/96.0.4664.110 Safari/537.36",1440,900,1440,728,"main",1011083,107,14,13,"HE","Extreme","Harder than Reference","F","j","riskyDeck","safeDeck",0,28,14,"right",0,0,46,"present","safeDeck",972,3389,1,1
"eshgcb5si7e",1050.04026845638,856.981407909547,13550,"24/03/2022@11:45:38","Mozilla/5.0 (Macintosh; Intel Mac OS X 10_15_7) AppleWebKit/537.36 (KHTML, like Gecko) Chrome/96.0.4664.110 Safari/537.36",1440,900,1440,728,"main",1011083,108,14,13,"EM","Moderate","Easier than Reference","F","k","riskyDeck","safeDeck",0,-28,-14,"right",0,0,18,"absent","safeDeck",796,4176,1,1
"eshgcb5si7e",1050.04026845638,856.981407909547,13550,"24/03/2022@11:45:38","Mozilla/5.0 (Macintosh; Intel Mac OS X 10_15_7) AppleWebKit/537.36 (KHTML, like Gecko) Chrome/96.0.4664.110 Safari/537.36",1440,900,1440,728,"main",1011083,109,14,13,"HE","Extreme","Harder than Reference","D","j","safeDeck","riskyDeck",0,28,14,"left",0,0,46,"present","safeDeck",598,1267,-1,1
"eshgcb5si7e",1050.04026845638,856.981407909547,13550,"24/03/2022@11:45:38","Mozilla/5.0 (Macintosh; Intel Mac OS X 10_15_7) AppleWebKit/537.36 (KHTML, like Gecko) Chrome/96.0.4664.110 Safari/537.36",1440,900,1440,728,"main",1011083,110,14,13,"EE","Extreme","Easier than Reference","D","k","safeDeck","riskyDeck",0,-14,-7,"left",0,0,25,"absent","safeDeck",594,3848,-1,1
"eshgcb5si7e",1050.04026845638,856.981407909547,13550,"24/03/2022@11:45:38","Mozilla/5.0 (Macintosh; Intel Mac OS X 10_15_7) AppleWebKit/537.36 (KHTML, like Gecko) Chrome/96.0.4664.110 Safari/537.36",1440,900,1440,728,"main",1011083,111,14,13,"EM","Moderate","Easier than Reference","D","j","riskyDeck","safeDeck",-28,0,-14,"left",1,0,4,"present","riskyDeck",1562,548,-1,0
"eshgcb5si7e",1050.04026845638,856.981407909547,13550,"24/03/2022@11:45:38","Mozilla/5.0 (Macintosh; Intel Mac OS X 10_15_7) AppleWebKit/537.36 (KHTML, like Gecko) Chrome/96.0.4664.110 Safari/537.36",1440,900,1440,728,"main",1011083,112,14,13,"HM","Moderate","Harder than Reference","F","k","riskyDeck","safeDeck",14,0,7,"right",0,0,39,"absent","safeDeck",716,3678,1,1
"eshgcb5si7e",1050.04026845638,856.981407909547,13550,"24/03/2022@11:45:38","Mozilla/5.0 (Macintosh; Intel Mac OS X 10_15_7) AppleWebKit/537.36 (KHTML, like Gecko) Chrome/96.0.4664.110 Safari/537.36",1440,900,1440,728,"main",1011083,113,14,13,"HM","Moderate","Harder than Reference","D","j","safeDeck","riskyDeck",0,14,7,"left",0,0,39,"present","safeDeck",471,805,-1,1
"eshgcb5si7e",1050.04026845638,856.981407909547,13550,"24/03/2022@11:45:38","Mozilla/5.0 (Macintosh; Intel Mac OS X 10_15_7) AppleWebKit/537.36 (KHTML, like Gecko) Chrome/96.0.4664.110 Safari/537.36",1440,900,1440,728,"main",1011083,114,14,13,"EE","Extreme","Easier than Reference","D","k","safeDeck","riskyDeck",0,-14,-7,"left",0,0,25,"absent","safeDeck",382,2052,-1,1
"eshgcb5si7e",1050.04026845638,856.981407909547,13550,"24/03/2022@11:45:38","Mozilla/5.0 (Macintosh; Intel Mac OS X 10_15_7) AppleWebKit/537.36 (KHTML, like Gecko) Chrome/96.0.4664.110 Safari/537.36",1440,900,1440,728,"main",1011083,116,15,13,"EM","Moderate","Easier than Reference","F","j","riskyDeck","safeDeck",0,-28,-14,"right",0,0,18,"present","safeDeck",688,1831,1,1
"eshgcb5si7e",1050.04026845638,856.981407909547,13550,"24/03/2022@11:45:38","Mozilla/5.0 (Macintosh; Intel Mac OS X 10_15_7) AppleWebKit/537.36 (KHTML, like Gecko) Chrome/96.0.4664.110 Safari/537.36",1440,900,1440,728,"main",1011083,117,15,14,"HE","Extreme","Harder than Reference","F","j","safeDeck","riskyDeck",28,0,14,"right",1,0,32,"present","riskyDeck",602,1948,1,0
"eshgcb5si7e",1050.04026845638,856.981407909547,13550,"24/03/2022@11:45:38","Mozilla/5.0 (Macintosh; Intel Mac OS X 10_15_7) AppleWebKit/537.36 (KHTML, like Gecko) Chrome/96.0.4664.110 Safari/537.36",1440,900,1440,728,"main",1011083,118,15,14,"HM","Moderate","Harder than Reference","F","k","riskyDeck","safeDeck",14,0,7,"right",0,1,39,"present","safeDeck",618,5152,1,1
"eshgcb5si7e",1050.04026845638,856.981407909547,13550,"24/03/2022@11:45:38","Mozilla/5.0 (Macintosh; Intel Mac OS X 10_15_7) AppleWebKit/537.36 (KHTML, like Gecko) Chrome/96.0.4664.110 Safari/537.36",1440,900,1440,728,"main",1011083,119,15,14,"EM","Moderate","Easier than Reference","F","j","riskyDeck","safeDeck",0,-28,-14,"right",0,0,18,"present","safeDeck",507,1569,1,1
"eshgcb5si7e",1050.04026845638,856.981407909547,13550,"24/03/2022@11:45:38","Mozilla/5.0 (Macintosh; Intel Mac OS X 10_15_7) AppleWebKit/537.36 (KHTML, like Gecko) Chrome/96.0.4664.110 Safari/537.36",1440,900,1440,728,"main",1011083,120,15,14,"EE","Extreme","Easier than Reference","F","j","riskyDeck","safeDeck",-14,0,-7,"right",0,0,25,"present","safeDeck",525,710,1,1
"eshgcb5si7e",1050.04026845638,856.981407909547,13550,"24/03/2022@11:45:38","Mozilla/5.0 (Macintosh; Intel Mac OS X 10_15_7) AppleWebKit/537.36 (KHTML, like Gecko) Chrome/96.0.4664.110 Safari/537.36",1440,900,1440,728,"main",1011083,121,15,14,"EE","Extreme","Easier than Reference","F","j","riskyDeck","safeDeck",0,-14,-7,"right",0,0,25,"present","safeDeck",997,3632,1,1
"eshgcb5si7e",1050.04026845638,856.981407909547,13550,"24/03/2022@11:45:38","Mozilla/5.0 (Macintosh; Intel Mac OS X 10_15_7) AppleWebKit/537.36 (KHTML, like Gecko) Chrome/96.0.4664.110 Safari/537.36",1440,900,1440,728,"main",1011083,122,15,14,"HM","Moderate","Harder than Reference","F","k","riskyDeck","safeDeck",14,0,7,"right",0,0,39,"absent","safeDeck",622,5483,1,1
"eshgcb5si7e",1050.04026845638,856.981407909547,13550,"24/03/2022@11:45:38","Mozilla/5.0 (Macintosh; Intel Mac OS X 10_15_7) AppleWebKit/537.36 (KHTML, like Gecko) Chrome/96.0.4664.110 Safari/537.36",1440,900,1440,728,"main",1011083,123,15,14,"HE","Extreme","Harder than Reference","F","k","safeDeck","riskyDeck",28,0,14,"right",1,0,60,"absent","riskyDeck",1056,4402,1,0
"eshgcb5si7e",1050.04026845638,856.981407909547,13550,"24/03/2022@11:45:38","Mozilla/5.0 (Macintosh; Intel Mac OS X 10_15_7) AppleWebKit/537.36 (KHTML, like Gecko) Chrome/96.0.4664.110 Safari/537.36",1440,900,1440,728,"main",1011083,124,15,14,"EM","Moderate","Easier than Reference","D","j","safeDeck","riskyDeck",0,-28,-14,"left",0,0,18,"present","safeDeck",559,2411,-1,1
"eshgcb5si7e",1050.04026845638,856.981407909547,13550,"24/03/2022@11:45:38","Mozilla/5.0 (Macintosh; Intel Mac OS X 10_15_7) AppleWebKit/537.36 (KHTML, like Gecko) Chrome/96.0.4664.110 Safari/537.36",1440,900,1440,728,"main",1011083,125,16,14,"EM","Moderate","Easier than Reference","F","k","riskyDeck","safeDeck",0,-28,-14,"right",0,0,18,"absent","safeDeck",927,5208,1,1
"eshgcb5si7e",1050.04026845638,856.981407909547,13550,"24/03/2022@11:45:38","Mozilla/5.0 (Macintosh; Intel Mac OS X 10_15_7) AppleWebKit/537.36 (KHTML, like Gecko) Chrome/96.0.4664.110 Safari/537.36",1440,900,1440,728,"main",1011083,126,16,14,"EE","Extreme","Easier than Reference","F","j","riskyDeck","safeDeck",-14,0,-7,"right",0,0,25,"present","safeDeck",1189,1749,1,1
"eshgcb5si7e",1050.04026845638,856.981407909547,13550,"24/03/2022@11:45:38","Mozilla/5.0 (Macintosh; Intel Mac OS X 10_15_7) AppleWebKit/537.36 (KHTML, like Gecko) Chrome/96.0.4664.110 Safari/537.36",1440,900,1440,728,"main",1011083,127,16,15,"HE","Extreme","Harder than Reference","D","k","safeDeck","riskyDeck",28,0,14,"left",0,0,46,"absent","safeDeck",767,5522,-1,1
"eshgcb5si7e",1050.04026845638,856.981407909547,13550,"24/03/2022@11:45:38","Mozilla/5.0 (Macintosh; Intel Mac OS X 10_15_7) AppleWebKit/537.36 (KHTML, like Gecko) Chrome/96.0.4664.110 Safari/537.36",1440,900,1440,728,"main",1011083,128,16,15,"HM","Moderate","Harder than Reference","F","j","riskyDeck","safeDeck",0,14,7,"right",0,0,39,"present","safeDeck",893,3328,1,1
"eshgcb5si7e",1050.04026845638,856.981407909547,13550,"24/03/2022@11:45:38","Mozilla/5.0 (Macintosh; Intel Mac OS X 10_15_7) AppleWebKit/537.36 (KHTML, like Gecko) Chrome/96.0.4664.110 Safari/537.36",1440,900,1440,728,"main",1011083,129,16,15,"EM","Moderate","Easier than Reference","D","k","safeDeck","riskyDeck",-28,0,-14,"left",0,0,18,"absent","safeDeck",461,2472,-1,1
"eshgcb5si7e",1050.04026845638,856.981407909547,13550,"24/03/2022@11:45:38","Mozilla/5.0 (Macintosh; Intel Mac OS X 10_15_7) AppleWebKit/537.36 (KHTML, like Gecko) Chrome/96.0.4664.110 Safari/537.36",1440,900,1440,728,"main",1011083,130,16,15,"EE","Extreme","Easier than Reference","D","k","riskyDeck","safeDeck",-14,0,-7,"left",1,0,32,"absent","riskyDeck",702,3208,-1,0
"eshgcb5si7e",1050.04026845638,856.981407909547,13550,"24/03/2022@11:45:38","Mozilla/5.0 (Macintosh; Intel Mac OS X 10_15_7) AppleWebKit/537.36 (KHTML, like Gecko) Chrome/96.0.4664.110 Safari/537.36",1440,900,1440,728,"main",1011083,131,16,15,"HM","Moderate","Harder than Reference","F","j","riskyDeck","safeDeck",14,0,7,"right",0,0,39,"present","safeDeck",462,1467,1,1
"eshgcb5si7e",1050.04026845638,856.981407909547,13550,"24/03/2022@11:45:38","Mozilla/5.0 (Macintosh; Intel Mac OS X 10_15_7) AppleWebKit/537.36 (KHTML, like Gecko) Chrome/96.0.4664.110 Safari/537.36",1440,900,1440,728,"main",1011083,132,16,15,"HE","Extreme","Harder than Reference","D","k","safeDeck","riskyDeck",28,0,14,"left",0,0,46,"absent","safeDeck",579,6977,-1,1
"eshgcb5si7e",1050.04026845638,856.981407909547,13550,"24/03/2022@11:45:38","Mozilla/5.0 (Macintosh; Intel Mac OS X 10_15_7) AppleWebKit/537.36 (KHTML, like Gecko) Chrome/96.0.4664.110 Safari/537.36",1440,900,1440,728,"main",1011083,133,16,15,"EM","Moderate","Easier than Reference","D","j","safeDeck","riskyDeck",-28,0,-14,"left",0,0,18,"present","safeDeck",561,3210,-1,1
"eshgcb5si7e",1050.04026845638,856.981407909547,13550,"24/03/2022@11:45:38","Mozilla/5.0 (Macintosh; Intel Mac OS X 10_15_7) AppleWebKit/537.36 (KHTML, like Gecko) Chrome/96.0.4664.110 Safari/537.36",1440,900,1440,728,"main",1011083,134,16,15,"HM","Moderate","Harder than Reference","F","k","riskyDeck","safeDeck",14,0,7,"right",0,0,39,"absent","safeDeck",1518,3767,1,1
"eshgcb5si7e",1050.04026845638,856.981407909547,13550,"24/03/2022@11:45:38","Mozilla/5.0 (Macintosh; Intel Mac OS X 10_15_7) AppleWebKit/537.36 (KHTML, like Gecko) Chrome/96.0.4664.110 Safari/537.36",1440,900,1440,728,"main",1011083,135,16,15,"HE","Extreme","Harder than Reference","D","j","safeDeck","riskyDeck",0,28,14,"left",0,0,46,"present","safeDeck",737,1721,-1,1
"eshgcb5si7e",1050.04026845638,856.981407909547,13550,"24/03/2022@11:45:38","Mozilla/5.0 (Macintosh; Intel Mac OS X 10_15_7) AppleWebKit/537.36 (KHTML, like Gecko) Chrome/96.0.4664.110 Safari/537.36",1440,900,1440,728,"main",1011083,136,17,15,"EE","Extreme","Easier than Reference","F","j","riskyDeck","safeDeck",-14,0,-7,"right",0,0,25,"present","safeDeck",1080,1084,1,1
"eshgcb5si7e",1050.04026845638,856.981407909547,13550,"24/03/2022@11:45:38","Mozilla/5.0 (Macintosh; Intel Mac OS X 10_15_7) AppleWebKit/537.36 (KHTML, like Gecko) Chrome/96.0.4664.110 Safari/537.36",1440,900,1440,728,"main",1011083,137,17,16,"EE","Extreme","Easier than Reference","F","k","riskyDeck","safeDeck",-14,0,-7,"right",0,0,25,"absent","safeDeck",779,4832,1,1
"eshgcb5si7e",1050.04026845638,856.981407909547,13550,"24/03/2022@11:45:38","Mozilla/5.0 (Macintosh; Intel Mac OS X 10_15_7) AppleWebKit/537.36 (KHTML, like Gecko) Chrome/96.0.4664.110 Safari/537.36",1440,900,1440,728,"main",1011083,138,17,16,"HM","Moderate","Harder than Reference","D","k","safeDeck","riskyDeck",0,14,7,"left",0,0,39,"absent","safeDeck",720,4098,-1,1
"eshgcb5si7e",1050.04026845638,856.981407909547,13550,"24/03/2022@11:45:38","Mozilla/5.0 (Macintosh; Intel Mac OS X 10_15_7) AppleWebKit/537.36 (KHTML, like Gecko) Chrome/96.0.4664.110 Safari/537.36",1440,900,1440,728,"main",1011083,140,17,16,"HE","Extreme","Harder than Reference","D","k","safeDeck","riskyDeck",28,0,14,"left",0,0,46,"absent","safeDeck",437,4861,-1,1
"eshgcb5si7e",1050.04026845638,856.981407909547,13550,"24/03/2022@11:45:38","Mozilla/5.0 (Macintosh; Intel Mac OS X 10_15_7) AppleWebKit/537.36 (KHTML, like Gecko) Chrome/96.0.4664.110 Safari/537.36",1440,900,1440,728,"main",1011083,141,17,16,"EE","Extreme","Easier than Reference","F","k","riskyDeck","safeDeck",-14,0,-7,"right",0,0,25,"absent","safeDeck",680,2403,1,1
