subject,sona_id,curTime,userAgent,screenWidth,screenHeight,windowWidth,windowHeight,phase,phase_run_time,choice_trial,search_trial,exp_runtime_mins,phase_runtime_mins,condition,magnitude,direction,choice_response_key,search_response_key,left_deck_id,right_deck_id,risky_deck_outcome_top,risky_deck_outcome_bottom,safe_deck_outcome,selected_deck_location,selectedRiskyDeck,error,n_stimuli,present_or_absent,chosenDeckId,choice_rt,search_rt
oiwlhroc52k_pilot,test,23/03/2022@10:31:50,"Mozilla/5.0 (Macintosh; Intel Mac OS X 10_15_7) AppleWebKit/537.36 (KHTML, like Gecko) Chrome/98.0.4758.109 Safari/537.36",1440,900,1440,742,main,1807573,1,1,3,2,HM,Moderate,Harder than Reference,F,k,safeDeck,riskyDeck,14,0,7,right,1,0,46,absent,riskyDeck,1762,1266
oiwlhroc52k_pilot,test,23/03/2022@10:31:50,"Mozilla/5.0 (Macintosh; Intel Mac OS X 10_15_7) AppleWebKit/537.36 (KHTML, like Gecko) Chrome/98.0.4758.109 Safari/537.36",1440,900,1440,742,main,1807573,1,2,3,2,HM,Moderate,Harder than Reference,F,j,safeDeck,riskyDeck,14,0,7,right,1,0,46,present,riskyDeck,1762,2225
oiwlhroc52k_pilot,test,23/03/2022@10:31:50,"Mozilla/5.0 (Macintosh; Intel Mac OS X 10_15_7) AppleWebKit/537.36 (KHTML, like Gecko) Chrome/98.0.4758.109 Safari/537.36",1440,900,1440,742,main,1807573,1,3,3,2,HM,Moderate,Harder than Reference,F,k,safeDeck,riskyDeck,14,0,7,right,1,1,46,present,riskyDeck,1762,2738
oiwlhroc52k_pilot,test,23/03/2022@10:31:50,"Mozilla/5.0 (Macintosh; Intel Mac OS X 10_15_7) AppleWebKit/537.36 (KHTML, like Gecko) Chrome/98.0.4758.109 Safari/537.36",1440,900,1440,742,main,1807573,1,4,3,2,HM,Moderate,Harder than Reference,F,k,safeDeck,riskyDeck,14,0,7,right,1,0,46,absent,riskyDeck,1762,2726
oiwlhroc52k_pilot,test,23/03/2022@10:31:50,"Mozilla/5.0 (Macintosh; Intel Mac OS X 10_15_7) AppleWebKit/537.36 (KHTML, like Gecko) Chrome/98.0.4758.109 Safari/537.36",1440,900,1440,742,main,1807573,1,5,3,2,HM,Moderate,Harder than Reference,F,j,safeDeck,riskyDeck,14,0,7,right,1,0,46,present,riskyDeck,1762,1355
oiwlhroc52k_pilot,test,23/03/2022@10:31:50,"Mozilla/5.0 (Macintosh; Intel Mac OS X 10_15_7) AppleWebKit/537.36 (KHTML, like Gecko) Chrome/98.0.4758.109 Safari/537.36",1440,900,1440,742,main,1807573,1,6,3,2,HM,Moderate,Harder than Reference,F,k,safeDeck,riskyDeck,14,0,7,right,1,0,46,absent,riskyDeck,1762,2404
oiwlhroc52k_pilot,test,23/03/2022@10:31:50,"Mozilla/5.0 (Macintosh; Intel Mac OS X 10_15_7) AppleWebKit/537.36 (KHTML, like Gecko) Chrome/98.0.4758.109 Safari/537.36",1440,900,1440,742,main,1807573,1,7,3,2,HM,Moderate,Harder than Reference,F,k,safeDeck,riskyDeck,14,0,7,right,1,0,46,absent,riskyDeck,1762,2389
oiwlhroc52k_pilot,test,23/03/2022@10:31:50,"Mozilla/5.0 (Macintosh; Intel Mac OS X 10_15_7) AppleWebKit/537.36 (KHTML, like Gecko) Chrome/98.0.4758.109 Safari/537.36",1440,900,1440,742,main,1807573,1,8,3,2,HM,Moderate,Harder than Reference,F,k,safeDeck,riskyDeck,14,0,7,right,1,0,46,absent,riskyDeck,1762,2191
oiwlhroc52k_pilot,test,23/03/2022@10:31:50,"Mozilla/5.0 (Macintosh; Intel Mac OS X 10_15_7) AppleWebKit/537.36 (KHTML, like Gecko) Chrome/98.0.4758.109 Safari/537.36",1440,900,1440,742,main,1807573,1,9,3,2,HM,Moderate,Harder than Reference,F,j,safeDeck,riskyDeck,14,0,7,right,1,0,46,present,riskyDeck,1762,1191
oiwlhroc52k_pilot,test,23/03/2022@10:31:50,"Mozilla/5.0 (Macintosh; Intel Mac OS X 10_15_7) AppleWebKit/537.36 (KHTML, like Gecko) Chrome/98.0.4758.109 Safari/537.36",1440,900,1440,742,main,1807573,1,10,3,2,HM,Moderate,Harder than Reference,F,k,safeDeck,riskyDeck,14,0,7,right,1,0,46,absent,riskyDeck,1762,2756
oiwlhroc52k_pilot,test,23/03/2022@10:31:50,"Mozilla/5.0 (Macintosh; Intel Mac OS X 10_15_7) AppleWebKit/537.36 (KHTML, like Gecko) Chrome/98.0.4758.109 Safari/537.36",1440,900,1440,742,main,1807573,1,11,3,2,HM,Moderate,Harder than Reference,F,j,safeDeck,riskyDeck,14,0,7,right,1,0,46,present,riskyDeck,1762,2191
oiwlhroc52k_pilot,test,23/03/2022@10:31:50,"Mozilla/5.0 (Macintosh; Intel Mac OS X 10_15_7) AppleWebKit/537.36 (KHTML, like Gecko) Chrome/98.0.4758.109 Safari/537.36",1440,900,1440,742,main,1807573,1,12,3,2,HM,Moderate,Harder than Reference,F,j,safeDeck,riskyDeck,14,0,7,right,1,0,46,present,riskyDeck,1762,880
oiwlhroc52k_pilot,test,23/03/2022@10:31:50,"Mozilla/5.0 (Macintosh; Intel Mac OS X 10_15_7) AppleWebKit/537.36 (KHTML, like Gecko) Chrome/98.0.4758.109 Safari/537.36",1440,900,1440,742,main,1807573,1,13,3,2,HM,Moderate,Harder than Reference,F,k,safeDeck,riskyDeck,14,0,7,right,1,0,46,absent,riskyDeck,1762,1677
oiwlhroc52k_pilot,test,23/03/2022@10:31:50,"Mozilla/5.0 (Macintosh; Intel Mac OS X 10_15_7) AppleWebKit/537.36 (KHTML, like Gecko) Chrome/98.0.4758.109 Safari/537.36",1440,900,1440,742,main,1807573,1,14,3,2,HM,Moderate,Harder than Reference,F,k,safeDeck,riskyDeck,14,0,7,right,1,1,46,present,riskyDeck,1762,1539
oiwlhroc52k_pilot,test,23/03/2022@10:31:50,"Mozilla/5.0 (Macintosh; Intel Mac OS X 10_15_7) AppleWebKit/537.36 (KHTML, like Gecko) Chrome/98.0.4758.109 Safari/537.36",1440,900,1440,742,main,1807573,1,15,3,2,HM,Moderate,Harder than Reference,F,k,safeDeck,riskyDeck,14,0,7,right,1,1,46,present,riskyDeck,1762,2335
oiwlhroc52k_pilot,test,23/03/2022@10:31:50,"Mozilla/5.0 (Macintosh; Intel Mac OS X 10_15_7) AppleWebKit/537.36 (KHTML, like Gecko) Chrome/98.0.4758.109 Safari/537.36",1440,900,1440,742,main,1807573,1,16,3,2,HM,Moderate,Harder than Reference,F,j,safeDeck,riskyDeck,14,0,7,right,1,0,46,present,riskyDeck,1762,1194
oiwlhroc52k_pilot,test,23/03/2022@10:31:50,"Mozilla/5.0 (Macintosh; Intel Mac OS X 10_15_7) AppleWebKit/537.36 (KHTML, like Gecko) Chrome/98.0.4758.109 Safari/537.36",1440,900,1440,742,main,1807573,1,17,4,2,HM,Moderate,Harder than Reference,F,j,safeDeck,riskyDeck,14,0,7,right,1,0,46,present,riskyDeck,1762,2464
oiwlhroc52k_pilot,test,23/03/2022@10:31:50,"Mozilla/5.0 (Macintosh; Intel Mac OS X 10_15_7) AppleWebKit/537.36 (KHTML, like Gecko) Chrome/98.0.4758.109 Safari/537.36",1440,900,1440,742,main,1807573,2,1,4,3,HE,Extreme,Harder than Reference,F,k,safeDeck,riskyDeck,0,28,14,right,1,0,32,absent,riskyDeck,2002,2532
oiwlhroc52k_pilot,test,23/03/2022@10:31:50,"Mozilla/5.0 (Macintosh; Intel Mac OS X 10_15_7) AppleWebKit/537.36 (KHTML, like Gecko) Chrome/98.0.4758.109 Safari/537.36",1440,900,1440,742,main,1807573,2,2,4,3,HE,Extreme,Harder than Reference,F,j,safeDeck,riskyDeck,0,28,14,right,1,0,32,present,riskyDeck,2002,1095
oiwlhroc52k_pilot,test,23/03/2022@10:31:50,"Mozilla/5.0 (Macintosh; Intel Mac OS X 10_15_7) AppleWebKit/537.36 (KHTML, like Gecko) Chrome/98.0.4758.109 Safari/537.36",1440,900,1440,742,main,1807573,2,3,4,3,HE,Extreme,Harder than Reference,F,k,safeDeck,riskyDeck,0,28,14,right,1,1,32,present,riskyDeck,2002,1976
oiwlhroc52k_pilot,test,23/03/2022@10:31:50,"Mozilla/5.0 (Macintosh; Intel Mac OS X 10_15_7) AppleWebKit/537.36 (KHTML, like Gecko) Chrome/98.0.4758.109 Safari/537.36",1440,900,1440,742,main,1807573,2,4,4,3,HE,Extreme,Harder than Reference,F,k,safeDeck,riskyDeck,0,28,14,right,1,0,32,absent,riskyDeck,2002,1565
oiwlhroc52k_pilot,test,23/03/2022@10:31:50,"Mozilla/5.0 (Macintosh; Intel Mac OS X 10_15_7) AppleWebKit/537.36 (KHTML, like Gecko) Chrome/98.0.4758.109 Safari/537.36",1440,900,1440,742,main,1807573,2,5,4,3,HE,Extreme,Harder than Reference,F,k,safeDeck,riskyDeck,0,28,14,right,1,0,32,absent,riskyDeck,2002,3186
oiwlhroc52k_pilot,test,23/03/2022@10:31:50,"Mozilla/5.0 (Macintosh; Intel Mac OS X 10_15_7) AppleWebKit/537.36 (KHTML, like Gecko) Chrome/98.0.4758.109 Safari/537.36",1440,900,1440,742,main,1807573,2,6,4,3,HE,Extreme,Harder than Reference,F,j,safeDeck,riskyDeck,0,28,14,right,1,1,32,absent,riskyDeck,2002,3808
oiwlhroc52k_pilot,test,23/03/2022@10:31:50,"Mozilla/5.0 (Macintosh; Intel Mac OS X 10_15_7) AppleWebKit/537.36 (KHTML, like Gecko) Chrome/98.0.4758.109 Safari/537.36",1440,900,1440,742,main,1807573,2,7,4,3,HE,Extreme,Harder than Reference,F,k,safeDeck,riskyDeck,0,28,14,right,1,0,32,absent,riskyDeck,2002,2411
oiwlhroc52k_pilot,test,23/03/2022@10:31:50,"Mozilla/5.0 (Macintosh; Intel Mac OS X 10_15_7) AppleWebKit/537.36 (KHTML, like Gecko) Chrome/98.0.4758.109 Safari/537.36",1440,900,1440,742,main,1807573,2,8,4,3,HE,Extreme,Harder than Reference,F,k,safeDeck,riskyDeck,0,28,14,right,1,0,32,absent,riskyDeck,2002,1542
oiwlhroc52k_pilot,test,23/03/2022@10:31:50,"Mozilla/5.0 (Macintosh; Intel Mac OS X 10_15_7) AppleWebKit/537.36 (KHTML, like Gecko) Chrome/98.0.4758.109 Safari/537.36",1440,900,1440,742,main,1807573,2,9,4,3,HE,Extreme,Harder than Reference,F,j,safeDeck,riskyDeck,0,28,14,right,1,0,32,present,riskyDeck,2002,1540
oiwlhroc52k_pilot,test,23/03/2022@10:31:50,"Mozilla/5.0 (Macintosh; Intel Mac OS X 10_15_7) AppleWebKit/537.36 (KHTML, like Gecko) Chrome/98.0.4758.109 Safari/537.36",1440,900,1440,742,main,1807573,2,10,4,3,HE,Extreme,Harder than Reference,F,j,safeDeck,riskyDeck,0,28,14,right,1,0,32,present,riskyDeck,2002,1393
oiwlhroc52k_pilot,test,23/03/2022@10:31:50,"Mozilla/5.0 (Macintosh; Intel Mac OS X 10_15_7) AppleWebKit/537.36 (KHTML, like Gecko) Chrome/98.0.4758.109 Safari/537.36",1440,900,1440,742,main,1807573,2,11,4,3,HE,Extreme,Harder than Reference,F,k,safeDeck,riskyDeck,0,28,14,right,1,0,32,absent,riskyDeck,2002,1887
oiwlhroc52k_pilot,test,23/03/2022@10:31:50,"Mozilla/5.0 (Macintosh; Intel Mac OS X 10_15_7) AppleWebKit/537.36 (KHTML, like Gecko) Chrome/98.0.4758.109 Safari/537.36",1440,900,1440,742,main,1807573,2,12,4,3,HE,Extreme,Harder than Reference,F,j,safeDeck,riskyDeck,0,28,14,right,1,0,32,present,riskyDeck,2002,1109
oiwlhroc52k_pilot,test,23/03/2022@10:31:50,"Mozilla/5.0 (Macintosh; Intel Mac OS X 10_15_7) AppleWebKit/537.36 (KHTML, like Gecko) Chrome/98.0.4758.109 Safari/537.36",1440,900,1440,742,main,1807573,2,13,4,3,HE,Extreme,Harder than Reference,F,k,safeDeck,riskyDeck,0,28,14,right,1,0,32,absent,riskyDeck,2002,1556
oiwlhroc52k_pilot,test,23/03/2022@10:31:50,"Mozilla/5.0 (Macintosh; Intel Mac OS X 10_15_7) AppleWebKit/537.36 (KHTML, like Gecko) Chrome/98.0.4758.109 Safari/537.36",1440,900,1440,742,main,1807573,2,14,4,3,HE,Extreme,Harder than Reference,F,k,safeDeck,riskyDeck,0,28,14,right,1,0,32,absent,riskyDeck,2002,3253
oiwlhroc52k_pilot,test,23/03/2022@10:31:50,"Mozilla/5.0 (Macintosh; Intel Mac OS X 10_15_7) AppleWebKit/537.36 (KHTML, like Gecko) Chrome/98.0.4758.109 Safari/537.36",1440,900,1440,742,main,1807573,2,15,4,3,HE,Extreme,Harder than Reference,F,k,safeDeck,riskyDeck,0,28,14,right,1,0,32,absent,riskyDeck,2002,1719
oiwlhroc52k_pilot,test,23/03/2022@10:31:50,"Mozilla/5.0 (Macintosh; Intel Mac OS X 10_15_7) AppleWebKit/537.36 (KHTML, like Gecko) Chrome/98.0.4758.109 Safari/537.36",1440,900,1440,742,main,1807573,2,16,4,3,HE,Extreme,Harder than Reference,F,k,safeDeck,riskyDeck,0,28,14,right,1,0,32,absent,riskyDeck,2002,1914
oiwlhroc52k_pilot,test,23/03/2022@10:31:50,"Mozilla/5.0 (Macintosh; Intel Mac OS X 10_15_7) AppleWebKit/537.36 (KHTML, like Gecko) Chrome/98.0.4758.109 Safari/537.36",1440,900,1440,742,main,1807573,2,17,4,3,HE,Extreme,Harder than Reference,F,j,safeDeck,riskyDeck,0,28,14,right,1,0,32,present,riskyDeck,2002,1444
oiwlhroc52k_pilot,test,23/03/2022@10:31:50,"Mozilla/5.0 (Macintosh; Intel Mac OS X 10_15_7) AppleWebKit/537.36 (KHTML, like Gecko) Chrome/98.0.4758.109 Safari/537.36",1440,900,1440,742,main,1807573,3,1,4,3,EE,Extreme,Easier than Reference,D,j,riskyDeck,safeDeck,-14,0,-7,left,1,0,18,present,riskyDeck,775,925
oiwlhroc52k_pilot,test,23/03/2022@10:31:50,"Mozilla/5.0 (Macintosh; Intel Mac OS X 10_15_7) AppleWebKit/537.36 (KHTML, like Gecko) Chrome/98.0.4758.109 Safari/537.36",1440,900,1440,742,main,1807573,3,2,4,3,EE,Extreme,Easier than Reference,D,k,riskyDeck,safeDeck,-14,0,-7,left,1,0,18,absent,riskyDeck,775,1195
oiwlhroc52k_pilot,test,23/03/2022@10:31:50,"Mozilla/5.0 (Macintosh; Intel Mac OS X 10_15_7) AppleWebKit/537.36 (KHTML, like Gecko) Chrome/98.0.4758.109 Safari/537.36",1440,900,1440,742,main,1807573,3,3,4,3,EE,Extreme,Easier than Reference,D,k,riskyDeck,safeDeck,-14,0,-7,left,1,0,18,absent,riskyDeck,775,1682
oiwlhroc52k_pilot,test,23/03/2022@10:31:50,"Mozilla/5.0 (Macintosh; Intel Mac OS X 10_15_7) AppleWebKit/537.36 (KHTML, like Gecko) Chrome/98.0.4758.109 Safari/537.36",1440,900,1440,742,main,1807573,3,4,4,3,EE,Extreme,Easier than Reference,D,k,riskyDeck,safeDeck,-14,0,-7,left,1,0,18,absent,riskyDeck,775,758
oiwlhroc52k_pilot,test,23/03/2022@10:31:50,"Mozilla/5.0 (Macintosh; Intel Mac OS X 10_15_7) AppleWebKit/537.36 (KHTML, like Gecko) Chrome/98.0.4758.109 Safari/537.36",1440,900,1440,742,main,1807573,3,5,4,3,EE,Extreme,Easier than Reference,D,j,riskyDeck,safeDeck,-14,0,-7,left,1,0,18,present,riskyDeck,775,716
oiwlhroc52k_pilot,test,23/03/2022@10:31:50,"Mozilla/5.0 (Macintosh; Intel Mac OS X 10_15_7) AppleWebKit/537.36 (KHTML, like Gecko) Chrome/98.0.4758.109 Safari/537.36",1440,900,1440,742,main,1807573,3,6,4,3,EE,Extreme,Easier than Reference,D,k,riskyDeck,safeDeck,-14,0,-7,left,1,0,18,absent,riskyDeck,775,707
oiwlhroc52k_pilot,test,23/03/2022@10:31:50,"Mozilla/5.0 (Macintosh; Intel Mac OS X 10_15_7) AppleWebKit/537.36 (KHTML, like Gecko) Chrome/98.0.4758.109 Safari/537.36",1440,900,1440,742,main,1807573,3,7,4,3,EE,Extreme,Easier than Reference,D,j,riskyDeck,safeDeck,-14,0,-7,left,1,0,18,present,riskyDeck,775,642
oiwlhroc52k_pilot,test,23/03/2022@10:31:50,"Mozilla/5.0 (Macintosh; Intel Mac OS X 10_15_7) AppleWebKit/537.36 (KHTML, like Gecko) Chrome/98.0.4758.109 Safari/537.36",1440,900,1440,742,main,1807573,3,8,4,3,EE,Extreme,Easier than Reference,D,k,riskyDeck,safeDeck,-14,0,-7,left,1,0,18,absent,riskyDeck,775,989
oiwlhroc52k_pilot,test,23/03/2022@10:31:50,"Mozilla/5.0 (Macintosh; Intel Mac OS X 10_15_7) AppleWebKit/537.36 (KHTML, like Gecko) Chrome/98.0.4758.109 Safari/537.36",1440,900,1440,742,main,1807573,3,9,5,3,EE,Extreme,Easier than Reference,D,k,riskyDeck,safeDeck,-14,0,-7,left,1,1,18,present,riskyDeck,775,1678
oiwlhroc52k_pilot,test,23/03/2022@10:31:50,"Mozilla/5.0 (Macintosh; Intel Mac OS X 10_15_7) AppleWebKit/537.36 (KHTML, like Gecko) Chrome/98.0.4758.109 Safari/537.36",1440,900,1440,742,main,1807573,3,10,5,4,EE,Extreme,Easier than Reference,D,k,riskyDeck,safeDeck,-14,0,-7,left,1,0,18,absent,riskyDeck,775,4273
oiwlhroc52k_pilot,test,23/03/2022@10:31:50,"Mozilla/5.0 (Macintosh; Intel Mac OS X 10_15_7) AppleWebKit/537.36 (KHTML, like Gecko) Chrome/98.0.4758.109 Safari/537.36",1440,900,1440,742,main,1807573,3,11,5,4,EE,Extreme,Easier than Reference,D,k,riskyDeck,safeDeck,-14,0,-7,left,1,0,18,absent,riskyDeck,775,1263
oiwlhroc52k_pilot,test,23/03/2022@10:31:50,"Mozilla/5.0 (Macintosh; Intel Mac OS X 10_15_7) AppleWebKit/537.36 (KHTML, like Gecko) Chrome/98.0.4758.109 Safari/537.36",1440,900,1440,742,main,1807573,3,12,5,4,EE,Extreme,Easier than Reference,D,k,riskyDeck,safeDeck,-14,0,-7,left,1,0,18,absent,riskyDeck,775,1443
oiwlhroc52k_pilot,test,23/03/2022@10:31:50,"Mozilla/5.0 (Macintosh; Intel Mac OS X 10_15_7) AppleWebKit/537.36 (KHTML, like Gecko) Chrome/98.0.4758.109 Safari/537.36",1440,900,1440,742,main,1807573,3,13,5,4,EE,Extreme,Easier than Reference,D,j,riskyDeck,safeDeck,-14,0,-7,left,1,0,18,present,riskyDeck,775,870
oiwlhroc52k_pilot,test,23/03/2022@10:31:50,"Mozilla/5.0 (Macintosh; Intel Mac OS X 10_15_7) AppleWebKit/537.36 (KHTML, like Gecko) Chrome/98.0.4758.109 Safari/537.36",1440,900,1440,742,main,1807573,3,14,5,4,EE,Extreme,Easier than Reference,D,j,riskyDeck,safeDeck,-14,0,-7,left,1,0,18,present,riskyDeck,775,1418
oiwlhroc52k_pilot,test,23/03/2022@10:31:50,"Mozilla/5.0 (Macintosh; Intel Mac OS X 10_15_7) AppleWebKit/537.36 (KHTML, like Gecko) Chrome/98.0.4758.109 Safari/537.36",1440,900,1440,742,main,1807573,3,15,5,4,EE,Extreme,Easier than Reference,D,j,riskyDeck,safeDeck,-14,0,-7,left,1,0,18,present,riskyDeck,775,743
oiwlhroc52k_pilot,test,23/03/2022@10:31:50,"Mozilla/5.0 (Macintosh; Intel Mac OS X 10_15_7) AppleWebKit/537.36 (KHTML, like Gecko) Chrome/98.0.4758.109 Safari/537.36",1440,900,1440,742,main,1807573,3,16,5,4,EE,Extreme,Easier than Reference,D,k,riskyDeck,safeDeck,-14,0,-7,left,1,0,18,absent,riskyDeck,775,1892
oiwlhroc52k_pilot,test,23/03/2022@10:31:50,"Mozilla/5.0 (Macintosh; Intel Mac OS X 10_15_7) AppleWebKit/537.36 (KHTML, like Gecko) Chrome/98.0.4758.109 Safari/537.36",1440,900,1440,742,main,1807573,3,17,5,4,EE,Extreme,Easier than Reference,D,k,riskyDeck,safeDeck,-14,0,-7,left,1,0,18,absent,riskyDeck,775,1325
oiwlhroc52k_pilot,test,23/03/2022@10:31:50,"Mozilla/5.0 (Macintosh; Intel Mac OS X 10_15_7) AppleWebKit/537.36 (KHTML, like Gecko) Chrome/98.0.4758.109 Safari/537.36",1440,900,1440,742,main,1807573,4,1,5,4,EM,Moderate,Easier than Reference,D,k,riskyDeck,safeDeck,-28,0,-14,left,1,0,32,absent,riskyDeck,2069,2759
oiwlhroc52k_pilot,test,23/03/2022@10:31:50,"Mozilla/5.0 (Macintosh; Intel Mac OS X 10_15_7) AppleWebKit/537.36 (KHTML, like Gecko) Chrome/98.0.4758.109 Safari/537.36",1440,900,1440,742,main,1807573,4,2,5,4,EM,Moderate,Easier than Reference,D,k,riskyDeck,safeDeck,-28,0,-14,left,1,0,32,absent,riskyDeck,2069,1240
oiwlhroc52k_pilot,test,23/03/2022@10:31:50,"Mozilla/5.0 (Macintosh; Intel Mac OS X 10_15_7) AppleWebKit/537.36 (KHTML, like Gecko) Chrome/98.0.4758.109 Safari/537.36",1440,900,1440,742,main,1807573,4,3,5,4,EM,Moderate,Easier than Reference,D,j,riskyDeck,safeDeck,-28,0,-14,left,1,0,32,present,riskyDeck,2069,1301
oiwlhroc52k_pilot,test,23/03/2022@10:31:50,"Mozilla/5.0 (Macintosh; Intel Mac OS X 10_15_7) AppleWebKit/537.36 (KHTML, like Gecko) Chrome/98.0.4758.109 Safari/537.36",1440,900,1440,742,main,1807573,4,4,5,4,EM,Moderate,Easier than Reference,D,j,riskyDeck,safeDeck,-28,0,-14,left,1,0,32,present,riskyDeck,2069,837
oiwlhroc52k_pilot,test,23/03/2022@10:31:50,"Mozilla/5.0 (Macintosh; Intel Mac OS X 10_15_7) AppleWebKit/537.36 (KHTML, like Gecko) Chrome/98.0.4758.109 Safari/537.36",1440,900,1440,742,main,1807573,4,5,5,4,EM,Moderate,Easier than Reference,D,k,riskyDeck,safeDeck,-28,0,-14,left,1,0,32,absent,riskyDeck,2069,1802
oiwlhroc52k_pilot,test,23/03/2022@10:31:50,"Mozilla/5.0 (Macintosh; Intel Mac OS X 10_15_7) AppleWebKit/537.36 (KHTML, like Gecko) Chrome/98.0.4758.109 Safari/537.36",1440,900,1440,742,main,1807573,4,6,5,4,EM,Moderate,Easier than Reference,D,k,riskyDeck,safeDeck,-28,0,-14,left,1,0,32,absent,riskyDeck,2069,3340
oiwlhroc52k_pilot,test,23/03/2022@10:31:50,"Mozilla/5.0 (Macintosh; Intel Mac OS X 10_15_7) AppleWebKit/537.36 (KHTML, like Gecko) Chrome/98.0.4758.109 Safari/537.36",1440,900,1440,742,main,1807573,4,7,5,4,EM,Moderate,Easier than Reference,D,j,riskyDeck,safeDeck,-28,0,-14,left,1,0,32,present,riskyDeck,2069,931
oiwlhroc52k_pilot,test,23/03/2022@10:31:50,"Mozilla/5.0 (Macintosh; Intel Mac OS X 10_15_7) AppleWebKit/537.36 (KHTML, like Gecko) Chrome/98.0.4758.109 Safari/537.36",1440,900,1440,742,main,1807573,4,8,5,4,EM,Moderate,Easier than Reference,D,k,riskyDeck,safeDeck,-28,0,-14,left,1,0,32,absent,riskyDeck,2069,1208
oiwlhroc52k_pilot,test,23/03/2022@10:31:50,"Mozilla/5.0 (Macintosh; Intel Mac OS X 10_15_7) AppleWebKit/537.36 (KHTML, like Gecko) Chrome/98.0.4758.109 Safari/537.36",1440,900,1440,742,main,1807573,4,9,5,4,EM,Moderate,Easier than Reference,D,j,riskyDeck,safeDeck,-28,0,-14,left,1,0,32,present,riskyDeck,2069,844
oiwlhroc52k_pilot,test,23/03/2022@10:31:50,"Mozilla/5.0 (Macintosh; Intel Mac OS X 10_15_7) AppleWebKit/537.36 (KHTML, like Gecko) Chrome/98.0.4758.109 Safari/537.36",1440,900,1440,742,main,1807573,4,10,5,4,EM,Moderate,Easier than Reference,D,j,riskyDeck,safeDeck,-28,0,-14,left,1,0,32,present,riskyDeck,2069,796
oiwlhroc52k_pilot,test,23/03/2022@10:31:50,"Mozilla/5.0 (Macintosh; Intel Mac OS X 10_15_7) AppleWebKit/537.36 (KHTML, like Gecko) Chrome/98.0.4758.109 Safari/537.36",1440,900,1440,742,main,1807573,4,11,5,4,EM,Moderate,Easier than Reference,D,j,riskyDeck,safeDeck,-28,0,-14,left,1,0,32,present,riskyDeck,2069,1111
oiwlhroc52k_pilot,test,23/03/2022@10:31:50,"Mozilla/5.0 (Macintosh; Intel Mac OS X 10_15_7) AppleWebKit/537.36 (KHTML, like Gecko) Chrome/98.0.4758.109 Safari/537.36",1440,900,1440,742,main,1807573,4,12,5,4,EM,Moderate,Easier than Reference,D,j,riskyDeck,safeDeck,-28,0,-14,left,1,0,32,present,riskyDeck,2069,994
oiwlhroc52k_pilot,test,23/03/2022@10:31:50,"Mozilla/5.0 (Macintosh; Intel Mac OS X 10_15_7) AppleWebKit/537.36 (KHTML, like Gecko) Chrome/98.0.4758.109 Safari/537.36",1440,900,1440,742,main,1807573,4,13,5,4,EM,Moderate,Easier than Reference,D,k,riskyDeck,safeDeck,-28,0,-14,left,1,0,32,absent,riskyDeck,2069,1881
oiwlhroc52k_pilot,test,23/03/2022@10:31:50,"Mozilla/5.0 (Macintosh; Intel Mac OS X 10_15_7) AppleWebKit/537.36 (KHTML, like Gecko) Chrome/98.0.4758.109 Safari/537.36",1440,900,1440,742,main,1807573,4,14,5,4,EM,Moderate,Easier than Reference,D,j,riskyDeck,safeDeck,-28,0,-14,left,1,0,32,present,riskyDeck,2069,741
oiwlhroc52k_pilot,test,23/03/2022@10:31:50,"Mozilla/5.0 (Macintosh; Intel Mac OS X 10_15_7) AppleWebKit/537.36 (KHTML, like Gecko) Chrome/98.0.4758.109 Safari/537.36",1440,900,1440,742,main,1807573,4,15,5,4,EM,Moderate,Easier than Reference,D,j,riskyDeck,safeDeck,-28,0,-14,left,1,0,32,present,riskyDeck,2069,869
oiwlhroc52k_pilot,test,23/03/2022@10:31:50,"Mozilla/5.0 (Macintosh; Intel Mac OS X 10_15_7) AppleWebKit/537.36 (KHTML, like Gecko) Chrome/98.0.4758.109 Safari/537.36",1440,900,1440,742,main,1807573,4,16,5,4,EM,Moderate,Easier than Reference,D,k,riskyDeck,safeDeck,-28,0,-14,left,1,0,32,absent,riskyDeck,2069,1809
oiwlhroc52k_pilot,test,23/03/2022@10:31:50,"Mozilla/5.0 (Macintosh; Intel Mac OS X 10_15_7) AppleWebKit/537.36 (KHTML, like Gecko) Chrome/98.0.4758.109 Safari/537.36",1440,900,1440,742,main,1807573,4,17,5,4,EM,Moderate,Easier than Reference,D,j,riskyDeck,safeDeck,-28,0,-14,left,1,0,32,present,riskyDeck,2069,1084
oiwlhroc52k_pilot,test,23/03/2022@10:31:50,"Mozilla/5.0 (Macintosh; Intel Mac OS X 10_15_7) AppleWebKit/537.36 (KHTML, like Gecko) Chrome/98.0.4758.109 Safari/537.36",1440,900,1440,742,main,1807573,5,1,5,4,HM,Moderate,Harder than Reference,D,k,riskyDeck,safeDeck,14,0,7,left,1,1,46,present,riskyDeck,436,2215
oiwlhroc52k_pilot,test,23/03/2022@10:31:50,"Mozilla/5.0 (Macintosh; Intel Mac OS X 10_15_7) AppleWebKit/537.36 (KHTML, like Gecko) Chrome/98.0.4758.109 Safari/537.36",1440,900,1440,742,main,1807573,5,2,6,4,HM,Moderate,Harder than Reference,D,k,riskyDeck,safeDeck,14,0,7,left,1,0,46,absent,riskyDeck,436,4119
oiwlhroc52k_pilot,test,23/03/2022@10:31:50,"Mozilla/5.0 (Macintosh; Intel Mac OS X 10_15_7) AppleWebKit/537.36 (KHTML, like Gecko) Chrome/98.0.4758.109 Safari/537.36",1440,900,1440,742,main,1807573,5,3,6,5,HM,Moderate,Harder than Reference,D,k,riskyDeck,safeDeck,14,0,7,left,1,0,46,absent,riskyDeck,436,2845
oiwlhroc52k_pilot,test,23/03/2022@10:31:50,"Mozilla/5.0 (Macintosh; Intel Mac OS X 10_15_7) AppleWebKit/537.36 (KHTML, like Gecko) Chrome/98.0.4758.109 Safari/537.36",1440,900,1440,742,main,1807573,5,4,6,5,HM,Moderate,Harder than Reference,D,j,riskyDeck,safeDeck,14,0,7,left,1,0,46,present,riskyDeck,436,1701
oiwlhroc52k_pilot,test,23/03/2022@10:31:50,"Mozilla/5.0 (Macintosh; Intel Mac OS X 10_15_7) AppleWebKit/537.36 (KHTML, like Gecko) Chrome/98.0.4758.109 Safari/537.36",1440,900,1440,742,main,1807573,5,5,6,5,HM,Moderate,Harder than Reference,D,k,riskyDeck,safeDeck,14,0,7,left,1,0,46,absent,riskyDeck,436,1151
oiwlhroc52k_pilot,test,23/03/2022@10:31:50,"Mozilla/5.0 (Macintosh; Intel Mac OS X 10_15_7) AppleWebKit/537.36 (KHTML, like Gecko) Chrome/98.0.4758.109 Safari/537.36",1440,900,1440,742,main,1807573,5,6,6,5,HM,Moderate,Harder than Reference,D,j,riskyDeck,safeDeck,14,0,7,left,1,0,46,present,riskyDeck,436,1103
oiwlhroc52k_pilot,test,23/03/2022@10:31:50,"Mozilla/5.0 (Macintosh; Intel Mac OS X 10_15_7) AppleWebKit/537.36 (KHTML, like Gecko) Chrome/98.0.4758.109 Safari/537.36",1440,900,1440,742,main,1807573,5,7,6,5,HM,Moderate,Harder than Reference,D,j,riskyDeck,safeDeck,14,0,7,left,1,0,46,present,riskyDeck,436,1543
oiwlhroc52k_pilot,test,23/03/2022@10:31:50,"Mozilla/5.0 (Macintosh; Intel Mac OS X 10_15_7) AppleWebKit/537.36 (KHTML, like Gecko) Chrome/98.0.4758.109 Safari/537.36",1440,900,1440,742,main,1807573,5,8,6,5,HM,Moderate,Harder than Reference,D,k,riskyDeck,safeDeck,14,0,7,left,1,0,46,absent,riskyDeck,436,2978
oiwlhroc52k_pilot,test,23/03/2022@10:31:50,"Mozilla/5.0 (Macintosh; Intel Mac OS X 10_15_7) AppleWebKit/537.36 (KHTML, like Gecko) Chrome/98.0.4758.109 Safari/537.36",1440,900,1440,742,main,1807573,5,9,6,5,HM,Moderate,Harder than Reference,D,k,riskyDeck,safeDeck,14,0,7,left,1,0,46,absent,riskyDeck,436,2306
oiwlhroc52k_pilot,test,23/03/2022@10:31:50,"Mozilla/5.0 (Macintosh; Intel Mac OS X 10_15_7) AppleWebKit/537.36 (KHTML, like Gecko) Chrome/98.0.4758.109 Safari/537.36",1440,900,1440,742,main,1807573,5,10,6,5,HM,Moderate,Harder than Reference,D,j,riskyDeck,safeDeck,14,0,7,left,1,0,46,present,riskyDeck,436,944
oiwlhroc52k_pilot,test,23/03/2022@10:31:50,"Mozilla/5.0 (Macintosh; Intel Mac OS X 10_15_7) AppleWebKit/537.36 (KHTML, like Gecko) Chrome/98.0.4758.109 Safari/537.36",1440,900,1440,742,main,1807573,5,11,6,5,HM,Moderate,Harder than Reference,D,j,riskyDeck,safeDeck,14,0,7,left,1,0,46,present,riskyDeck,436,1134
oiwlhroc52k_pilot,test,23/03/2022@10:31:50,"Mozilla/5.0 (Macintosh; Intel Mac OS X 10_15_7) AppleWebKit/537.36 (KHTML, like Gecko) Chrome/98.0.4758.109 Safari/537.36",1440,900,1440,742,main,1807573,5,12,6,5,HM,Moderate,Harder than Reference,D,k,riskyDeck,safeDeck,14,0,7,left,1,0,46,absent,riskyDeck,436,1876
oiwlhroc52k_pilot,test,23/03/2022@10:31:50,"Mozilla/5.0 (Macintosh; Intel Mac OS X 10_15_7) AppleWebKit/537.36 (KHTML, like Gecko) Chrome/98.0.4758.109 Safari/537.36",1440,900,1440,742,main,1807573,5,13,6,5,HM,Moderate,Harder than Reference,D,j,riskyDeck,safeDeck,14,0,7,left,1,0,46,present,riskyDeck,436,1298
oiwlhroc52k_pilot,test,23/03/2022@10:31:50,"Mozilla/5.0 (Macintosh; Intel Mac OS X 10_15_7) AppleWebKit/537.36 (KHTML, like Gecko) Chrome/98.0.4758.109 Safari/537.36",1440,900,1440,742,main,1807573,5,14,6,5,HM,Moderate,Harder than Reference,D,k,riskyDeck,safeDeck,14,0,7,left,1,0,46,absent,riskyDeck,436,3429
oiwlhroc52k_pilot,test,23/03/2022@10:31:50,"Mozilla/5.0 (Macintosh; Intel Mac OS X 10_15_7) AppleWebKit/537.36 (KHTML, like Gecko) Chrome/98.0.4758.109 Safari/537.36",1440,900,1440,742,main,1807573,5,15,6,5,HM,Moderate,Harder than Reference,D,j,riskyDeck,safeDeck,14,0,7,left,1,0,46,present,riskyDeck,436,1053
oiwlhroc52k_pilot,test,23/03/2022@10:31:50,"Mozilla/5.0 (Macintosh; Intel Mac OS X 10_15_7) AppleWebKit/537.36 (KHTML, like Gecko) Chrome/98.0.4758.109 Safari/537.36",1440,900,1440,742,main,1807573,5,16,6,5,HM,Moderate,Harder than Reference,D,k,riskyDeck,safeDeck,14,0,7,left,1,1,46,present,riskyDeck,436,1990
oiwlhroc52k_pilot,test,23/03/2022@10:31:50,"Mozilla/5.0 (Macintosh; Intel Mac OS X 10_15_7) AppleWebKit/537.36 (KHTML, like Gecko) Chrome/98.0.4758.109 Safari/537.36",1440,900,1440,742,main,1807573,5,17,6,5,HM,Moderate,Harder than Reference,D,k,riskyDeck,safeDeck,14,0,7,left,1,0,46,absent,riskyDeck,436,2211
oiwlhroc52k_pilot,test,23/03/2022@10:31:50,"Mozilla/5.0 (Macintosh; Intel Mac OS X 10_15_7) AppleWebKit/537.36 (KHTML, like Gecko) Chrome/98.0.4758.109 Safari/537.36",1440,900,1440,742,main,1807573,6,1,6,5,HE,Extreme,Harder than Reference,F,k,safeDeck,riskyDeck,0,28,14,right,1,1,32,present,riskyDeck,574,3635
oiwlhroc52k_pilot,test,23/03/2022@10:31:50,"Mozilla/5.0 (Macintosh; Intel Mac OS X 10_15_7) AppleWebKit/537.36 (KHTML, like Gecko) Chrome/98.0.4758.109 Safari/537.36",1440,900,1440,742,main,1807573,6,2,6,5,HE,Extreme,Harder than Reference,F,k,safeDeck,riskyDeck,0,28,14,right,1,0,32,absent,riskyDeck,574,2493
oiwlhroc52k_pilot,test,23/03/2022@10:31:50,"Mozilla/5.0 (Macintosh; Intel Mac OS X 10_15_7) AppleWebKit/537.36 (KHTML, like Gecko) Chrome/98.0.4758.109 Safari/537.36",1440,900,1440,742,main,1807573,6,3,6,5,HE,Extreme,Harder than Reference,F,k,safeDeck,riskyDeck,0,28,14,right,1,0,32,absent,riskyDeck,574,2138
oiwlhroc52k_pilot,test,23/03/2022@10:31:50,"Mozilla/5.0 (Macintosh; Intel Mac OS X 10_15_7) AppleWebKit/537.36 (KHTML, like Gecko) Chrome/98.0.4758.109 Safari/537.36",1440,900,1440,742,main,1807573,6,4,6,5,HE,Extreme,Harder than Reference,F,j,safeDeck,riskyDeck,0,28,14,right,1,0,32,present,riskyDeck,574,1092
oiwlhroc52k_pilot,test,23/03/2022@10:31:50,"Mozilla/5.0 (Macintosh; Intel Mac OS X 10_15_7) AppleWebKit/537.36 (KHTML, like Gecko) Chrome/98.0.4758.109 Safari/537.36",1440,900,1440,742,main,1807573,6,5,6,5,HE,Extreme,Harder than Reference,F,k,safeDeck,riskyDeck,0,28,14,right,1,0,32,absent,riskyDeck,574,1127
oiwlhroc52k_pilot,test,23/03/2022@10:31:50,"Mozilla/5.0 (Macintosh; Intel Mac OS X 10_15_7) AppleWebKit/537.36 (KHTML, like Gecko) Chrome/98.0.4758.109 Safari/537.36",1440,900,1440,742,main,1807573,6,6,6,5,HE,Extreme,Harder than Reference,F,k,safeDeck,riskyDeck,0,28,14,right,1,0,32,absent,riskyDeck,574,3037
oiwlhroc52k_pilot,test,23/03/2022@10:31:50,"Mozilla/5.0 (Macintosh; Intel Mac OS X 10_15_7) AppleWebKit/537.36 (KHTML, like Gecko) Chrome/98.0.4758.109 Safari/537.36",1440,900,1440,742,main,1807573,6,7,6,5,HE,Extreme,Harder than Reference,F,k,safeDeck,riskyDeck,0,28,14,right,1,0,32,absent,riskyDeck,574,1776
oiwlhroc52k_pilot,test,23/03/2022@10:31:50,"Mozilla/5.0 (Macintosh; Intel Mac OS X 10_15_7) AppleWebKit/537.36 (KHTML, like Gecko) Chrome/98.0.4758.109 Safari/537.36",1440,900,1440,742,main,1807573,6,8,7,5,HE,Extreme,Harder than Reference,F,k,safeDeck,riskyDeck,0,28,14,right,1,1,32,present,riskyDeck,574,1187
oiwlhroc52k_pilot,test,23/03/2022@10:31:50,"Mozilla/5.0 (Macintosh; Intel Mac OS X 10_15_7) AppleWebKit/537.36 (KHTML, like Gecko) Chrome/98.0.4758.109 Safari/537.36",1440,900,1440,742,main,1807573,6,9,7,6,HE,Extreme,Harder than Reference,F,k,safeDeck,riskyDeck,0,28,14,right,1,0,32,absent,riskyDeck,574,1685
oiwlhroc52k_pilot,test,23/03/2022@10:31:50,"Mozilla/5.0 (Macintosh; Intel Mac OS X 10_15_7) AppleWebKit/537.36 (KHTML, like Gecko) Chrome/98.0.4758.109 Safari/537.36",1440,900,1440,742,main,1807573,6,10,7,6,HE,Extreme,Harder than Reference,F,k,safeDeck,riskyDeck,0,28,14,right,1,0,32,absent,riskyDeck,574,1998
oiwlhroc52k_pilot,test,23/03/2022@10:31:50,"Mozilla/5.0 (Macintosh; Intel Mac OS X 10_15_7) AppleWebKit/537.36 (KHTML, like Gecko) Chrome/98.0.4758.109 Safari/537.36",1440,900,1440,742,main,1807573,6,11,7,6,HE,Extreme,Harder than Reference,F,j,safeDeck,riskyDeck,0,28,14,right,1,0,32,present,riskyDeck,574,1094
oiwlhroc52k_pilot,test,23/03/2022@10:31:50,"Mozilla/5.0 (Macintosh; Intel Mac OS X 10_15_7) AppleWebKit/537.36 (KHTML, like Gecko) Chrome/98.0.4758.109 Safari/537.36",1440,900,1440,742,main,1807573,6,12,7,6,HE,Extreme,Harder than Reference,F,k,safeDeck,riskyDeck,0,28,14,right,1,0,32,absent,riskyDeck,574,3594
oiwlhroc52k_pilot,test,23/03/2022@10:31:50,"Mozilla/5.0 (Macintosh; Intel Mac OS X 10_15_7) AppleWebKit/537.36 (KHTML, like Gecko) Chrome/98.0.4758.109 Safari/537.36",1440,900,1440,742,main,1807573,6,13,7,6,HE,Extreme,Harder than Reference,F,j,safeDeck,riskyDeck,0,28,14,right,1,0,32,present,riskyDeck,574,711
oiwlhroc52k_pilot,test,23/03/2022@10:31:50,"Mozilla/5.0 (Macintosh; Intel Mac OS X 10_15_7) AppleWebKit/537.36 (KHTML, like Gecko) Chrome/98.0.4758.109 Safari/537.36",1440,900,1440,742,main,1807573,6,14,7,6,HE,Extreme,Harder than Reference,F,k,safeDeck,riskyDeck,0,28,14,right,1,0,32,absent,riskyDeck,574,1655
oiwlhroc52k_pilot,test,23/03/2022@10:31:50,"Mozilla/5.0 (Macintosh; Intel Mac OS X 10_15_7) AppleWebKit/537.36 (KHTML, like Gecko) Chrome/98.0.4758.109 Safari/537.36",1440,900,1440,742,main,1807573,6,15,7,6,HE,Extreme,Harder than Reference,F,j,safeDeck,riskyDeck,0,28,14,right,1,0,32,present,riskyDeck,574,897
oiwlhroc52k_pilot,test,23/03/2022@10:31:50,"Mozilla/5.0 (Macintosh; Intel Mac OS X 10_15_7) AppleWebKit/537.36 (KHTML, like Gecko) Chrome/98.0.4758.109 Safari/537.36",1440,900,1440,742,main,1807573,6,16,7,6,HE,Extreme,Harder than Reference,F,k,safeDeck,riskyDeck,0,28,14,right,1,1,32,present,riskyDeck,574,1737
oiwlhroc52k_pilot,test,23/03/2022@10:31:50,"Mozilla/5.0 (Macintosh; Intel Mac OS X 10_15_7) AppleWebKit/537.36 (KHTML, like Gecko) Chrome/98.0.4758.109 Safari/537.36",1440,900,1440,742,main,1807573,6,17,7,6,HE,Extreme,Harder than Reference,F,j,safeDeck,riskyDeck,0,28,14,right,1,0,32,present,riskyDeck,574,952
oiwlhroc52k_pilot,test,23/03/2022@10:31:50,"Mozilla/5.0 (Macintosh; Intel Mac OS X 10_15_7) AppleWebKit/537.36 (KHTML, like Gecko) Chrome/98.0.4758.109 Safari/537.36",1440,900,1440,742,main,1807573,7,1,7,6,EE,Extreme,Easier than Reference,F,j,safeDeck,riskyDeck,-14,0,-7,right,1,0,18,present,riskyDeck,1286,1072
oiwlhroc52k_pilot,test,23/03/2022@10:31:50,"Mozilla/5.0 (Macintosh; Intel Mac OS X 10_15_7) AppleWebKit/537.36 (KHTML, like Gecko) Chrome/98.0.4758.109 Safari/537.36",1440,900,1440,742,main,1807573,7,2,7,6,EE,Extreme,Easier than Reference,F,k,safeDeck,riskyDeck,-14,0,-7,right,1,0,18,absent,riskyDeck,1286,1259
oiwlhroc52k_pilot,test,23/03/2022@10:31:50,"Mozilla/5.0 (Macintosh; Intel Mac OS X 10_15_7) AppleWebKit/537.36 (KHTML, like Gecko) Chrome/98.0.4758.109 Safari/537.36",1440,900,1440,742,main,1807573,7,3,7,6,EE,Extreme,Easier than Reference,F,j,safeDeck,riskyDeck,-14,0,-7,right,1,0,18,present,riskyDeck,1286,936
oiwlhroc52k_pilot,test,23/03/2022@10:31:50,"Mozilla/5.0 (Macintosh; Intel Mac OS X 10_15_7) AppleWebKit/537.36 (KHTML, like Gecko) Chrome/98.0.4758.109 Safari/537.36",1440,900,1440,742,main,1807573,7,4,7,6,EE,Extreme,Easier than Reference,F,k,safeDeck,riskyDeck,-14,0,-7,right,1,0,18,absent,riskyDeck,1286,1195
oiwlhroc52k_pilot,test,23/03/2022@10:31:50,"Mozilla/5.0 (Macintosh; Intel Mac OS X 10_15_7) AppleWebKit/537.36 (KHTML, like Gecko) Chrome/98.0.4758.109 Safari/537.36",1440,900,1440,742,main,1807573,7,5,7,6,EE,Extreme,Easier than Reference,F,j,safeDeck,riskyDeck,-14,0,-7,right,1,0,18,present,riskyDeck,1286,764
oiwlhroc52k_pilot,test,23/03/2022@10:31:50,"Mozilla/5.0 (Macintosh; Intel Mac OS X 10_15_7) AppleWebKit/537.36 (KHTML, like Gecko) Chrome/98.0.4758.109 Safari/537.36",1440,900,1440,742,main,1807573,7,6,7,6,EE,Extreme,Easier than Reference,F,k,safeDeck,riskyDeck,-14,0,-7,right,1,1,18,present,riskyDeck,1286,1131
oiwlhroc52k_pilot,test,23/03/2022@10:31:50,"Mozilla/5.0 (Macintosh; Intel Mac OS X 10_15_7) AppleWebKit/537.36 (KHTML, like Gecko) Chrome/98.0.4758.109 Safari/537.36",1440,900,1440,742,main,1807573,7,7,7,6,EE,Extreme,Easier than Reference,F,k,safeDeck,riskyDeck,-14,0,-7,right,1,0,18,absent,riskyDeck,1286,1273
oiwlhroc52k_pilot,test,23/03/2022@10:31:50,"Mozilla/5.0 (Macintosh; Intel Mac OS X 10_15_7) AppleWebKit/537.36 (KHTML, like Gecko) Chrome/98.0.4758.109 Safari/537.36",1440,900,1440,742,main,1807573,7,8,7,6,EE,Extreme,Easier than Reference,F,k,safeDeck,riskyDeck,-14,0,-7,right,1,0,18,absent,riskyDeck,1286,918
oiwlhroc52k_pilot,test,23/03/2022@10:31:50,"Mozilla/5.0 (Macintosh; Intel Mac OS X 10_15_7) AppleWebKit/537.36 (KHTML, like Gecko) Chrome/98.0.4758.109 Safari/537.36",1440,900,1440,742,main,1807573,7,9,7,6,EE,Extreme,Easier than Reference,F,j,safeDeck,riskyDeck,-14,0,-7,right,1,0,18,present,riskyDeck,1286,683
oiwlhroc52k_pilot,test,23/03/2022@10:31:50,"Mozilla/5.0 (Macintosh; Intel Mac OS X 10_15_7) AppleWebKit/537.36 (KHTML, like Gecko) Chrome/98.0.4758.109 Safari/537.36",1440,900,1440,742,main,1807573,7,10,7,6,EE,Extreme,Easier than Reference,F,k,safeDeck,riskyDeck,-14,0,-7,right,1,0,18,absent,riskyDeck,1286,773
oiwlhroc52k_pilot,test,23/03/2022@10:31:50,"Mozilla/5.0 (Macintosh; Intel Mac OS X 10_15_7) AppleWebKit/537.36 (KHTML, like Gecko) Chrome/98.0.4758.109 Safari/537.36",1440,900,1440,742,main,1807573,7,11,7,6,EE,Extreme,Easier than Reference,F,j,safeDeck,riskyDeck,-14,0,-7,right,1,0,18,present,riskyDeck,1286,1255
oiwlhroc52k_pilot,test,23/03/2022@10:31:50,"Mozilla/5.0 (Macintosh; Intel Mac OS X 10_15_7) AppleWebKit/537.36 (KHTML, like Gecko) Chrome/98.0.4758.109 Safari/537.36",1440,900,1440,742,main,1807573,7,12,7,6,EE,Extreme,Easier than Reference,F,k,safeDeck,riskyDeck,-14,0,-7,right,1,0,18,absent,riskyDeck,1286,631
oiwlhroc52k_pilot,test,23/03/2022@10:31:50,"Mozilla/5.0 (Macintosh; Intel Mac OS X 10_15_7) AppleWebKit/537.36 (KHTML, like Gecko) Chrome/98.0.4758.109 Safari/537.36",1440,900,1440,742,main,1807573,7,13,7,6,EE,Extreme,Easier than Reference,F,k,safeDeck,riskyDeck,-14,0,-7,right,1,0,18,absent,riskyDeck,1286,1121
oiwlhroc52k_pilot,test,23/03/2022@10:31:50,"Mozilla/5.0 (Macintosh; Intel Mac OS X 10_15_7) AppleWebKit/537.36 (KHTML, like Gecko) Chrome/98.0.4758.109 Safari/537.36",1440,900,1440,742,main,1807573,7,14,7,6,EE,Extreme,Easier than Reference,F,j,safeDeck,riskyDeck,-14,0,-7,right,1,0,18,present,riskyDeck,1286,718
oiwlhroc52k_pilot,test,23/03/2022@10:31:50,"Mozilla/5.0 (Macintosh; Intel Mac OS X 10_15_7) AppleWebKit/537.36 (KHTML, like Gecko) Chrome/98.0.4758.109 Safari/537.36",1440,900,1440,742,main,1807573,7,15,7,6,EE,Extreme,Easier than Reference,F,k,safeDeck,riskyDeck,-14,0,-7,right,1,0,18,absent,riskyDeck,1286,1815
oiwlhroc52k_pilot,test,23/03/2022@10:31:50,"Mozilla/5.0 (Macintosh; Intel Mac OS X 10_15_7) AppleWebKit/537.36 (KHTML, like Gecko) Chrome/98.0.4758.109 Safari/537.36",1440,900,1440,742,main,1807573,7,16,7,6,EE,Extreme,Easier than Reference,F,j,safeDeck,riskyDeck,-14,0,-7,right,1,0,18,present,riskyDeck,1286,934
oiwlhroc52k_pilot,test,23/03/2022@10:31:50,"Mozilla/5.0 (Macintosh; Intel Mac OS X 10_15_7) AppleWebKit/537.36 (KHTML, like Gecko) Chrome/98.0.4758.109 Safari/537.36",1440,900,1440,742,main,1807573,7,17,7,6,EE,Extreme,Easier than Reference,F,k,safeDeck,riskyDeck,-14,0,-7,right,1,0,18,absent,riskyDeck,1286,1110
oiwlhroc52k_pilot,test,23/03/2022@10:31:50,"Mozilla/5.0 (Macintosh; Intel Mac OS X 10_15_7) AppleWebKit/537.36 (KHTML, like Gecko) Chrome/98.0.4758.109 Safari/537.36",1440,900,1440,742,main,1807573,8,1,7,6,EM,Moderate,Easier than Reference,D,k,riskyDeck,safeDeck,0,-28,-14,left,1,1,32,present,riskyDeck,886,987
oiwlhroc52k_pilot,test,23/03/2022@10:31:50,"Mozilla/5.0 (Macintosh; Intel Mac OS X 10_15_7) AppleWebKit/537.36 (KHTML, like Gecko) Chrome/98.0.4758.109 Safari/537.36",1440,900,1440,742,main,1807573,8,2,7,6,EM,Moderate,Easier than Reference,D,j,riskyDeck,safeDeck,0,-28,-14,left,1,0,32,present,riskyDeck,886,915
oiwlhroc52k_pilot,test,23/03/2022@10:31:50,"Mozilla/5.0 (Macintosh; Intel Mac OS X 10_15_7) AppleWebKit/537.36 (KHTML, like Gecko) Chrome/98.0.4758.109 Safari/537.36",1440,900,1440,742,main,1807573,8,3,7,6,EM,Moderate,Easier than Reference,D,k,riskyDeck,safeDeck,0,-28,-14,left,1,0,32,absent,riskyDeck,886,2211
oiwlhroc52k_pilot,test,23/03/2022@10:31:50,"Mozilla/5.0 (Macintosh; Intel Mac OS X 10_15_7) AppleWebKit/537.36 (KHTML, like Gecko) Chrome/98.0.4758.109 Safari/537.36",1440,900,1440,742,main,1807573,8,4,8,6,EM,Moderate,Easier than Reference,D,k,riskyDeck,safeDeck,0,-28,-14,left,1,0,32,absent,riskyDeck,886,1998
oiwlhroc52k_pilot,test,23/03/2022@10:31:50,"Mozilla/5.0 (Macintosh; Intel Mac OS X 10_15_7) AppleWebKit/537.36 (KHTML, like Gecko) Chrome/98.0.4758.109 Safari/537.36",1440,900,1440,742,main,1807573,8,5,8,6,EM,Moderate,Easier than Reference,D,j,riskyDeck,safeDeck,0,-28,-14,left,1,0,32,present,riskyDeck,886,932
oiwlhroc52k_pilot,test,23/03/2022@10:31:50,"Mozilla/5.0 (Macintosh; Intel Mac OS X 10_15_7) AppleWebKit/537.36 (KHTML, like Gecko) Chrome/98.0.4758.109 Safari/537.36",1440,900,1440,742,main,1807573,8,6,8,6,EM,Moderate,Easier than Reference,D,j,riskyDeck,safeDeck,0,-28,-14,left,1,0,32,present,riskyDeck,886,926
oiwlhroc52k_pilot,test,23/03/2022@10:31:50,"Mozilla/5.0 (Macintosh; Intel Mac OS X 10_15_7) AppleWebKit/537.36 (KHTML, like Gecko) Chrome/98.0.4758.109 Safari/537.36",1440,900,1440,742,main,1807573,8,7,8,7,EM,Moderate,Easier than Reference,D,k,riskyDeck,safeDeck,0,-28,-14,left,1,0,32,absent,riskyDeck,886,1786
oiwlhroc52k_pilot,test,23/03/2022@10:31:50,"Mozilla/5.0 (Macintosh; Intel Mac OS X 10_15_7) AppleWebKit/537.36 (KHTML, like Gecko) Chrome/98.0.4758.109 Safari/537.36",1440,900,1440,742,main,1807573,8,8,8,7,EM,Moderate,Easier than Reference,D,k,riskyDeck,safeDeck,0,-28,-14,left,1,0,32,absent,riskyDeck,886,1353
oiwlhroc52k_pilot,test,23/03/2022@10:31:50,"Mozilla/5.0 (Macintosh; Intel Mac OS X 10_15_7) AppleWebKit/537.36 (KHTML, like Gecko) Chrome/98.0.4758.109 Safari/537.36",1440,900,1440,742,main,1807573,8,9,8,7,EM,Moderate,Easier than Reference,D,k,riskyDeck,safeDeck,0,-28,-14,left,1,0,32,absent,riskyDeck,886,2052
oiwlhroc52k_pilot,test,23/03/2022@10:31:50,"Mozilla/5.0 (Macintosh; Intel Mac OS X 10_15_7) AppleWebKit/537.36 (KHTML, like Gecko) Chrome/98.0.4758.109 Safari/537.36",1440,900,1440,742,main,1807573,8,10,8,7,EM,Moderate,Easier than Reference,D,k,riskyDeck,safeDeck,0,-28,-14,left,1,0,32,absent,riskyDeck,886,2708
oiwlhroc52k_pilot,test,23/03/2022@10:31:50,"Mozilla/5.0 (Macintosh; Intel Mac OS X 10_15_7) AppleWebKit/537.36 (KHTML, like Gecko) Chrome/98.0.4758.109 Safari/537.36",1440,900,1440,742,main,1807573,8,11,8,7,EM,Moderate,Easier than Reference,D,k,riskyDeck,safeDeck,0,-28,-14,left,1,1,32,present,riskyDeck,886,1575
oiwlhroc52k_pilot,test,23/03/2022@10:31:50,"Mozilla/5.0 (Macintosh; Intel Mac OS X 10_15_7) AppleWebKit/537.36 (KHTML, like Gecko) Chrome/98.0.4758.109 Safari/537.36",1440,900,1440,742,main,1807573,8,12,8,7,EM,Moderate,Easier than Reference,D,j,riskyDeck,safeDeck,0,-28,-14,left,1,0,32,present,riskyDeck,886,895
oiwlhroc52k_pilot,test,23/03/2022@10:31:50,"Mozilla/5.0 (Macintosh; Intel Mac OS X 10_15_7) AppleWebKit/537.36 (KHTML, like Gecko) Chrome/98.0.4758.109 Safari/537.36",1440,900,1440,742,main,1807573,8,13,8,7,EM,Moderate,Easier than Reference,D,k,riskyDeck,safeDeck,0,-28,-14,left,1,0,32,absent,riskyDeck,886,844
oiwlhroc52k_pilot,test,23/03/2022@10:31:50,"Mozilla/5.0 (Macintosh; Intel Mac OS X 10_15_7) AppleWebKit/537.36 (KHTML, like Gecko) Chrome/98.0.4758.109 Safari/537.36",1440,900,1440,742,main,1807573,8,14,8,7,EM,Moderate,Easier than Reference,D,j,riskyDeck,safeDeck,0,-28,-14,left,1,0,32,present,riskyDeck,886,860
oiwlhroc52k_pilot,test,23/03/2022@10:31:50,"Mozilla/5.0 (Macintosh; Intel Mac OS X 10_15_7) AppleWebKit/537.36 (KHTML, like Gecko) Chrome/98.0.4758.109 Safari/537.36",1440,900,1440,742,main,1807573,8,15,8,7,EM,Moderate,Easier than Reference,D,j,riskyDeck,safeDeck,0,-28,-14,left,1,0,32,present,riskyDeck,886,928
oiwlhroc52k_pilot,test,23/03/2022@10:31:50,"Mozilla/5.0 (Macintosh; Intel Mac OS X 10_15_7) AppleWebKit/537.36 (KHTML, like Gecko) Chrome/98.0.4758.109 Safari/537.36",1440,900,1440,742,main,1807573,8,16,8,7,EM,Moderate,Easier than Reference,D,j,riskyDeck,safeDeck,0,-28,-14,left,1,0,32,present,riskyDeck,886,946
oiwlhroc52k_pilot,test,23/03/2022@10:31:50,"Mozilla/5.0 (Macintosh; Intel Mac OS X 10_15_7) AppleWebKit/537.36 (KHTML, like Gecko) Chrome/98.0.4758.109 Safari/537.36",1440,900,1440,742,main,1807573,8,17,8,7,EM,Moderate,Easier than Reference,D,k,riskyDeck,safeDeck,0,-28,-14,left,1,0,32,absent,riskyDeck,886,1778
oiwlhroc52k_pilot,test,23/03/2022@10:31:50,"Mozilla/5.0 (Macintosh; Intel Mac OS X 10_15_7) AppleWebKit/537.36 (KHTML, like Gecko) Chrome/98.0.4758.109 Safari/537.36",1440,900,1440,742,main,1807573,9,1,8,7,EM,Moderate,Easier than Reference,D,j,riskyDeck,safeDeck,0,-28,-14,left,1,0,32,present,riskyDeck,814,654
oiwlhroc52k_pilot,test,23/03/2022@10:31:50,"Mozilla/5.0 (Macintosh; Intel Mac OS X 10_15_7) AppleWebKit/537.36 (KHTML, like Gecko) Chrome/98.0.4758.109 Safari/537.36",1440,900,1440,742,main,1807573,9,2,8,7,EM,Moderate,Easier than Reference,D,k,riskyDeck,safeDeck,0,-28,-14,left,1,1,32,present,riskyDeck,814,739
oiwlhroc52k_pilot,test,23/03/2022@10:31:50,"Mozilla/5.0 (Macintosh; Intel Mac OS X 10_15_7) AppleWebKit/537.36 (KHTML, like Gecko) Chrome/98.0.4758.109 Safari/537.36",1440,900,1440,742,main,1807573,9,3,8,7,EM,Moderate,Easier than Reference,D,j,riskyDeck,safeDeck,0,-28,-14,left,1,0,32,present,riskyDeck,814,836
oiwlhroc52k_pilot,test,23/03/2022@10:31:50,"Mozilla/5.0 (Macintosh; Intel Mac OS X 10_15_7) AppleWebKit/537.36 (KHTML, like Gecko) Chrome/98.0.4758.109 Safari/537.36",1440,900,1440,742,main,1807573,9,4,8,7,EM,Moderate,Easier than Reference,D,j,riskyDeck,safeDeck,0,-28,-14,left,1,0,32,present,riskyDeck,814,814
oiwlhroc52k_pilot,test,23/03/2022@10:31:50,"Mozilla/5.0 (Macintosh; Intel Mac OS X 10_15_7) AppleWebKit/537.36 (KHTML, like Gecko) Chrome/98.0.4758.109 Safari/537.36",1440,900,1440,742,main,1807573,9,5,8,7,EM,Moderate,Easier than Reference,D,k,riskyDeck,safeDeck,0,-28,-14,left,1,1,32,present,riskyDeck,814,1589
oiwlhroc52k_pilot,test,23/03/2022@10:31:50,"Mozilla/5.0 (Macintosh; Intel Mac OS X 10_15_7) AppleWebKit/537.36 (KHTML, like Gecko) Chrome/98.0.4758.109 Safari/537.36",1440,900,1440,742,main,1807573,9,6,8,7,EM,Moderate,Easier than Reference,D,k,riskyDeck,safeDeck,0,-28,-14,left,1,1,32,present,riskyDeck,814,1178
oiwlhroc52k_pilot,test,23/03/2022@10:31:50,"Mozilla/5.0 (Macintosh; Intel Mac OS X 10_15_7) AppleWebKit/537.36 (KHTML, like Gecko) Chrome/98.0.4758.109 Safari/537.36",1440,900,1440,742,main,1807573,9,7,8,7,EM,Moderate,Easier than Reference,D,k,riskyDeck,safeDeck,0,-28,-14,left,1,1,32,present,riskyDeck,814,875
oiwlhroc52k_pilot,test,23/03/2022@10:31:50,"Mozilla/5.0 (Macintosh; Intel Mac OS X 10_15_7) AppleWebKit/537.36 (KHTML, like Gecko) Chrome/98.0.4758.109 Safari/537.36",1440,900,1440,742,main,1807573,9,8,8,7,EM,Moderate,Easier than Reference,D,j,riskyDeck,safeDeck,0,-28,-14,left,1,0,32,present,riskyDeck,814,1321
oiwlhroc52k_pilot,test,23/03/2022@10:31:50,"Mozilla/5.0 (Macintosh; Intel Mac OS X 10_15_7) AppleWebKit/537.36 (KHTML, like Gecko) Chrome/98.0.4758.109 Safari/537.36",1440,900,1440,742,main,1807573,9,9,8,7,EM,Moderate,Easier than Reference,D,j,riskyDeck,safeDeck,0,-28,-14,left,1,0,32,present,riskyDeck,814,1753
oiwlhroc52k_pilot,test,23/03/2022@10:31:50,"Mozilla/5.0 (Macintosh; Intel Mac OS X 10_15_7) AppleWebKit/537.36 (KHTML, like Gecko) Chrome/98.0.4758.109 Safari/537.36",1440,900,1440,742,main,1807573,9,10,8,7,EM,Moderate,Easier than Reference,D,k,riskyDeck,safeDeck,0,-28,-14,left,1,0,32,absent,riskyDeck,814,1970
oiwlhroc52k_pilot,test,23/03/2022@10:31:50,"Mozilla/5.0 (Macintosh; Intel Mac OS X 10_15_7) AppleWebKit/537.36 (KHTML, like Gecko) Chrome/98.0.4758.109 Safari/537.36",1440,900,1440,742,main,1807573,9,11,8,7,EM,Moderate,Easier than Reference,D,k,riskyDeck,safeDeck,0,-28,-14,left,1,0,32,absent,riskyDeck,814,2081
oiwlhroc52k_pilot,test,23/03/2022@10:31:50,"Mozilla/5.0 (Macintosh; Intel Mac OS X 10_15_7) AppleWebKit/537.36 (KHTML, like Gecko) Chrome/98.0.4758.109 Safari/537.36",1440,900,1440,742,main,1807573,9,12,8,7,EM,Moderate,Easier than Reference,D,k,riskyDeck,safeDeck,0,-28,-14,left,1,0,32,absent,riskyDeck,814,2934
oiwlhroc52k_pilot,test,23/03/2022@10:31:50,"Mozilla/5.0 (Macintosh; Intel Mac OS X 10_15_7) AppleWebKit/537.36 (KHTML, like Gecko) Chrome/98.0.4758.109 Safari/537.36",1440,900,1440,742,main,1807573,9,13,8,7,EM,Moderate,Easier than Reference,D,j,riskyDeck,safeDeck,0,-28,-14,left,1,0,32,present,riskyDeck,814,776
oiwlhroc52k_pilot,test,23/03/2022@10:31:50,"Mozilla/5.0 (Macintosh; Intel Mac OS X 10_15_7) AppleWebKit/537.36 (KHTML, like Gecko) Chrome/98.0.4758.109 Safari/537.36",1440,900,1440,742,main,1807573,9,14,8,7,EM,Moderate,Easier than Reference,D,j,riskyDeck,safeDeck,0,-28,-14,left,1,0,32,present,riskyDeck,814,1047
oiwlhroc52k_pilot,test,23/03/2022@10:31:50,"Mozilla/5.0 (Macintosh; Intel Mac OS X 10_15_7) AppleWebKit/537.36 (KHTML, like Gecko) Chrome/98.0.4758.109 Safari/537.36",1440,900,1440,742,main,1807573,9,15,8,7,EM,Moderate,Easier than Reference,D,j,riskyDeck,safeDeck,0,-28,-14,left,1,0,32,present,riskyDeck,814,1568
oiwlhroc52k_pilot,test,23/03/2022@10:31:50,"Mozilla/5.0 (Macintosh; Intel Mac OS X 10_15_7) AppleWebKit/537.36 (KHTML, like Gecko) Chrome/98.0.4758.109 Safari/537.36",1440,900,1440,742,main,1807573,9,16,9,7,EM,Moderate,Easier than Reference,D,k,riskyDeck,safeDeck,0,-28,-14,left,1,0,32,absent,riskyDeck,814,2043
oiwlhroc52k_pilot,test,23/03/2022@10:31:50,"Mozilla/5.0 (Macintosh; Intel Mac OS X 10_15_7) AppleWebKit/537.36 (KHTML, like Gecko) Chrome/98.0.4758.109 Safari/537.36",1440,900,1440,742,main,1807573,9,17,9,7,EM,Moderate,Easier than Reference,D,j,riskyDeck,safeDeck,0,-28,-14,left,1,0,32,present,riskyDeck,814,682
oiwlhroc52k_pilot,test,23/03/2022@10:31:50,"Mozilla/5.0 (Macintosh; Intel Mac OS X 10_15_7) AppleWebKit/537.36 (KHTML, like Gecko) Chrome/98.0.4758.109 Safari/537.36",1440,900,1440,742,main,1807573,10,1,9,8,EE,Extreme,Easier than Reference,D,j,riskyDeck,safeDeck,0,-14,-7,left,1,0,32,present,riskyDeck,1256,973
oiwlhroc52k_pilot,test,23/03/2022@10:31:50,"Mozilla/5.0 (Macintosh; Intel Mac OS X 10_15_7) AppleWebKit/537.36 (KHTML, like Gecko) Chrome/98.0.4758.109 Safari/537.36",1440,900,1440,742,main,1807573,10,2,9,8,EE,Extreme,Easier than Reference,D,k,riskyDeck,safeDeck,0,-14,-7,left,1,0,32,absent,riskyDeck,1256,2061
oiwlhroc52k_pilot,test,23/03/2022@10:31:50,"Mozilla/5.0 (Macintosh; Intel Mac OS X 10_15_7) AppleWebKit/537.36 (KHTML, like Gecko) Chrome/98.0.4758.109 Safari/537.36",1440,900,1440,742,main,1807573,10,3,9,8,EE,Extreme,Easier than Reference,D,k,riskyDeck,safeDeck,0,-14,-7,left,1,0,32,absent,riskyDeck,1256,2297
oiwlhroc52k_pilot,test,23/03/2022@10:31:50,"Mozilla/5.0 (Macintosh; Intel Mac OS X 10_15_7) AppleWebKit/537.36 (KHTML, like Gecko) Chrome/98.0.4758.109 Safari/537.36",1440,900,1440,742,main,1807573,10,4,9,8,EE,Extreme,Easier than Reference,D,j,riskyDeck,safeDeck,0,-14,-7,left,1,0,32,present,riskyDeck,1256,1010
oiwlhroc52k_pilot,test,23/03/2022@10:31:50,"Mozilla/5.0 (Macintosh; Intel Mac OS X 10_15_7) AppleWebKit/537.36 (KHTML, like Gecko) Chrome/98.0.4758.109 Safari/537.36",1440,900,1440,742,main,1807573,10,5,9,8,EE,Extreme,Easier than Reference,D,k,riskyDeck,safeDeck,0,-14,-7,left,1,0,32,absent,riskyDeck,1256,1578
oiwlhroc52k_pilot,test,23/03/2022@10:31:50,"Mozilla/5.0 (Macintosh; Intel Mac OS X 10_15_7) AppleWebKit/537.36 (KHTML, like Gecko) Chrome/98.0.4758.109 Safari/537.36",1440,900,1440,742,main,1807573,10,6,9,8,EE,Extreme,Easier than Reference,D,j,riskyDeck,safeDeck,0,-14,-7,left,1,0,32,present,riskyDeck,1256,1860
oiwlhroc52k_pilot,test,23/03/2022@10:31:50,"Mozilla/5.0 (Macintosh; Intel Mac OS X 10_15_7) AppleWebKit/537.36 (KHTML, like Gecko) Chrome/98.0.4758.109 Safari/537.36",1440,900,1440,742,main,1807573,10,7,9,8,EE,Extreme,Easier than Reference,D,k,riskyDeck,safeDeck,0,-14,-7,left,1,0,32,absent,riskyDeck,1256,2495
oiwlhroc52k_pilot,test,23/03/2022@10:31:50,"Mozilla/5.0 (Macintosh; Intel Mac OS X 10_15_7) AppleWebKit/537.36 (KHTML, like Gecko) Chrome/98.0.4758.109 Safari/537.36",1440,900,1440,742,main,1807573,10,8,9,8,EE,Extreme,Easier than Reference,D,j,riskyDeck,safeDeck,0,-14,-7,left,1,0,32,present,riskyDeck,1256,2250
oiwlhroc52k_pilot,test,23/03/2022@10:31:50,"Mozilla/5.0 (Macintosh; Intel Mac OS X 10_15_7) AppleWebKit/537.36 (KHTML, like Gecko) Chrome/98.0.4758.109 Safari/537.36",1440,900,1440,742,main,1807573,10,9,9,8,EE,Extreme,Easier than Reference,D,k,riskyDeck,safeDeck,0,-14,-7,left,1,0,32,absent,riskyDeck,1256,1908
oiwlhroc52k_pilot,test,23/03/2022@10:31:50,"Mozilla/5.0 (Macintosh; Intel Mac OS X 10_15_7) AppleWebKit/537.36 (KHTML, like Gecko) Chrome/98.0.4758.109 Safari/537.36",1440,900,1440,742,main,1807573,10,10,9,8,EE,Extreme,Easier than Reference,D,k,riskyDeck,safeDeck,0,-14,-7,left,1,0,32,absent,riskyDeck,1256,2912
oiwlhroc52k_pilot,test,23/03/2022@10:31:50,"Mozilla/5.0 (Macintosh; Intel Mac OS X 10_15_7) AppleWebKit/537.36 (KHTML, like Gecko) Chrome/98.0.4758.109 Safari/537.36",1440,900,1440,742,main,1807573,10,11,9,8,EE,Extreme,Easier than Reference,D,k,riskyDeck,safeDeck,0,-14,-7,left,1,0,32,absent,riskyDeck,1256,4156
oiwlhroc52k_pilot,test,23/03/2022@10:31:50,"Mozilla/5.0 (Macintosh; Intel Mac OS X 10_15_7) AppleWebKit/537.36 (KHTML, like Gecko) Chrome/98.0.4758.109 Safari/537.36",1440,900,1440,742,main,1807573,10,12,9,8,EE,Extreme,Easier than Reference,D,k,riskyDeck,safeDeck,0,-14,-7,left,1,0,32,absent,riskyDeck,1256,5391
oiwlhroc52k_pilot,test,23/03/2022@10:31:50,"Mozilla/5.0 (Macintosh; Intel Mac OS X 10_15_7) AppleWebKit/537.36 (KHTML, like Gecko) Chrome/98.0.4758.109 Safari/537.36",1440,900,1440,742,main,1807573,10,13,9,8,EE,Extreme,Easier than Reference,D,j,riskyDeck,safeDeck,0,-14,-7,left,1,0,32,present,riskyDeck,1256,699
oiwlhroc52k_pilot,test,23/03/2022@10:31:50,"Mozilla/5.0 (Macintosh; Intel Mac OS X 10_15_7) AppleWebKit/537.36 (KHTML, like Gecko) Chrome/98.0.4758.109 Safari/537.36",1440,900,1440,742,main,1807573,10,14,9,8,EE,Extreme,Easier than Reference,D,k,riskyDeck,safeDeck,0,-14,-7,left,1,0,32,absent,riskyDeck,1256,1990
oiwlhroc52k_pilot,test,23/03/2022@10:31:50,"Mozilla/5.0 (Macintosh; Intel Mac OS X 10_15_7) AppleWebKit/537.36 (KHTML, like Gecko) Chrome/98.0.4758.109 Safari/537.36",1440,900,1440,742,main,1807573,10,15,9,8,EE,Extreme,Easier than Reference,D,j,riskyDeck,safeDeck,0,-14,-7,left,1,0,32,present,riskyDeck,1256,578
oiwlhroc52k_pilot,test,23/03/2022@10:31:50,"Mozilla/5.0 (Macintosh; Intel Mac OS X 10_15_7) AppleWebKit/537.36 (KHTML, like Gecko) Chrome/98.0.4758.109 Safari/537.36",1440,900,1440,742,main,1807573,10,16,9,8,EE,Extreme,Easier than Reference,D,k,riskyDeck,safeDeck,0,-14,-7,left,1,0,32,absent,riskyDeck,1256,1335
oiwlhroc52k_pilot,test,23/03/2022@10:31:50,"Mozilla/5.0 (Macintosh; Intel Mac OS X 10_15_7) AppleWebKit/537.36 (KHTML, like Gecko) Chrome/98.0.4758.109 Safari/537.36",1440,900,1440,742,main,1807573,10,17,9,8,EE,Extreme,Easier than Reference,D,j,riskyDeck,safeDeck,0,-14,-7,left,1,0,32,present,riskyDeck,1256,1473
oiwlhroc52k_pilot,test,23/03/2022@10:31:50,"Mozilla/5.0 (Macintosh; Intel Mac OS X 10_15_7) AppleWebKit/537.36 (KHTML, like Gecko) Chrome/98.0.4758.109 Safari/537.36",1440,900,1440,742,main,1807573,11,1,9,8,HE,Extreme,Harder than Reference,D,k,riskyDeck,safeDeck,28,0,14,left,1,0,60,absent,riskyDeck,1138,2974
oiwlhroc52k_pilot,test,23/03/2022@10:31:50,"Mozilla/5.0 (Macintosh; Intel Mac OS X 10_15_7) AppleWebKit/537.36 (KHTML, like Gecko) Chrome/98.0.4758.109 Safari/537.36",1440,900,1440,742,main,1807573,11,2,9,8,HE,Extreme,Harder than Reference,D,j,riskyDeck,safeDeck,28,0,14,left,1,0,60,present,riskyDeck,1138,1651
oiwlhroc52k_pilot,test,23/03/2022@10:31:50,"Mozilla/5.0 (Macintosh; Intel Mac OS X 10_15_7) AppleWebKit/537.36 (KHTML, like Gecko) Chrome/98.0.4758.109 Safari/537.36",1440,900,1440,742,main,1807573,11,3,9,8,HE,Extreme,Harder than Reference,D,k,riskyDeck,safeDeck,28,0,14,left,1,0,60,absent,riskyDeck,1138,2674
oiwlhroc52k_pilot,test,23/03/2022@10:31:50,"Mozilla/5.0 (Macintosh; Intel Mac OS X 10_15_7) AppleWebKit/537.36 (KHTML, like Gecko) Chrome/98.0.4758.109 Safari/537.36",1440,900,1440,742,main,1807573,11,4,10,8,HE,Extreme,Harder than Reference,D,k,riskyDeck,safeDeck,28,0,14,left,1,0,60,absent,riskyDeck,1138,2199
oiwlhroc52k_pilot,test,23/03/2022@10:31:50,"Mozilla/5.0 (Macintosh; Intel Mac OS X 10_15_7) AppleWebKit/537.36 (KHTML, like Gecko) Chrome/98.0.4758.109 Safari/537.36",1440,900,1440,742,main,1807573,11,5,10,8,HE,Extreme,Harder than Reference,D,j,riskyDeck,safeDeck,28,0,14,left,1,0,60,present,riskyDeck,1138,1752
oiwlhroc52k_pilot,test,23/03/2022@10:31:50,"Mozilla/5.0 (Macintosh; Intel Mac OS X 10_15_7) AppleWebKit/537.36 (KHTML, like Gecko) Chrome/98.0.4758.109 Safari/537.36",1440,900,1440,742,main,1807573,11,6,10,9,HE,Extreme,Harder than Reference,D,k,riskyDeck,safeDeck,28,0,14,left,1,0,60,absent,riskyDeck,1138,2882
oiwlhroc52k_pilot,test,23/03/2022@10:31:50,"Mozilla/5.0 (Macintosh; Intel Mac OS X 10_15_7) AppleWebKit/537.36 (KHTML, like Gecko) Chrome/98.0.4758.109 Safari/537.36",1440,900,1440,742,main,1807573,11,7,10,9,HE,Extreme,Harder than Reference,D,k,riskyDeck,safeDeck,28,0,14,left,1,0,60,absent,riskyDeck,1138,2699
oiwlhroc52k_pilot,test,23/03/2022@10:31:50,"Mozilla/5.0 (Macintosh; Intel Mac OS X 10_15_7) AppleWebKit/537.36 (KHTML, like Gecko) Chrome/98.0.4758.109 Safari/537.36",1440,900,1440,742,main,1807573,11,8,10,9,HE,Extreme,Harder than Reference,D,k,riskyDeck,safeDeck,28,0,14,left,1,0,60,absent,riskyDeck,1138,2903
oiwlhroc52k_pilot,test,23/03/2022@10:31:50,"Mozilla/5.0 (Macintosh; Intel Mac OS X 10_15_7) AppleWebKit/537.36 (KHTML, like Gecko) Chrome/98.0.4758.109 Safari/537.36",1440,900,1440,742,main,1807573,11,9,10,9,HE,Extreme,Harder than Reference,D,k,riskyDeck,safeDeck,28,0,14,left,1,0,60,absent,riskyDeck,1138,2763
oiwlhroc52k_pilot,test,23/03/2022@10:31:50,"Mozilla/5.0 (Macintosh; Intel Mac OS X 10_15_7) AppleWebKit/537.36 (KHTML, like Gecko) Chrome/98.0.4758.109 Safari/537.36",1440,900,1440,742,main,1807573,11,10,10,9,HE,Extreme,Harder than Reference,D,k,riskyDeck,safeDeck,28,0,14,left,1,0,60,absent,riskyDeck,1138,3128
oiwlhroc52k_pilot,test,23/03/2022@10:31:50,"Mozilla/5.0 (Macintosh; Intel Mac OS X 10_15_7) AppleWebKit/537.36 (KHTML, like Gecko) Chrome/98.0.4758.109 Safari/537.36",1440,900,1440,742,main,1807573,11,11,10,9,HE,Extreme,Harder than Reference,D,k,riskyDeck,safeDeck,28,0,14,left,1,0,60,absent,riskyDeck,1138,2540
oiwlhroc52k_pilot,test,23/03/2022@10:31:50,"Mozilla/5.0 (Macintosh; Intel Mac OS X 10_15_7) AppleWebKit/537.36 (KHTML, like Gecko) Chrome/98.0.4758.109 Safari/537.36",1440,900,1440,742,main,1807573,11,12,10,9,HE,Extreme,Harder than Reference,D,k,riskyDeck,safeDeck,28,0,14,left,1,0,60,absent,riskyDeck,1138,2679
oiwlhroc52k_pilot,test,23/03/2022@10:31:50,"Mozilla/5.0 (Macintosh; Intel Mac OS X 10_15_7) AppleWebKit/537.36 (KHTML, like Gecko) Chrome/98.0.4758.109 Safari/537.36",1440,900,1440,742,main,1807573,11,13,10,9,HE,Extreme,Harder than Reference,D,j,riskyDeck,safeDeck,28,0,14,left,1,0,60,present,riskyDeck,1138,1309
oiwlhroc52k_pilot,test,23/03/2022@10:31:50,"Mozilla/5.0 (Macintosh; Intel Mac OS X 10_15_7) AppleWebKit/537.36 (KHTML, like Gecko) Chrome/98.0.4758.109 Safari/537.36",1440,900,1440,742,main,1807573,11,14,10,9,HE,Extreme,Harder than Reference,D,k,riskyDeck,safeDeck,28,0,14,left,1,1,60,present,riskyDeck,1138,1153
oiwlhroc52k_pilot,test,23/03/2022@10:31:50,"Mozilla/5.0 (Macintosh; Intel Mac OS X 10_15_7) AppleWebKit/537.36 (KHTML, like Gecko) Chrome/98.0.4758.109 Safari/537.36",1440,900,1440,742,main,1807573,11,15,10,9,HE,Extreme,Harder than Reference,D,j,riskyDeck,safeDeck,28,0,14,left,1,0,60,present,riskyDeck,1138,1736
oiwlhroc52k_pilot,test,23/03/2022@10:31:50,"Mozilla/5.0 (Macintosh; Intel Mac OS X 10_15_7) AppleWebKit/537.36 (KHTML, like Gecko) Chrome/98.0.4758.109 Safari/537.36",1440,900,1440,742,main,1807573,11,16,10,9,HE,Extreme,Harder than Reference,D,k,riskyDeck,safeDeck,28,0,14,left,1,0,60,absent,riskyDeck,1138,2280
oiwlhroc52k_pilot,test,23/03/2022@10:31:50,"Mozilla/5.0 (Macintosh; Intel Mac OS X 10_15_7) AppleWebKit/537.36 (KHTML, like Gecko) Chrome/98.0.4758.109 Safari/537.36",1440,900,1440,742,main,1807573,11,17,10,9,HE,Extreme,Harder than Reference,D,k,riskyDeck,safeDeck,28,0,14,left,1,0,60,absent,riskyDeck,1138,3102
oiwlhroc52k_pilot,test,23/03/2022@10:31:50,"Mozilla/5.0 (Macintosh; Intel Mac OS X 10_15_7) AppleWebKit/537.36 (KHTML, like Gecko) Chrome/98.0.4758.109 Safari/537.36",1440,900,1440,742,main,1807573,12,1,10,9,HM,Moderate,Harder than Reference,D,k,riskyDeck,safeDeck,14,0,7,left,1,0,46,absent,riskyDeck,968,5350
oiwlhroc52k_pilot,test,23/03/2022@10:31:50,"Mozilla/5.0 (Macintosh; Intel Mac OS X 10_15_7) AppleWebKit/537.36 (KHTML, like Gecko) Chrome/98.0.4758.109 Safari/537.36",1440,900,1440,742,main,1807573,12,2,10,9,HM,Moderate,Harder than Reference,D,k,riskyDeck,safeDeck,14,0,7,left,1,0,46,absent,riskyDeck,968,2661
oiwlhroc52k_pilot,test,23/03/2022@10:31:50,"Mozilla/5.0 (Macintosh; Intel Mac OS X 10_15_7) AppleWebKit/537.36 (KHTML, like Gecko) Chrome/98.0.4758.109 Safari/537.36",1440,900,1440,742,main,1807573,12,3,10,9,HM,Moderate,Harder than Reference,D,j,riskyDeck,safeDeck,14,0,7,left,1,0,46,present,riskyDeck,968,1188
oiwlhroc52k_pilot,test,23/03/2022@10:31:50,"Mozilla/5.0 (Macintosh; Intel Mac OS X 10_15_7) AppleWebKit/537.36 (KHTML, like Gecko) Chrome/98.0.4758.109 Safari/537.36",1440,900,1440,742,main,1807573,12,4,10,9,HM,Moderate,Harder than Reference,D,j,riskyDeck,safeDeck,14,0,7,left,1,0,46,present,riskyDeck,968,726
oiwlhroc52k_pilot,test,23/03/2022@10:31:50,"Mozilla/5.0 (Macintosh; Intel Mac OS X 10_15_7) AppleWebKit/537.36 (KHTML, like Gecko) Chrome/98.0.4758.109 Safari/537.36",1440,900,1440,742,main,1807573,12,5,10,9,HM,Moderate,Harder than Reference,D,k,riskyDeck,safeDeck,14,0,7,left,1,0,46,absent,riskyDeck,968,2536
oiwlhroc52k_pilot,test,23/03/2022@10:31:50,"Mozilla/5.0 (Macintosh; Intel Mac OS X 10_15_7) AppleWebKit/537.36 (KHTML, like Gecko) Chrome/98.0.4758.109 Safari/537.36",1440,900,1440,742,main,1807573,12,6,10,9,HM,Moderate,Harder than Reference,D,j,riskyDeck,safeDeck,14,0,7,left,1,0,46,present,riskyDeck,968,1471
oiwlhroc52k_pilot,test,23/03/2022@10:31:50,"Mozilla/5.0 (Macintosh; Intel Mac OS X 10_15_7) AppleWebKit/537.36 (KHTML, like Gecko) Chrome/98.0.4758.109 Safari/537.36",1440,900,1440,742,main,1807573,12,7,10,9,HM,Moderate,Harder than Reference,D,k,riskyDeck,safeDeck,14,0,7,left,1,0,46,absent,riskyDeck,968,2642
oiwlhroc52k_pilot,test,23/03/2022@10:31:50,"Mozilla/5.0 (Macintosh; Intel Mac OS X 10_15_7) AppleWebKit/537.36 (KHTML, like Gecko) Chrome/98.0.4758.109 Safari/537.36",1440,900,1440,742,main,1807573,12,8,11,9,HM,Moderate,Harder than Reference,D,k,riskyDeck,safeDeck,14,0,7,left,1,0,46,absent,riskyDeck,968,2148
oiwlhroc52k_pilot,test,23/03/2022@10:31:50,"Mozilla/5.0 (Macintosh; Intel Mac OS X 10_15_7) AppleWebKit/537.36 (KHTML, like Gecko) Chrome/98.0.4758.109 Safari/537.36",1440,900,1440,742,main,1807573,12,9,11,9,HM,Moderate,Harder than Reference,D,k,riskyDeck,safeDeck,14,0,7,left,1,1,46,present,riskyDeck,968,1383
oiwlhroc52k_pilot,test,23/03/2022@10:31:50,"Mozilla/5.0 (Macintosh; Intel Mac OS X 10_15_7) AppleWebKit/537.36 (KHTML, like Gecko) Chrome/98.0.4758.109 Safari/537.36",1440,900,1440,742,main,1807573,12,10,11,10,HM,Moderate,Harder than Reference,D,j,riskyDeck,safeDeck,14,0,7,left,1,0,46,present,riskyDeck,968,1673
oiwlhroc52k_pilot,test,23/03/2022@10:31:50,"Mozilla/5.0 (Macintosh; Intel Mac OS X 10_15_7) AppleWebKit/537.36 (KHTML, like Gecko) Chrome/98.0.4758.109 Safari/537.36",1440,900,1440,742,main,1807573,12,11,11,10,HM,Moderate,Harder than Reference,D,k,riskyDeck,safeDeck,14,0,7,left,1,0,46,absent,riskyDeck,968,2861
oiwlhroc52k_pilot,test,23/03/2022@10:31:50,"Mozilla/5.0 (Macintosh; Intel Mac OS X 10_15_7) AppleWebKit/537.36 (KHTML, like Gecko) Chrome/98.0.4758.109 Safari/537.36",1440,900,1440,742,main,1807573,12,12,11,10,HM,Moderate,Harder than Reference,D,k,riskyDeck,safeDeck,14,0,7,left,1,1,46,present,riskyDeck,968,1612
oiwlhroc52k_pilot,test,23/03/2022@10:31:50,"Mozilla/5.0 (Macintosh; Intel Mac OS X 10_15_7) AppleWebKit/537.36 (KHTML, like Gecko) Chrome/98.0.4758.109 Safari/537.36",1440,900,1440,742,main,1807573,12,13,11,10,HM,Moderate,Harder than Reference,D,k,riskyDeck,safeDeck,14,0,7,left,1,0,46,absent,riskyDeck,968,1830
oiwlhroc52k_pilot,test,23/03/2022@10:31:50,"Mozilla/5.0 (Macintosh; Intel Mac OS X 10_15_7) AppleWebKit/537.36 (KHTML, like Gecko) Chrome/98.0.4758.109 Safari/537.36",1440,900,1440,742,main,1807573,12,14,11,10,HM,Moderate,Harder than Reference,D,k,riskyDeck,safeDeck,14,0,7,left,1,0,46,absent,riskyDeck,968,2371
oiwlhroc52k_pilot,test,23/03/2022@10:31:50,"Mozilla/5.0 (Macintosh; Intel Mac OS X 10_15_7) AppleWebKit/537.36 (KHTML, like Gecko) Chrome/98.0.4758.109 Safari/537.36",1440,900,1440,742,main,1807573,12,15,11,10,HM,Moderate,Harder than Reference,D,j,riskyDeck,safeDeck,14,0,7,left,1,0,46,present,riskyDeck,968,645
oiwlhroc52k_pilot,test,23/03/2022@10:31:50,"Mozilla/5.0 (Macintosh; Intel Mac OS X 10_15_7) AppleWebKit/537.36 (KHTML, like Gecko) Chrome/98.0.4758.109 Safari/537.36",1440,900,1440,742,main,1807573,12,16,11,10,HM,Moderate,Harder than Reference,D,k,riskyDeck,safeDeck,14,0,7,left,1,0,46,absent,riskyDeck,968,3253
oiwlhroc52k_pilot,test,23/03/2022@10:31:50,"Mozilla/5.0 (Macintosh; Intel Mac OS X 10_15_7) AppleWebKit/537.36 (KHTML, like Gecko) Chrome/98.0.4758.109 Safari/537.36",1440,900,1440,742,main,1807573,12,17,11,10,HM,Moderate,Harder than Reference,D,k,riskyDeck,safeDeck,14,0,7,left,1,0,46,absent,riskyDeck,968,1697
oiwlhroc52k_pilot,test,23/03/2022@10:31:50,"Mozilla/5.0 (Macintosh; Intel Mac OS X 10_15_7) AppleWebKit/537.36 (KHTML, like Gecko) Chrome/98.0.4758.109 Safari/537.36",1440,900,1440,742,main,1807573,13,1,11,10,HE,Extreme,Harder than Reference,F,j,safeDeck,riskyDeck,0,28,14,right,1,0,32,present,riskyDeck,1029,897
oiwlhroc52k_pilot,test,23/03/2022@10:31:50,"Mozilla/5.0 (Macintosh; Intel Mac OS X 10_15_7) AppleWebKit/537.36 (KHTML, like Gecko) Chrome/98.0.4758.109 Safari/537.36",1440,900,1440,742,main,1807573,13,2,11,10,HE,Extreme,Harder than Reference,F,k,safeDeck,riskyDeck,0,28,14,right,1,0,32,absent,riskyDeck,1029,1365
oiwlhroc52k_pilot,test,23/03/2022@10:31:50,"Mozilla/5.0 (Macintosh; Intel Mac OS X 10_15_7) AppleWebKit/537.36 (KHTML, like Gecko) Chrome/98.0.4758.109 Safari/537.36",1440,900,1440,742,main,1807573,13,3,11,10,HE,Extreme,Harder than Reference,F,j,safeDeck,riskyDeck,0,28,14,right,1,0,32,present,riskyDeck,1029,962
oiwlhroc52k_pilot,test,23/03/2022@10:31:50,"Mozilla/5.0 (Macintosh; Intel Mac OS X 10_15_7) AppleWebKit/537.36 (KHTML, like Gecko) Chrome/98.0.4758.109 Safari/537.36",1440,900,1440,742,main,1807573,13,4,11,10,HE,Extreme,Harder than Reference,F,k,safeDeck,riskyDeck,0,28,14,right,1,0,32,absent,riskyDeck,1029,1608
oiwlhroc52k_pilot,test,23/03/2022@10:31:50,"Mozilla/5.0 (Macintosh; Intel Mac OS X 10_15_7) AppleWebKit/537.36 (KHTML, like Gecko) Chrome/98.0.4758.109 Safari/537.36",1440,900,1440,742,main,1807573,13,5,11,10,HE,Extreme,Harder than Reference,F,k,safeDeck,riskyDeck,0,28,14,right,1,0,32,absent,riskyDeck,1029,1680
oiwlhroc52k_pilot,test,23/03/2022@10:31:50,"Mozilla/5.0 (Macintosh; Intel Mac OS X 10_15_7) AppleWebKit/537.36 (KHTML, like Gecko) Chrome/98.0.4758.109 Safari/537.36",1440,900,1440,742,main,1807573,13,6,11,10,HE,Extreme,Harder than Reference,F,k,safeDeck,riskyDeck,0,28,14,right,1,0,32,absent,riskyDeck,1029,1932
oiwlhroc52k_pilot,test,23/03/2022@10:31:50,"Mozilla/5.0 (Macintosh; Intel Mac OS X 10_15_7) AppleWebKit/537.36 (KHTML, like Gecko) Chrome/98.0.4758.109 Safari/537.36",1440,900,1440,742,main,1807573,13,7,11,10,HE,Extreme,Harder than Reference,F,k,safeDeck,riskyDeck,0,28,14,right,1,1,32,present,riskyDeck,1029,3447
oiwlhroc52k_pilot,test,23/03/2022@10:31:50,"Mozilla/5.0 (Macintosh; Intel Mac OS X 10_15_7) AppleWebKit/537.36 (KHTML, like Gecko) Chrome/98.0.4758.109 Safari/537.36",1440,900,1440,742,main,1807573,13,8,11,10,HE,Extreme,Harder than Reference,F,j,safeDeck,riskyDeck,0,28,14,right,1,0,32,present,riskyDeck,1029,1702
oiwlhroc52k_pilot,test,23/03/2022@10:31:50,"Mozilla/5.0 (Macintosh; Intel Mac OS X 10_15_7) AppleWebKit/537.36 (KHTML, like Gecko) Chrome/98.0.4758.109 Safari/537.36",1440,900,1440,742,main,1807573,13,9,11,10,HE,Extreme,Harder than Reference,F,j,safeDeck,riskyDeck,0,28,14,right,1,0,32,present,riskyDeck,1029,1324
oiwlhroc52k_pilot,test,23/03/2022@10:31:50,"Mozilla/5.0 (Macintosh; Intel Mac OS X 10_15_7) AppleWebKit/537.36 (KHTML, like Gecko) Chrome/98.0.4758.109 Safari/537.36",1440,900,1440,742,main,1807573,13,10,11,10,HE,Extreme,Harder than Reference,F,k,safeDeck,riskyDeck,0,28,14,right,1,0,32,absent,riskyDeck,1029,2353
oiwlhroc52k_pilot,test,23/03/2022@10:31:50,"Mozilla/5.0 (Macintosh; Intel Mac OS X 10_15_7) AppleWebKit/537.36 (KHTML, like Gecko) Chrome/98.0.4758.109 Safari/537.36",1440,900,1440,742,main,1807573,13,11,11,10,HE,Extreme,Harder than Reference,F,k,safeDeck,riskyDeck,0,28,14,right,1,0,32,absent,riskyDeck,1029,3509
oiwlhroc52k_pilot,test,23/03/2022@10:31:50,"Mozilla/5.0 (Macintosh; Intel Mac OS X 10_15_7) AppleWebKit/537.36 (KHTML, like Gecko) Chrome/98.0.4758.109 Safari/537.36",1440,900,1440,742,main,1807573,13,12,11,10,HE,Extreme,Harder than Reference,F,k,safeDeck,riskyDeck,0,28,14,right,1,0,32,absent,riskyDeck,1029,4992
oiwlhroc52k_pilot,test,23/03/2022@10:31:50,"Mozilla/5.0 (Macintosh; Intel Mac OS X 10_15_7) AppleWebKit/537.36 (KHTML, like Gecko) Chrome/98.0.4758.109 Safari/537.36",1440,900,1440,742,main,1807573,13,13,12,10,HE,Extreme,Harder than Reference,F,k,safeDeck,riskyDeck,0,28,14,right,1,0,32,absent,riskyDeck,1029,2000
oiwlhroc52k_pilot,test,23/03/2022@10:31:50,"Mozilla/5.0 (Macintosh; Intel Mac OS X 10_15_7) AppleWebKit/537.36 (KHTML, like Gecko) Chrome/98.0.4758.109 Safari/537.36",1440,900,1440,742,main,1807573,13,14,12,11,HE,Extreme,Harder than Reference,F,k,safeDeck,riskyDeck,0,28,14,right,1,0,32,absent,riskyDeck,1029,3089
oiwlhroc52k_pilot,test,23/03/2022@10:31:50,"Mozilla/5.0 (Macintosh; Intel Mac OS X 10_15_7) AppleWebKit/537.36 (KHTML, like Gecko) Chrome/98.0.4758.109 Safari/537.36",1440,900,1440,742,main,1807573,13,15,12,11,HE,Extreme,Harder than Reference,F,k,safeDeck,riskyDeck,0,28,14,right,1,0,32,absent,riskyDeck,1029,3188
oiwlhroc52k_pilot,test,23/03/2022@10:31:50,"Mozilla/5.0 (Macintosh; Intel Mac OS X 10_15_7) AppleWebKit/537.36 (KHTML, like Gecko) Chrome/98.0.4758.109 Safari/537.36",1440,900,1440,742,main,1807573,13,16,12,11,HE,Extreme,Harder than Reference,F,j,safeDeck,riskyDeck,0,28,14,right,1,0,32,present,riskyDeck,1029,598
oiwlhroc52k_pilot,test,23/03/2022@10:31:50,"Mozilla/5.0 (Macintosh; Intel Mac OS X 10_15_7) AppleWebKit/537.36 (KHTML, like Gecko) Chrome/98.0.4758.109 Safari/537.36",1440,900,1440,742,main,1807573,13,17,12,11,HE,Extreme,Harder than Reference,F,k,safeDeck,riskyDeck,0,28,14,right,1,0,32,absent,riskyDeck,1029,1481
oiwlhroc52k_pilot,test,23/03/2022@10:31:50,"Mozilla/5.0 (Macintosh; Intel Mac OS X 10_15_7) AppleWebKit/537.36 (KHTML, like Gecko) Chrome/98.0.4758.109 Safari/537.36",1440,900,1440,742,main,1807573,14,1,12,11,HM,Moderate,Harder than Reference,F,j,safeDeck,riskyDeck,14,0,7,right,1,0,46,present,riskyDeck,1553,1121
oiwlhroc52k_pilot,test,23/03/2022@10:31:50,"Mozilla/5.0 (Macintosh; Intel Mac OS X 10_15_7) AppleWebKit/537.36 (KHTML, like Gecko) Chrome/98.0.4758.109 Safari/537.36",1440,900,1440,742,main,1807573,14,2,12,11,HM,Moderate,Harder than Reference,F,k,safeDeck,riskyDeck,14,0,7,right,1,0,46,absent,riskyDeck,1553,1924
oiwlhroc52k_pilot,test,23/03/2022@10:31:50,"Mozilla/5.0 (Macintosh; Intel Mac OS X 10_15_7) AppleWebKit/537.36 (KHTML, like Gecko) Chrome/98.0.4758.109 Safari/537.36",1440,900,1440,742,main,1807573,14,3,12,11,HM,Moderate,Harder than Reference,F,j,safeDeck,riskyDeck,14,0,7,right,1,0,46,present,riskyDeck,1553,1370
oiwlhroc52k_pilot,test,23/03/2022@10:31:50,"Mozilla/5.0 (Macintosh; Intel Mac OS X 10_15_7) AppleWebKit/537.36 (KHTML, like Gecko) Chrome/98.0.4758.109 Safari/537.36",1440,900,1440,742,main,1807573,14,4,12,11,HM,Moderate,Harder than Reference,F,k,safeDeck,riskyDeck,14,0,7,right,1,1,46,present,riskyDeck,1553,4112
oiwlhroc52k_pilot,test,23/03/2022@10:31:50,"Mozilla/5.0 (Macintosh; Intel Mac OS X 10_15_7) AppleWebKit/537.36 (KHTML, like Gecko) Chrome/98.0.4758.109 Safari/537.36",1440,900,1440,742,main,1807573,14,5,12,11,HM,Moderate,Harder than Reference,F,k,safeDeck,riskyDeck,14,0,7,right,1,1,46,present,riskyDeck,1553,6311
oiwlhroc52k_pilot,test,23/03/2022@10:31:50,"Mozilla/5.0 (Macintosh; Intel Mac OS X 10_15_7) AppleWebKit/537.36 (KHTML, like Gecko) Chrome/98.0.4758.109 Safari/537.36",1440,900,1440,742,main,1807573,14,6,12,11,HM,Moderate,Harder than Reference,F,j,safeDeck,riskyDeck,14,0,7,right,1,0,46,present,riskyDeck,1553,971
oiwlhroc52k_pilot,test,23/03/2022@10:31:50,"Mozilla/5.0 (Macintosh; Intel Mac OS X 10_15_7) AppleWebKit/537.36 (KHTML, like Gecko) Chrome/98.0.4758.109 Safari/537.36",1440,900,1440,742,main,1807573,14,7,12,11,HM,Moderate,Harder than Reference,F,j,safeDeck,riskyDeck,14,0,7,right,1,0,46,present,riskyDeck,1553,687
oiwlhroc52k_pilot,test,23/03/2022@10:31:50,"Mozilla/5.0 (Macintosh; Intel Mac OS X 10_15_7) AppleWebKit/537.36 (KHTML, like Gecko) Chrome/98.0.4758.109 Safari/537.36",1440,900,1440,742,main,1807573,14,8,12,11,HM,Moderate,Harder than Reference,F,k,safeDeck,riskyDeck,14,0,7,right,1,0,46,absent,riskyDeck,1553,1291
oiwlhroc52k_pilot,test,23/03/2022@10:31:50,"Mozilla/5.0 (Macintosh; Intel Mac OS X 10_15_7) AppleWebKit/537.36 (KHTML, like Gecko) Chrome/98.0.4758.109 Safari/537.36",1440,900,1440,742,main,1807573,14,9,12,11,HM,Moderate,Harder than Reference,F,k,safeDeck,riskyDeck,14,0,7,right,1,0,46,absent,riskyDeck,1553,2366
oiwlhroc52k_pilot,test,23/03/2022@10:31:50,"Mozilla/5.0 (Macintosh; Intel Mac OS X 10_15_7) AppleWebKit/537.36 (KHTML, like Gecko) Chrome/98.0.4758.109 Safari/537.36",1440,900,1440,742,main,1807573,14,10,12,11,HM,Moderate,Harder than Reference,F,j,safeDeck,riskyDeck,14,0,7,right,1,0,46,present,riskyDeck,1553,1444
oiwlhroc52k_pilot,test,23/03/2022@10:31:50,"Mozilla/5.0 (Macintosh; Intel Mac OS X 10_15_7) AppleWebKit/537.36 (KHTML, like Gecko) Chrome/98.0.4758.109 Safari/537.36",1440,900,1440,742,main,1807573,14,11,12,11,HM,Moderate,Harder than Reference,F,k,safeDeck,riskyDeck,14,0,7,right,1,1,46,present,riskyDeck,1553,1596
oiwlhroc52k_pilot,test,23/03/2022@10:31:50,"Mozilla/5.0 (Macintosh; Intel Mac OS X 10_15_7) AppleWebKit/537.36 (KHTML, like Gecko) Chrome/98.0.4758.109 Safari/537.36",1440,900,1440,742,main,1807573,14,12,12,11,HM,Moderate,Harder than Reference,F,k,safeDeck,riskyDeck,14,0,7,right,1,0,46,absent,riskyDeck,1553,3715
oiwlhroc52k_pilot,test,23/03/2022@10:31:50,"Mozilla/5.0 (Macintosh; Intel Mac OS X 10_15_7) AppleWebKit/537.36 (KHTML, like Gecko) Chrome/98.0.4758.109 Safari/537.36",1440,900,1440,742,main,1807573,14,13,12,11,HM,Moderate,Harder than Reference,F,j,safeDeck,riskyDeck,14,0,7,right,1,0,46,present,riskyDeck,1553,2643
oiwlhroc52k_pilot,test,23/03/2022@10:31:50,"Mozilla/5.0 (Macintosh; Intel Mac OS X 10_15_7) AppleWebKit/537.36 (KHTML, like Gecko) Chrome/98.0.4758.109 Safari/537.36",1440,900,1440,742,main,1807573,14,14,12,11,HM,Moderate,Harder than Reference,F,k,safeDeck,riskyDeck,14,0,7,right,1,0,46,absent,riskyDeck,1553,2455
oiwlhroc52k_pilot,test,23/03/2022@10:31:50,"Mozilla/5.0 (Macintosh; Intel Mac OS X 10_15_7) AppleWebKit/537.36 (KHTML, like Gecko) Chrome/98.0.4758.109 Safari/537.36",1440,900,1440,742,main,1807573,14,15,13,11,HM,Moderate,Harder than Reference,F,k,safeDeck,riskyDeck,14,0,7,right,1,0,46,absent,riskyDeck,1553,3573
oiwlhroc52k_pilot,test,23/03/2022@10:31:50,"Mozilla/5.0 (Macintosh; Intel Mac OS X 10_15_7) AppleWebKit/537.36 (KHTML, like Gecko) Chrome/98.0.4758.109 Safari/537.36",1440,900,1440,742,main,1807573,14,16,13,11,HM,Moderate,Harder than Reference,F,k,safeDeck,riskyDeck,14,0,7,right,1,1,46,present,riskyDeck,1553,2047
oiwlhroc52k_pilot,test,23/03/2022@10:31:50,"Mozilla/5.0 (Macintosh; Intel Mac OS X 10_15_7) AppleWebKit/537.36 (KHTML, like Gecko) Chrome/98.0.4758.109 Safari/537.36",1440,900,1440,742,main,1807573,14,17,13,12,HM,Moderate,Harder than Reference,F,j,safeDeck,riskyDeck,14,0,7,right,1,0,46,present,riskyDeck,1553,1303
oiwlhroc52k_pilot,test,23/03/2022@10:31:50,"Mozilla/5.0 (Macintosh; Intel Mac OS X 10_15_7) AppleWebKit/537.36 (KHTML, like Gecko) Chrome/98.0.4758.109 Safari/537.36",1440,900,1440,742,main,1807573,15,1,13,12,EM,Moderate,Easier than Reference,F,k,safeDeck,riskyDeck,-28,0,-14,right,1,1,32,present,riskyDeck,888,2870
oiwlhroc52k_pilot,test,23/03/2022@10:31:50,"Mozilla/5.0 (Macintosh; Intel Mac OS X 10_15_7) AppleWebKit/537.36 (KHTML, like Gecko) Chrome/98.0.4758.109 Safari/537.36",1440,900,1440,742,main,1807573,15,2,13,12,EM,Moderate,Easier than Reference,F,j,safeDeck,riskyDeck,-28,0,-14,right,1,0,32,present,riskyDeck,888,750
oiwlhroc52k_pilot,test,23/03/2022@10:31:50,"Mozilla/5.0 (Macintosh; Intel Mac OS X 10_15_7) AppleWebKit/537.36 (KHTML, like Gecko) Chrome/98.0.4758.109 Safari/537.36",1440,900,1440,742,main,1807573,15,3,13,12,EM,Moderate,Easier than Reference,F,j,safeDeck,riskyDeck,-28,0,-14,right,1,0,32,present,riskyDeck,888,897
oiwlhroc52k_pilot,test,23/03/2022@10:31:50,"Mozilla/5.0 (Macintosh; Intel Mac OS X 10_15_7) AppleWebKit/537.36 (KHTML, like Gecko) Chrome/98.0.4758.109 Safari/537.36",1440,900,1440,742,main,1807573,15,4,13,12,EM,Moderate,Easier than Reference,F,j,safeDeck,riskyDeck,-28,0,-14,right,1,0,32,present,riskyDeck,888,580
oiwlhroc52k_pilot,test,23/03/2022@10:31:50,"Mozilla/5.0 (Macintosh; Intel Mac OS X 10_15_7) AppleWebKit/537.36 (KHTML, like Gecko) Chrome/98.0.4758.109 Safari/537.36",1440,900,1440,742,main,1807573,15,5,13,12,EM,Moderate,Easier than Reference,F,j,safeDeck,riskyDeck,-28,0,-14,right,1,0,32,present,riskyDeck,888,1504
oiwlhroc52k_pilot,test,23/03/2022@10:31:50,"Mozilla/5.0 (Macintosh; Intel Mac OS X 10_15_7) AppleWebKit/537.36 (KHTML, like Gecko) Chrome/98.0.4758.109 Safari/537.36",1440,900,1440,742,main,1807573,15,6,13,12,EM,Moderate,Easier than Reference,F,j,safeDeck,riskyDeck,-28,0,-14,right,1,0,32,present,riskyDeck,888,1031
oiwlhroc52k_pilot,test,23/03/2022@10:31:50,"Mozilla/5.0 (Macintosh; Intel Mac OS X 10_15_7) AppleWebKit/537.36 (KHTML, like Gecko) Chrome/98.0.4758.109 Safari/537.36",1440,900,1440,742,main,1807573,15,7,13,12,EM,Moderate,Easier than Reference,F,k,safeDeck,riskyDeck,-28,0,-14,right,1,0,32,absent,riskyDeck,888,2026
oiwlhroc52k_pilot,test,23/03/2022@10:31:50,"Mozilla/5.0 (Macintosh; Intel Mac OS X 10_15_7) AppleWebKit/537.36 (KHTML, like Gecko) Chrome/98.0.4758.109 Safari/537.36",1440,900,1440,742,main,1807573,15,8,13,12,EM,Moderate,Easier than Reference,F,k,safeDeck,riskyDeck,-28,0,-14,right,1,0,32,absent,riskyDeck,888,2456
oiwlhroc52k_pilot,test,23/03/2022@10:31:50,"Mozilla/5.0 (Macintosh; Intel Mac OS X 10_15_7) AppleWebKit/537.36 (KHTML, like Gecko) Chrome/98.0.4758.109 Safari/537.36",1440,900,1440,742,main,1807573,15,9,13,12,EM,Moderate,Easier than Reference,F,k,safeDeck,riskyDeck,-28,0,-14,right,1,0,32,absent,riskyDeck,888,2410
oiwlhroc52k_pilot,test,23/03/2022@10:31:50,"Mozilla/5.0 (Macintosh; Intel Mac OS X 10_15_7) AppleWebKit/537.36 (KHTML, like Gecko) Chrome/98.0.4758.109 Safari/537.36",1440,900,1440,742,main,1807573,15,10,13,12,EM,Moderate,Easier than Reference,F,j,safeDeck,riskyDeck,-28,0,-14,right,1,0,32,present,riskyDeck,888,2144
oiwlhroc52k_pilot,test,23/03/2022@10:31:50,"Mozilla/5.0 (Macintosh; Intel Mac OS X 10_15_7) AppleWebKit/537.36 (KHTML, like Gecko) Chrome/98.0.4758.109 Safari/537.36",1440,900,1440,742,main,1807573,15,11,13,12,EM,Moderate,Easier than Reference,F,j,safeDeck,riskyDeck,-28,0,-14,right,1,0,32,present,riskyDeck,888,1140
oiwlhroc52k_pilot,test,23/03/2022@10:31:50,"Mozilla/5.0 (Macintosh; Intel Mac OS X 10_15_7) AppleWebKit/537.36 (KHTML, like Gecko) Chrome/98.0.4758.109 Safari/537.36",1440,900,1440,742,main,1807573,15,12,13,12,EM,Moderate,Easier than Reference,F,k,safeDeck,riskyDeck,-28,0,-14,right,1,0,32,absent,riskyDeck,888,1783
oiwlhroc52k_pilot,test,23/03/2022@10:31:50,"Mozilla/5.0 (Macintosh; Intel Mac OS X 10_15_7) AppleWebKit/537.36 (KHTML, like Gecko) Chrome/98.0.4758.109 Safari/537.36",1440,900,1440,742,main,1807573,15,13,13,12,EM,Moderate,Easier than Reference,F,j,safeDeck,riskyDeck,-28,0,-14,right,1,0,32,present,riskyDeck,888,1029
oiwlhroc52k_pilot,test,23/03/2022@10:31:50,"Mozilla/5.0 (Macintosh; Intel Mac OS X 10_15_7) AppleWebKit/537.36 (KHTML, like Gecko) Chrome/98.0.4758.109 Safari/537.36",1440,900,1440,742,main,1807573,15,14,13,12,EM,Moderate,Easier than Reference,F,k,safeDeck,riskyDeck,-28,0,-14,right,1,0,32,absent,riskyDeck,888,2177
oiwlhroc52k_pilot,test,23/03/2022@10:31:50,"Mozilla/5.0 (Macintosh; Intel Mac OS X 10_15_7) AppleWebKit/537.36 (KHTML, like Gecko) Chrome/98.0.4758.109 Safari/537.36",1440,900,1440,742,main,1807573,15,15,13,12,EM,Moderate,Easier than Reference,F,j,safeDeck,riskyDeck,-28,0,-14,right,1,0,32,present,riskyDeck,888,1533
oiwlhroc52k_pilot,test,23/03/2022@10:31:50,"Mozilla/5.0 (Macintosh; Intel Mac OS X 10_15_7) AppleWebKit/537.36 (KHTML, like Gecko) Chrome/98.0.4758.109 Safari/537.36",1440,900,1440,742,main,1807573,15,16,13,12,EM,Moderate,Easier than Reference,F,k,safeDeck,riskyDeck,-28,0,-14,right,1,0,32,absent,riskyDeck,888,1869
oiwlhroc52k_pilot,test,23/03/2022@10:31:50,"Mozilla/5.0 (Macintosh; Intel Mac OS X 10_15_7) AppleWebKit/537.36 (KHTML, like Gecko) Chrome/98.0.4758.109 Safari/537.36",1440,900,1440,742,main,1807573,15,17,13,12,EM,Moderate,Easier than Reference,F,j,safeDeck,riskyDeck,-28,0,-14,right,1,0,32,present,riskyDeck,888,707
oiwlhroc52k_pilot,test,23/03/2022@10:31:50,"Mozilla/5.0 (Macintosh; Intel Mac OS X 10_15_7) AppleWebKit/537.36 (KHTML, like Gecko) Chrome/98.0.4758.109 Safari/537.36",1440,900,1440,742,main,1807573,16,1,13,12,EE,Extreme,Easier than Reference,D,k,riskyDeck,safeDeck,-14,0,-7,left,1,0,18,absent,riskyDeck,836,993
oiwlhroc52k_pilot,test,23/03/2022@10:31:50,"Mozilla/5.0 (Macintosh; Intel Mac OS X 10_15_7) AppleWebKit/537.36 (KHTML, like Gecko) Chrome/98.0.4758.109 Safari/537.36",1440,900,1440,742,main,1807573,16,2,13,12,EE,Extreme,Easier than Reference,D,k,riskyDeck,safeDeck,-14,0,-7,left,1,1,18,present,riskyDeck,836,973
oiwlhroc52k_pilot,test,23/03/2022@10:31:50,"Mozilla/5.0 (Macintosh; Intel Mac OS X 10_15_7) AppleWebKit/537.36 (KHTML, like Gecko) Chrome/98.0.4758.109 Safari/537.36",1440,900,1440,742,main,1807573,16,3,13,12,EE,Extreme,Easier than Reference,D,j,riskyDeck,safeDeck,-14,0,-7,left,1,0,18,present,riskyDeck,836,791
oiwlhroc52k_pilot,test,23/03/2022@10:31:50,"Mozilla/5.0 (Macintosh; Intel Mac OS X 10_15_7) AppleWebKit/537.36 (KHTML, like Gecko) Chrome/98.0.4758.109 Safari/537.36",1440,900,1440,742,main,1807573,16,4,13,12,EE,Extreme,Easier than Reference,D,j,riskyDeck,safeDeck,-14,0,-7,left,1,0,18,present,riskyDeck,836,964
oiwlhroc52k_pilot,test,23/03/2022@10:31:50,"Mozilla/5.0 (Macintosh; Intel Mac OS X 10_15_7) AppleWebKit/537.36 (KHTML, like Gecko) Chrome/98.0.4758.109 Safari/537.36",1440,900,1440,742,main,1807573,16,5,13,12,EE,Extreme,Easier than Reference,D,j,riskyDeck,safeDeck,-14,0,-7,left,1,0,18,present,riskyDeck,836,805
oiwlhroc52k_pilot,test,23/03/2022@10:31:50,"Mozilla/5.0 (Macintosh; Intel Mac OS X 10_15_7) AppleWebKit/537.36 (KHTML, like Gecko) Chrome/98.0.4758.109 Safari/537.36",1440,900,1440,742,main,1807573,16,6,13,12,EE,Extreme,Easier than Reference,D,k,riskyDeck,safeDeck,-14,0,-7,left,1,0,18,absent,riskyDeck,836,1155
oiwlhroc52k_pilot,test,23/03/2022@10:31:50,"Mozilla/5.0 (Macintosh; Intel Mac OS X 10_15_7) AppleWebKit/537.36 (KHTML, like Gecko) Chrome/98.0.4758.109 Safari/537.36",1440,900,1440,742,main,1807573,16,7,13,12,EE,Extreme,Easier than Reference,D,k,riskyDeck,safeDeck,-14,0,-7,left,1,0,18,absent,riskyDeck,836,1005
oiwlhroc52k_pilot,test,23/03/2022@10:31:50,"Mozilla/5.0 (Macintosh; Intel Mac OS X 10_15_7) AppleWebKit/537.36 (KHTML, like Gecko) Chrome/98.0.4758.109 Safari/537.36",1440,900,1440,742,main,1807573,16,8,13,12,EE,Extreme,Easier than Reference,D,j,riskyDeck,safeDeck,-14,0,-7,left,1,0,18,present,riskyDeck,836,740
oiwlhroc52k_pilot,test,23/03/2022@10:31:50,"Mozilla/5.0 (Macintosh; Intel Mac OS X 10_15_7) AppleWebKit/537.36 (KHTML, like Gecko) Chrome/98.0.4758.109 Safari/537.36",1440,900,1440,742,main,1807573,16,9,13,12,EE,Extreme,Easier than Reference,D,j,riskyDeck,safeDeck,-14,0,-7,left,1,0,18,present,riskyDeck,836,731
oiwlhroc52k_pilot,test,23/03/2022@10:31:50,"Mozilla/5.0 (Macintosh; Intel Mac OS X 10_15_7) AppleWebKit/537.36 (KHTML, like Gecko) Chrome/98.0.4758.109 Safari/537.36",1440,900,1440,742,main,1807573,16,10,13,12,EE,Extreme,Easier than Reference,D,j,riskyDeck,safeDeck,-14,0,-7,left,1,0,18,present,riskyDeck,836,873
oiwlhroc52k_pilot,test,23/03/2022@10:31:50,"Mozilla/5.0 (Macintosh; Intel Mac OS X 10_15_7) AppleWebKit/537.36 (KHTML, like Gecko) Chrome/98.0.4758.109 Safari/537.36",1440,900,1440,742,main,1807573,16,11,14,12,EE,Extreme,Easier than Reference,D,k,riskyDeck,safeDeck,-14,0,-7,left,1,0,18,absent,riskyDeck,836,1134
oiwlhroc52k_pilot,test,23/03/2022@10:31:50,"Mozilla/5.0 (Macintosh; Intel Mac OS X 10_15_7) AppleWebKit/537.36 (KHTML, like Gecko) Chrome/98.0.4758.109 Safari/537.36",1440,900,1440,742,main,1807573,16,12,14,12,EE,Extreme,Easier than Reference,D,k,riskyDeck,safeDeck,-14,0,-7,left,1,0,18,absent,riskyDeck,836,1013
oiwlhroc52k_pilot,test,23/03/2022@10:31:50,"Mozilla/5.0 (Macintosh; Intel Mac OS X 10_15_7) AppleWebKit/537.36 (KHTML, like Gecko) Chrome/98.0.4758.109 Safari/537.36",1440,900,1440,742,main,1807573,16,13,14,13,EE,Extreme,Easier than Reference,D,j,riskyDeck,safeDeck,-14,0,-7,left,1,0,18,present,riskyDeck,836,1662
oiwlhroc52k_pilot,test,23/03/2022@10:31:50,"Mozilla/5.0 (Macintosh; Intel Mac OS X 10_15_7) AppleWebKit/537.36 (KHTML, like Gecko) Chrome/98.0.4758.109 Safari/537.36",1440,900,1440,742,main,1807573,16,14,14,13,EE,Extreme,Easier than Reference,D,k,riskyDeck,safeDeck,-14,0,-7,left,1,1,18,present,riskyDeck,836,699
oiwlhroc52k_pilot,test,23/03/2022@10:31:50,"Mozilla/5.0 (Macintosh; Intel Mac OS X 10_15_7) AppleWebKit/537.36 (KHTML, like Gecko) Chrome/98.0.4758.109 Safari/537.36",1440,900,1440,742,main,1807573,16,15,14,13,EE,Extreme,Easier than Reference,D,k,riskyDeck,safeDeck,-14,0,-7,left,1,0,18,absent,riskyDeck,836,1200
oiwlhroc52k_pilot,test,23/03/2022@10:31:50,"Mozilla/5.0 (Macintosh; Intel Mac OS X 10_15_7) AppleWebKit/537.36 (KHTML, like Gecko) Chrome/98.0.4758.109 Safari/537.36",1440,900,1440,742,main,1807573,16,16,14,13,EE,Extreme,Easier than Reference,D,k,riskyDeck,safeDeck,-14,0,-7,left,1,0,18,absent,riskyDeck,836,892
oiwlhroc52k_pilot,test,23/03/2022@10:31:50,"Mozilla/5.0 (Macintosh; Intel Mac OS X 10_15_7) AppleWebKit/537.36 (KHTML, like Gecko) Chrome/98.0.4758.109 Safari/537.36",1440,900,1440,742,main,1807573,16,17,14,13,EE,Extreme,Easier than Reference,D,j,riskyDeck,safeDeck,-14,0,-7,left,1,0,18,present,riskyDeck,836,1164
oiwlhroc52k_pilot,test,23/03/2022@10:31:50,"Mozilla/5.0 (Macintosh; Intel Mac OS X 10_15_7) AppleWebKit/537.36 (KHTML, like Gecko) Chrome/98.0.4758.109 Safari/537.36",1440,900,1440,742,main,1807573,17,1,14,13,EM,Moderate,Easier than Reference,D,j,riskyDeck,safeDeck,-28,0,-14,left,1,0,4,present,riskyDeck,495,916
oiwlhroc52k_pilot,test,23/03/2022@10:31:50,"Mozilla/5.0 (Macintosh; Intel Mac OS X 10_15_7) AppleWebKit/537.36 (KHTML, like Gecko) Chrome/98.0.4758.109 Safari/537.36",1440,900,1440,742,main,1807573,17,2,14,13,EM,Moderate,Easier than Reference,D,k,riskyDeck,safeDeck,-28,0,-14,left,1,0,4,absent,riskyDeck,495,752
oiwlhroc52k_pilot,test,23/03/2022@10:31:50,"Mozilla/5.0 (Macintosh; Intel Mac OS X 10_15_7) AppleWebKit/537.36 (KHTML, like Gecko) Chrome/98.0.4758.109 Safari/537.36",1440,900,1440,742,main,1807573,17,3,14,13,EM,Moderate,Easier than Reference,D,j,riskyDeck,safeDeck,-28,0,-14,left,1,0,4,present,riskyDeck,495,702
oiwlhroc52k_pilot,test,23/03/2022@10:31:50,"Mozilla/5.0 (Macintosh; Intel Mac OS X 10_15_7) AppleWebKit/537.36 (KHTML, like Gecko) Chrome/98.0.4758.109 Safari/537.36",1440,900,1440,742,main,1807573,17,4,14,13,EM,Moderate,Easier than Reference,D,j,riskyDeck,safeDeck,-28,0,-14,left,1,0,4,present,riskyDeck,495,506
oiwlhroc52k_pilot,test,23/03/2022@10:31:50,"Mozilla/5.0 (Macintosh; Intel Mac OS X 10_15_7) AppleWebKit/537.36 (KHTML, like Gecko) Chrome/98.0.4758.109 Safari/537.36",1440,900,1440,742,main,1807573,17,5,14,13,EM,Moderate,Easier than Reference,D,j,riskyDeck,safeDeck,-28,0,-14,left,1,0,4,present,riskyDeck,495,614
oiwlhroc52k_pilot,test,23/03/2022@10:31:50,"Mozilla/5.0 (Macintosh; Intel Mac OS X 10_15_7) AppleWebKit/537.36 (KHTML, like Gecko) Chrome/98.0.4758.109 Safari/537.36",1440,900,1440,742,main,1807573,17,6,14,13,EM,Moderate,Easier than Reference,D,j,riskyDeck,safeDeck,-28,0,-14,left,1,0,4,present,riskyDeck,495,746
oiwlhroc52k_pilot,test,23/03/2022@10:31:50,"Mozilla/5.0 (Macintosh; Intel Mac OS X 10_15_7) AppleWebKit/537.36 (KHTML, like Gecko) Chrome/98.0.4758.109 Safari/537.36",1440,900,1440,742,main,1807573,17,7,14,13,EM,Moderate,Easier than Reference,D,k,riskyDeck,safeDeck,-28,0,-14,left,1,0,4,absent,riskyDeck,495,1348
oiwlhroc52k_pilot,test,23/03/2022@10:31:50,"Mozilla/5.0 (Macintosh; Intel Mac OS X 10_15_7) AppleWebKit/537.36 (KHTML, like Gecko) Chrome/98.0.4758.109 Safari/537.36",1440,900,1440,742,main,1807573,17,8,14,13,EM,Moderate,Easier than Reference,D,j,riskyDeck,safeDeck,-28,0,-14,left,1,0,4,present,riskyDeck,495,584
oiwlhroc52k_pilot,test,23/03/2022@10:31:50,"Mozilla/5.0 (Macintosh; Intel Mac OS X 10_15_7) AppleWebKit/537.36 (KHTML, like Gecko) Chrome/98.0.4758.109 Safari/537.36",1440,900,1440,742,main,1807573,17,9,14,13,EM,Moderate,Easier than Reference,D,k,riskyDeck,safeDeck,-28,0,-14,left,1,0,4,absent,riskyDeck,495,633
oiwlhroc52k_pilot,test,23/03/2022@10:31:50,"Mozilla/5.0 (Macintosh; Intel Mac OS X 10_15_7) AppleWebKit/537.36 (KHTML, like Gecko) Chrome/98.0.4758.109 Safari/537.36",1440,900,1440,742,main,1807573,17,10,14,13,EM,Moderate,Easier than Reference,D,k,riskyDeck,safeDeck,-28,0,-14,left,1,1,4,present,riskyDeck,495,720
oiwlhroc52k_pilot,test,23/03/2022@10:31:50,"Mozilla/5.0 (Macintosh; Intel Mac OS X 10_15_7) AppleWebKit/537.36 (KHTML, like Gecko) Chrome/98.0.4758.109 Safari/537.36",1440,900,1440,742,main,1807573,17,11,14,13,EM,Moderate,Easier than Reference,D,j,riskyDeck,safeDeck,-28,0,-14,left,1,0,4,present,riskyDeck,495,538
oiwlhroc52k_pilot,test,23/03/2022@10:31:50,"Mozilla/5.0 (Macintosh; Intel Mac OS X 10_15_7) AppleWebKit/537.36 (KHTML, like Gecko) Chrome/98.0.4758.109 Safari/537.36",1440,900,1440,742,main,1807573,17,12,14,13,EM,Moderate,Easier than Reference,D,k,riskyDeck,safeDeck,-28,0,-14,left,1,0,4,absent,riskyDeck,495,817
oiwlhroc52k_pilot,test,23/03/2022@10:31:50,"Mozilla/5.0 (Macintosh; Intel Mac OS X 10_15_7) AppleWebKit/537.36 (KHTML, like Gecko) Chrome/98.0.4758.109 Safari/537.36",1440,900,1440,742,main,1807573,17,13,14,13,EM,Moderate,Easier than Reference,D,k,riskyDeck,safeDeck,-28,0,-14,left,1,0,4,absent,riskyDeck,495,853
oiwlhroc52k_pilot,test,23/03/2022@10:31:50,"Mozilla/5.0 (Macintosh; Intel Mac OS X 10_15_7) AppleWebKit/537.36 (KHTML, like Gecko) Chrome/98.0.4758.109 Safari/537.36",1440,900,1440,742,main,1807573,17,14,14,13,EM,Moderate,Easier than Reference,D,k,riskyDeck,safeDeck,-28,0,-14,left,1,0,4,absent,riskyDeck,495,641
oiwlhroc52k_pilot,test,23/03/2022@10:31:50,"Mozilla/5.0 (Macintosh; Intel Mac OS X 10_15_7) AppleWebKit/537.36 (KHTML, like Gecko) Chrome/98.0.4758.109 Safari/537.36",1440,900,1440,742,main,1807573,17,15,14,13,EM,Moderate,Easier than Reference,D,k,riskyDeck,safeDeck,-28,0,-14,left,1,0,4,absent,riskyDeck,495,899
oiwlhroc52k_pilot,test,23/03/2022@10:31:50,"Mozilla/5.0 (Macintosh; Intel Mac OS X 10_15_7) AppleWebKit/537.36 (KHTML, like Gecko) Chrome/98.0.4758.109 Safari/537.36",1440,900,1440,742,main,1807573,17,16,14,13,EM,Moderate,Easier than Reference,D,k,riskyDeck,safeDeck,-28,0,-14,left,1,0,4,absent,riskyDeck,495,479
oiwlhroc52k_pilot,test,23/03/2022@10:31:50,"Mozilla/5.0 (Macintosh; Intel Mac OS X 10_15_7) AppleWebKit/537.36 (KHTML, like Gecko) Chrome/98.0.4758.109 Safari/537.36",1440,900,1440,742,main,1807573,17,17,14,13,EM,Moderate,Easier than Reference,D,k,riskyDeck,safeDeck,-28,0,-14,left,1,0,4,absent,riskyDeck,495,744
oiwlhroc52k_pilot,test,23/03/2022@10:31:50,"Mozilla/5.0 (Macintosh; Intel Mac OS X 10_15_7) AppleWebKit/537.36 (KHTML, like Gecko) Chrome/98.0.4758.109 Safari/537.36",1440,900,1440,742,main,1807573,18,1,14,13,HE,Extreme,Harder than Reference,F,k,safeDeck,riskyDeck,28,0,14,right,1,0,32,absent,riskyDeck,1180,1647
oiwlhroc52k_pilot,test,23/03/2022@10:31:50,"Mozilla/5.0 (Macintosh; Intel Mac OS X 10_15_7) AppleWebKit/537.36 (KHTML, like Gecko) Chrome/98.0.4758.109 Safari/537.36",1440,900,1440,742,main,1807573,18,2,14,13,HE,Extreme,Harder than Reference,F,k,safeDeck,riskyDeck,28,0,14,right,1,0,32,absent,riskyDeck,1180,1641
oiwlhroc52k_pilot,test,23/03/2022@10:31:50,"Mozilla/5.0 (Macintosh; Intel Mac OS X 10_15_7) AppleWebKit/537.36 (KHTML, like Gecko) Chrome/98.0.4758.109 Safari/537.36",1440,900,1440,742,main,1807573,18,3,14,13,HE,Extreme,Harder than Reference,F,k,safeDeck,riskyDeck,28,0,14,right,1,1,32,present,riskyDeck,1180,1840
oiwlhroc52k_pilot,test,23/03/2022@10:31:50,"Mozilla/5.0 (Macintosh; Intel Mac OS X 10_15_7) AppleWebKit/537.36 (KHTML, like Gecko) Chrome/98.0.4758.109 Safari/537.36",1440,900,1440,742,main,1807573,18,4,14,13,HE,Extreme,Harder than Reference,F,j,safeDeck,riskyDeck,28,0,14,right,1,0,32,present,riskyDeck,1180,1075
oiwlhroc52k_pilot,test,23/03/2022@10:31:50,"Mozilla/5.0 (Macintosh; Intel Mac OS X 10_15_7) AppleWebKit/537.36 (KHTML, like Gecko) Chrome/98.0.4758.109 Safari/537.36",1440,900,1440,742,main,1807573,18,5,14,13,HE,Extreme,Harder than Reference,F,j,safeDeck,riskyDeck,28,0,14,right,1,0,32,present,riskyDeck,1180,1206
oiwlhroc52k_pilot,test,23/03/2022@10:31:50,"Mozilla/5.0 (Macintosh; Intel Mac OS X 10_15_7) AppleWebKit/537.36 (KHTML, like Gecko) Chrome/98.0.4758.109 Safari/537.36",1440,900,1440,742,main,1807573,18,6,14,13,HE,Extreme,Harder than Reference,F,k,safeDeck,riskyDeck,28,0,14,right,1,0,32,absent,riskyDeck,1180,1868
oiwlhroc52k_pilot,test,23/03/2022@10:31:50,"Mozilla/5.0 (Macintosh; Intel Mac OS X 10_15_7) AppleWebKit/537.36 (KHTML, like Gecko) Chrome/98.0.4758.109 Safari/537.36",1440,900,1440,742,main,1807573,18,7,14,13,HE,Extreme,Harder than Reference,F,k,safeDeck,riskyDeck,28,0,14,right,1,0,32,absent,riskyDeck,1180,1579
oiwlhroc52k_pilot,test,23/03/2022@10:31:50,"Mozilla/5.0 (Macintosh; Intel Mac OS X 10_15_7) AppleWebKit/537.36 (KHTML, like Gecko) Chrome/98.0.4758.109 Safari/537.36",1440,900,1440,742,main,1807573,18,8,14,13,HE,Extreme,Harder than Reference,F,j,safeDeck,riskyDeck,28,0,14,right,1,0,32,present,riskyDeck,1180,891
oiwlhroc52k_pilot,test,23/03/2022@10:31:50,"Mozilla/5.0 (Macintosh; Intel Mac OS X 10_15_7) AppleWebKit/537.36 (KHTML, like Gecko) Chrome/98.0.4758.109 Safari/537.36",1440,900,1440,742,main,1807573,18,9,14,13,HE,Extreme,Harder than Reference,F,k,safeDeck,riskyDeck,28,0,14,right,1,0,32,absent,riskyDeck,1180,1347
oiwlhroc52k_pilot,test,23/03/2022@10:31:50,"Mozilla/5.0 (Macintosh; Intel Mac OS X 10_15_7) AppleWebKit/537.36 (KHTML, like Gecko) Chrome/98.0.4758.109 Safari/537.36",1440,900,1440,742,main,1807573,18,10,14,13,HE,Extreme,Harder than Reference,F,k,safeDeck,riskyDeck,28,0,14,right,1,1,32,present,riskyDeck,1180,3342
oiwlhroc52k_pilot,test,23/03/2022@10:31:50,"Mozilla/5.0 (Macintosh; Intel Mac OS X 10_15_7) AppleWebKit/537.36 (KHTML, like Gecko) Chrome/98.0.4758.109 Safari/537.36",1440,900,1440,742,main,1807573,18,11,15,13,HE,Extreme,Harder than Reference,F,j,safeDeck,riskyDeck,28,0,14,right,1,0,32,present,riskyDeck,1180,748
oiwlhroc52k_pilot,test,23/03/2022@10:31:50,"Mozilla/5.0 (Macintosh; Intel Mac OS X 10_15_7) AppleWebKit/537.36 (KHTML, like Gecko) Chrome/98.0.4758.109 Safari/537.36",1440,900,1440,742,main,1807573,18,12,15,13,HE,Extreme,Harder than Reference,F,k,safeDeck,riskyDeck,28,0,14,right,1,1,32,present,riskyDeck,1180,2792
oiwlhroc52k_pilot,test,23/03/2022@10:31:50,"Mozilla/5.0 (Macintosh; Intel Mac OS X 10_15_7) AppleWebKit/537.36 (KHTML, like Gecko) Chrome/98.0.4758.109 Safari/537.36",1440,900,1440,742,main,1807573,18,13,15,14,HE,Extreme,Harder than Reference,F,k,safeDeck,riskyDeck,28,0,14,right,1,0,32,absent,riskyDeck,1180,1973
oiwlhroc52k_pilot,test,23/03/2022@10:31:50,"Mozilla/5.0 (Macintosh; Intel Mac OS X 10_15_7) AppleWebKit/537.36 (KHTML, like Gecko) Chrome/98.0.4758.109 Safari/537.36",1440,900,1440,742,main,1807573,18,14,15,14,HE,Extreme,Harder than Reference,F,k,safeDeck,riskyDeck,28,0,14,right,1,0,32,absent,riskyDeck,1180,1146
oiwlhroc52k_pilot,test,23/03/2022@10:31:50,"Mozilla/5.0 (Macintosh; Intel Mac OS X 10_15_7) AppleWebKit/537.36 (KHTML, like Gecko) Chrome/98.0.4758.109 Safari/537.36",1440,900,1440,742,main,1807573,18,15,15,14,HE,Extreme,Harder than Reference,F,k,safeDeck,riskyDeck,28,0,14,right,1,0,32,absent,riskyDeck,1180,1144
oiwlhroc52k_pilot,test,23/03/2022@10:31:50,"Mozilla/5.0 (Macintosh; Intel Mac OS X 10_15_7) AppleWebKit/537.36 (KHTML, like Gecko) Chrome/98.0.4758.109 Safari/537.36",1440,900,1440,742,main,1807573,18,16,15,14,HE,Extreme,Harder than Reference,F,j,safeDeck,riskyDeck,28,0,14,right,1,0,32,present,riskyDeck,1180,801
oiwlhroc52k_pilot,test,23/03/2022@10:31:50,"Mozilla/5.0 (Macintosh; Intel Mac OS X 10_15_7) AppleWebKit/537.36 (KHTML, like Gecko) Chrome/98.0.4758.109 Safari/537.36",1440,900,1440,742,main,1807573,18,17,15,14,HE,Extreme,Harder than Reference,F,k,safeDeck,riskyDeck,28,0,14,right,1,0,32,absent,riskyDeck,1180,1148
oiwlhroc52k_pilot,test,23/03/2022@10:31:50,"Mozilla/5.0 (Macintosh; Intel Mac OS X 10_15_7) AppleWebKit/537.36 (KHTML, like Gecko) Chrome/98.0.4758.109 Safari/537.36",1440,900,1440,742,main,1807573,19,1,15,14,HM,Moderate,Harder than Reference,D,j,riskyDeck,safeDeck,0,14,7,left,1,0,46,present,riskyDeck,661,1376
oiwlhroc52k_pilot,test,23/03/2022@10:31:50,"Mozilla/5.0 (Macintosh; Intel Mac OS X 10_15_7) AppleWebKit/537.36 (KHTML, like Gecko) Chrome/98.0.4758.109 Safari/537.36",1440,900,1440,742,main,1807573,19,2,15,14,HM,Moderate,Harder than Reference,D,k,riskyDeck,safeDeck,0,14,7,left,1,1,46,present,riskyDeck,661,2853
oiwlhroc52k_pilot,test,23/03/2022@10:31:50,"Mozilla/5.0 (Macintosh; Intel Mac OS X 10_15_7) AppleWebKit/537.36 (KHTML, like Gecko) Chrome/98.0.4758.109 Safari/537.36",1440,900,1440,742,main,1807573,19,3,15,14,HM,Moderate,Harder than Reference,D,k,riskyDeck,safeDeck,0,14,7,left,1,0,46,absent,riskyDeck,661,2432
oiwlhroc52k_pilot,test,23/03/2022@10:31:50,"Mozilla/5.0 (Macintosh; Intel Mac OS X 10_15_7) AppleWebKit/537.36 (KHTML, like Gecko) Chrome/98.0.4758.109 Safari/537.36",1440,900,1440,742,main,1807573,19,4,15,14,HM,Moderate,Harder than Reference,D,j,riskyDeck,safeDeck,0,14,7,left,1,0,46,present,riskyDeck,661,1086
oiwlhroc52k_pilot,test,23/03/2022@10:31:50,"Mozilla/5.0 (Macintosh; Intel Mac OS X 10_15_7) AppleWebKit/537.36 (KHTML, like Gecko) Chrome/98.0.4758.109 Safari/537.36",1440,900,1440,742,main,1807573,19,5,15,14,HM,Moderate,Harder than Reference,D,k,riskyDeck,safeDeck,0,14,7,left,1,0,46,absent,riskyDeck,661,4000
oiwlhroc52k_pilot,test,23/03/2022@10:31:50,"Mozilla/5.0 (Macintosh; Intel Mac OS X 10_15_7) AppleWebKit/537.36 (KHTML, like Gecko) Chrome/98.0.4758.109 Safari/537.36",1440,900,1440,742,main,1807573,19,6,15,14,HM,Moderate,Harder than Reference,D,k,riskyDeck,safeDeck,0,14,7,left,1,0,46,absent,riskyDeck,661,3880
oiwlhroc52k_pilot,test,23/03/2022@10:31:50,"Mozilla/5.0 (Macintosh; Intel Mac OS X 10_15_7) AppleWebKit/537.36 (KHTML, like Gecko) Chrome/98.0.4758.109 Safari/537.36",1440,900,1440,742,main,1807573,19,7,15,14,HM,Moderate,Harder than Reference,D,k,riskyDeck,safeDeck,0,14,7,left,1,0,46,absent,riskyDeck,661,2141
oiwlhroc52k_pilot,test,23/03/2022@10:31:50,"Mozilla/5.0 (Macintosh; Intel Mac OS X 10_15_7) AppleWebKit/537.36 (KHTML, like Gecko) Chrome/98.0.4758.109 Safari/537.36",1440,900,1440,742,main,1807573,19,8,15,14,HM,Moderate,Harder than Reference,D,k,riskyDeck,safeDeck,0,14,7,left,1,1,46,present,riskyDeck,661,3157
oiwlhroc52k_pilot,test,23/03/2022@10:31:50,"Mozilla/5.0 (Macintosh; Intel Mac OS X 10_15_7) AppleWebKit/537.36 (KHTML, like Gecko) Chrome/98.0.4758.109 Safari/537.36",1440,900,1440,742,main,1807573,19,9,15,14,HM,Moderate,Harder than Reference,D,k,riskyDeck,safeDeck,0,14,7,left,1,1,46,present,riskyDeck,661,4146
oiwlhroc52k_pilot,test,23/03/2022@10:31:50,"Mozilla/5.0 (Macintosh; Intel Mac OS X 10_15_7) AppleWebKit/537.36 (KHTML, like Gecko) Chrome/98.0.4758.109 Safari/537.36",1440,900,1440,742,main,1807573,19,10,15,14,HM,Moderate,Harder than Reference,D,k,riskyDeck,safeDeck,0,14,7,left,1,0,46,absent,riskyDeck,661,2783
oiwlhroc52k_pilot,test,23/03/2022@10:31:50,"Mozilla/5.0 (Macintosh; Intel Mac OS X 10_15_7) AppleWebKit/537.36 (KHTML, like Gecko) Chrome/98.0.4758.109 Safari/537.36",1440,900,1440,742,main,1807573,19,11,15,14,HM,Moderate,Harder than Reference,D,k,riskyDeck,safeDeck,0,14,7,left,1,0,46,absent,riskyDeck,661,4877
oiwlhroc52k_pilot,test,23/03/2022@10:31:50,"Mozilla/5.0 (Macintosh; Intel Mac OS X 10_15_7) AppleWebKit/537.36 (KHTML, like Gecko) Chrome/98.0.4758.109 Safari/537.36",1440,900,1440,742,main,1807573,19,12,16,14,HM,Moderate,Harder than Reference,D,k,riskyDeck,safeDeck,0,14,7,left,1,0,46,absent,riskyDeck,661,3681
oiwlhroc52k_pilot,test,23/03/2022@10:31:50,"Mozilla/5.0 (Macintosh; Intel Mac OS X 10_15_7) AppleWebKit/537.36 (KHTML, like Gecko) Chrome/98.0.4758.109 Safari/537.36",1440,900,1440,742,main,1807573,19,13,16,14,HM,Moderate,Harder than Reference,D,j,riskyDeck,safeDeck,0,14,7,left,1,0,46,present,riskyDeck,661,1315
