"subject","choice_rt_m","choice_rt_sd","sona_id","curTime","userAgent","screenWidth","screenHeight","windowWidth","windowHeight","phase","phase_run_time","choice_trial","search_trial","exp_runtime_mins","phase_runtime_mins","condition","magnitude","direction","choice_response_key","search_response_key","left_deck_id","right_deck_id","risky_deck_outcome_top","risky_deck_outcome_bottom","safe_deck_outcome","selected_deck_location","selectedRiskyDeck","error","n_stimuli","present_or_absent","chosenDeckId","choice_rt","search_rt","selected_deck_location_num","ssd"
"11ebzd4ncngc",2532.17538461538,1072.09945236288,13554,"28/03/2022@11:07:30","Mozilla/5.0 (Windows NT 10.0; Win64; x64) AppleWebKit/537.36 (KHTML, like Gecko) Chrome/99.0.4844.74 Safari/537.36",1536,864,1536,754,"main",4443615,2,1,7,4,"HE","Extreme","Harder than Reference","F","j","riskyDeck","safeDeck",0,28,14,"right",0,0,46,"present","safeDeck",2140,2565,1,1
"11ebzd4ncngc",2532.17538461538,1072.09945236288,13554,"28/03/2022@11:07:30","Mozilla/5.0 (Windows NT 10.0; Win64; x64) AppleWebKit/537.36 (KHTML, like Gecko) Chrome/99.0.4844.74 Safari/537.36",1536,864,1536,754,"main",4443615,2,2,7,4,"HE","Extreme","Harder than Reference","F","j","riskyDeck","safeDeck",0,28,14,"right",0,0,46,"present","safeDeck",2140,2601,1,1
"11ebzd4ncngc",2532.17538461538,1072.09945236288,13554,"28/03/2022@11:07:30","Mozilla/5.0 (Windows NT 10.0; Win64; x64) AppleWebKit/537.36 (KHTML, like Gecko) Chrome/99.0.4844.74 Safari/537.36",1536,864,1536,754,"main",4443615,2,4,7,5,"HE","Extreme","Harder than Reference","F","k","riskyDeck","safeDeck",0,28,14,"right",0,0,46,"absent","safeDeck",2140,15102,1,1
"11ebzd4ncngc",2532.17538461538,1072.09945236288,13554,"28/03/2022@11:07:30","Mozilla/5.0 (Windows NT 10.0; Win64; x64) AppleWebKit/537.36 (KHTML, like Gecko) Chrome/99.0.4844.74 Safari/537.36",1536,864,1536,754,"main",4443615,2,5,7,5,"HE","Extreme","Harder than Reference","F","j","riskyDeck","safeDeck",0,28,14,"right",0,0,46,"present","safeDeck",2140,5708,1,1
"11ebzd4ncngc",2532.17538461538,1072.09945236288,13554,"28/03/2022@11:07:30","Mozilla/5.0 (Windows NT 10.0; Win64; x64) AppleWebKit/537.36 (KHTML, like Gecko) Chrome/99.0.4844.74 Safari/537.36",1536,864,1536,754,"main",4443615,2,7,8,6,"HE","Extreme","Harder than Reference","F","j","riskyDeck","safeDeck",0,28,14,"right",0,0,46,"present","safeDeck",2140,2075,1,1
"11ebzd4ncngc",2532.17538461538,1072.09945236288,13554,"28/03/2022@11:07:30","Mozilla/5.0 (Windows NT 10.0; Win64; x64) AppleWebKit/537.36 (KHTML, like Gecko) Chrome/99.0.4844.74 Safari/537.36",1536,864,1536,754,"main",4443615,2,8,8,6,"HE","Extreme","Harder than Reference","F","j","riskyDeck","safeDeck",0,28,14,"right",0,0,46,"present","safeDeck",2140,911,1,1
"11ebzd4ncngc",2532.17538461538,1072.09945236288,13554,"28/03/2022@11:07:30","Mozilla/5.0 (Windows NT 10.0; Win64; x64) AppleWebKit/537.36 (KHTML, like Gecko) Chrome/99.0.4844.74 Safari/537.36",1536,864,1536,754,"main",4443615,2,9,8,6,"HE","Extreme","Harder than Reference","F","k","riskyDeck","safeDeck",0,28,14,"right",0,0,46,"absent","safeDeck",2140,14121,1,1
"11ebzd4ncngc",2532.17538461538,1072.09945236288,13554,"28/03/2022@11:07:30","Mozilla/5.0 (Windows NT 10.0; Win64; x64) AppleWebKit/537.36 (KHTML, like Gecko) Chrome/99.0.4844.74 Safari/537.36",1536,864,1536,754,"main",4443615,2,13,9,7,"HE","Extreme","Harder than Reference","F","j","riskyDeck","safeDeck",0,28,14,"right",0,0,46,"present","safeDeck",2140,1509,1,1
"11ebzd4ncngc",2532.17538461538,1072.09945236288,13554,"28/03/2022@11:07:30","Mozilla/5.0 (Windows NT 10.0; Win64; x64) AppleWebKit/537.36 (KHTML, like Gecko) Chrome/99.0.4844.74 Safari/537.36",1536,864,1536,754,"main",4443615,2,15,10,8,"HE","Extreme","Harder than Reference","F","k","riskyDeck","safeDeck",0,28,14,"right",0,0,46,"absent","safeDeck",2140,13388,1,1
"11ebzd4ncngc",2532.17538461538,1072.09945236288,13554,"28/03/2022@11:07:30","Mozilla/5.0 (Windows NT 10.0; Win64; x64) AppleWebKit/537.36 (KHTML, like Gecko) Chrome/99.0.4844.74 Safari/537.36",1536,864,1536,754,"main",4443615,2,17,11,9,"HE","Extreme","Harder than Reference","F","j","riskyDeck","safeDeck",0,28,14,"right",0,0,46,"present","safeDeck",2140,1206,1,1
"11ebzd4ncngc",2532.17538461538,1072.09945236288,13554,"28/03/2022@11:07:30","Mozilla/5.0 (Windows NT 10.0; Win64; x64) AppleWebKit/537.36 (KHTML, like Gecko) Chrome/99.0.4844.74 Safari/537.36",1536,864,1536,754,"main",4443615,3,1,11,9,"EE","Extreme","Easier than Reference","D","k","safeDeck","riskyDeck",0,-14,-7,"left",0,0,25,"absent","safeDeck",3313,12857,-1,1
"11ebzd4ncngc",2532.17538461538,1072.09945236288,13554,"28/03/2022@11:07:30","Mozilla/5.0 (Windows NT 10.0; Win64; x64) AppleWebKit/537.36 (KHTML, like Gecko) Chrome/99.0.4844.74 Safari/537.36",1536,864,1536,754,"main",4443615,3,2,11,9,"EE","Extreme","Easier than Reference","D","k","safeDeck","riskyDeck",0,-14,-7,"left",0,0,25,"absent","safeDeck",3313,7644,-1,1
"11ebzd4ncngc",2532.17538461538,1072.09945236288,13554,"28/03/2022@11:07:30","Mozilla/5.0 (Windows NT 10.0; Win64; x64) AppleWebKit/537.36 (KHTML, like Gecko) Chrome/99.0.4844.74 Safari/537.36",1536,864,1536,754,"main",4443615,3,3,12,9,"EE","Extreme","Easier than Reference","D","k","safeDeck","riskyDeck",0,-14,-7,"left",0,0,25,"absent","safeDeck",3313,8209,-1,1
"11ebzd4ncngc",2532.17538461538,1072.09945236288,13554,"28/03/2022@11:07:30","Mozilla/5.0 (Windows NT 10.0; Win64; x64) AppleWebKit/537.36 (KHTML, like Gecko) Chrome/99.0.4844.74 Safari/537.36",1536,864,1536,754,"main",4443615,3,4,12,9,"EE","Extreme","Easier than Reference","D","k","safeDeck","riskyDeck",0,-14,-7,"left",0,0,25,"absent","safeDeck",3313,7270,-1,1
"11ebzd4ncngc",2532.17538461538,1072.09945236288,13554,"28/03/2022@11:07:30","Mozilla/5.0 (Windows NT 10.0; Win64; x64) AppleWebKit/537.36 (KHTML, like Gecko) Chrome/99.0.4844.74 Safari/537.36",1536,864,1536,754,"main",4443615,3,5,12,9,"EE","Extreme","Easier than Reference","D","j","safeDeck","riskyDeck",0,-14,-7,"left",0,0,25,"present","safeDeck",3313,1079,-1,1
"11ebzd4ncngc",2532.17538461538,1072.09945236288,13554,"28/03/2022@11:07:30","Mozilla/5.0 (Windows NT 10.0; Win64; x64) AppleWebKit/537.36 (KHTML, like Gecko) Chrome/99.0.4844.74 Safari/537.36",1536,864,1536,754,"main",4443615,3,6,12,9,"EE","Extreme","Easier than Reference","D","k","safeDeck","riskyDeck",0,-14,-7,"left",0,0,25,"absent","safeDeck",3313,7864,-1,1
"11ebzd4ncngc",2532.17538461538,1072.09945236288,13554,"28/03/2022@11:07:30","Mozilla/5.0 (Windows NT 10.0; Win64; x64) AppleWebKit/537.36 (KHTML, like Gecko) Chrome/99.0.4844.74 Safari/537.36",1536,864,1536,754,"main",4443615,3,7,12,9,"EE","Extreme","Easier than Reference","D","j","safeDeck","riskyDeck",0,-14,-7,"left",0,0,25,"present","safeDeck",3313,1559,-1,1
"11ebzd4ncngc",2532.17538461538,1072.09945236288,13554,"28/03/2022@11:07:30","Mozilla/5.0 (Windows NT 10.0; Win64; x64) AppleWebKit/537.36 (KHTML, like Gecko) Chrome/99.0.4844.74 Safari/537.36",1536,864,1536,754,"main",4443615,3,8,12,9,"EE","Extreme","Easier than Reference","D","j","safeDeck","riskyDeck",0,-14,-7,"left",0,0,25,"present","safeDeck",3313,742,-1,1
"11ebzd4ncngc",2532.17538461538,1072.09945236288,13554,"28/03/2022@11:07:30","Mozilla/5.0 (Windows NT 10.0; Win64; x64) AppleWebKit/537.36 (KHTML, like Gecko) Chrome/99.0.4844.74 Safari/537.36",1536,864,1536,754,"main",4443615,3,9,12,10,"EE","Extreme","Easier than Reference","D","k","safeDeck","riskyDeck",0,-14,-7,"left",0,0,25,"absent","safeDeck",3313,6069,-1,1
"11ebzd4ncngc",2532.17538461538,1072.09945236288,13554,"28/03/2022@11:07:30","Mozilla/5.0 (Windows NT 10.0; Win64; x64) AppleWebKit/537.36 (KHTML, like Gecko) Chrome/99.0.4844.74 Safari/537.36",1536,864,1536,754,"main",4443615,3,10,12,10,"EE","Extreme","Easier than Reference","D","k","safeDeck","riskyDeck",0,-14,-7,"left",0,0,25,"absent","safeDeck",3313,4797,-1,1
"11ebzd4ncngc",2532.17538461538,1072.09945236288,13554,"28/03/2022@11:07:30","Mozilla/5.0 (Windows NT 10.0; Win64; x64) AppleWebKit/537.36 (KHTML, like Gecko) Chrome/99.0.4844.74 Safari/537.36",1536,864,1536,754,"main",4443615,3,11,12,10,"EE","Extreme","Easier than Reference","D","k","safeDeck","riskyDeck",0,-14,-7,"left",0,0,25,"absent","safeDeck",3313,5095,-1,1
"11ebzd4ncngc",2532.17538461538,1072.09945236288,13554,"28/03/2022@11:07:30","Mozilla/5.0 (Windows NT 10.0; Win64; x64) AppleWebKit/537.36 (KHTML, like Gecko) Chrome/99.0.4844.74 Safari/537.36",1536,864,1536,754,"main",4443615,3,12,12,10,"EE","Extreme","Easier than Reference","D","j","safeDeck","riskyDeck",0,-14,-7,"left",0,0,25,"present","safeDeck",3313,742,-1,1
"11ebzd4ncngc",2532.17538461538,1072.09945236288,13554,"28/03/2022@11:07:30","Mozilla/5.0 (Windows NT 10.0; Win64; x64) AppleWebKit/537.36 (KHTML, like Gecko) Chrome/99.0.4844.74 Safari/537.36",1536,864,1536,754,"main",4443615,3,13,12,10,"EE","Extreme","Easier than Reference","D","k","safeDeck","riskyDeck",0,-14,-7,"left",0,0,25,"absent","safeDeck",3313,2413,-1,1
"11ebzd4ncngc",2532.17538461538,1072.09945236288,13554,"28/03/2022@11:07:30","Mozilla/5.0 (Windows NT 10.0; Win64; x64) AppleWebKit/537.36 (KHTML, like Gecko) Chrome/99.0.4844.74 Safari/537.36",1536,864,1536,754,"main",4443615,3,14,12,10,"EE","Extreme","Easier than Reference","D","j","safeDeck","riskyDeck",0,-14,-7,"left",0,0,25,"present","safeDeck",3313,754,-1,1
"11ebzd4ncngc",2532.17538461538,1072.09945236288,13554,"28/03/2022@11:07:30","Mozilla/5.0 (Windows NT 10.0; Win64; x64) AppleWebKit/537.36 (KHTML, like Gecko) Chrome/99.0.4844.74 Safari/537.36",1536,864,1536,754,"main",4443615,3,15,12,10,"EE","Extreme","Easier than Reference","D","k","safeDeck","riskyDeck",0,-14,-7,"left",0,0,25,"absent","safeDeck",3313,6672,-1,1
"11ebzd4ncngc",2532.17538461538,1072.09945236288,13554,"28/03/2022@11:07:30","Mozilla/5.0 (Windows NT 10.0; Win64; x64) AppleWebKit/537.36 (KHTML, like Gecko) Chrome/99.0.4844.74 Safari/537.36",1536,864,1536,754,"main",4443615,3,16,13,10,"EE","Extreme","Easier than Reference","D","k","safeDeck","riskyDeck",0,-14,-7,"left",0,0,25,"absent","safeDeck",3313,10973,-1,1
"11ebzd4ncngc",2532.17538461538,1072.09945236288,13554,"28/03/2022@11:07:30","Mozilla/5.0 (Windows NT 10.0; Win64; x64) AppleWebKit/537.36 (KHTML, like Gecko) Chrome/99.0.4844.74 Safari/537.36",1536,864,1536,754,"main",4443615,3,17,13,10,"EE","Extreme","Easier than Reference","D","k","safeDeck","riskyDeck",0,-14,-7,"left",0,0,25,"absent","safeDeck",3313,6459,-1,1
"11ebzd4ncngc",2532.17538461538,1072.09945236288,13554,"28/03/2022@11:07:30","Mozilla/5.0 (Windows NT 10.0; Win64; x64) AppleWebKit/537.36 (KHTML, like Gecko) Chrome/99.0.4844.74 Safari/537.36",1536,864,1536,754,"main",4443615,5,1,13,11,"EE","Extreme","Easier than Reference","F","k","safeDeck","riskyDeck",-14,0,-7,"right",1,0,32,"absent","riskyDeck",2165,7289,1,0
"11ebzd4ncngc",2532.17538461538,1072.09945236288,13554,"28/03/2022@11:07:30","Mozilla/5.0 (Windows NT 10.0; Win64; x64) AppleWebKit/537.36 (KHTML, like Gecko) Chrome/99.0.4844.74 Safari/537.36",1536,864,1536,754,"main",4443615,5,2,13,11,"EE","Extreme","Easier than Reference","F","j","safeDeck","riskyDeck",-14,0,-7,"right",1,0,32,"present","riskyDeck",2165,1061,1,0
"11ebzd4ncngc",2532.17538461538,1072.09945236288,13554,"28/03/2022@11:07:30","Mozilla/5.0 (Windows NT 10.0; Win64; x64) AppleWebKit/537.36 (KHTML, like Gecko) Chrome/99.0.4844.74 Safari/537.36",1536,864,1536,754,"main",4443615,5,3,13,11,"EE","Extreme","Easier than Reference","F","j","safeDeck","riskyDeck",-14,0,-7,"right",1,0,32,"present","riskyDeck",2165,2272,1,0
"11ebzd4ncngc",2532.17538461538,1072.09945236288,13554,"28/03/2022@11:07:30","Mozilla/5.0 (Windows NT 10.0; Win64; x64) AppleWebKit/537.36 (KHTML, like Gecko) Chrome/99.0.4844.74 Safari/537.36",1536,864,1536,754,"main",4443615,5,4,13,11,"EE","Extreme","Easier than Reference","F","j","safeDeck","riskyDeck",-14,0,-7,"right",1,0,32,"present","riskyDeck",2165,2412,1,0
"11ebzd4ncngc",2532.17538461538,1072.09945236288,13554,"28/03/2022@11:07:30","Mozilla/5.0 (Windows NT 10.0; Win64; x64) AppleWebKit/537.36 (KHTML, like Gecko) Chrome/99.0.4844.74 Safari/537.36",1536,864,1536,754,"main",4443615,5,5,14,11,"EE","Extreme","Easier than Reference","F","k","safeDeck","riskyDeck",-14,0,-7,"right",1,0,32,"absent","riskyDeck",2165,9589,1,0
"11ebzd4ncngc",2532.17538461538,1072.09945236288,13554,"28/03/2022@11:07:30","Mozilla/5.0 (Windows NT 10.0; Win64; x64) AppleWebKit/537.36 (KHTML, like Gecko) Chrome/99.0.4844.74 Safari/537.36",1536,864,1536,754,"main",4443615,5,6,14,11,"EE","Extreme","Easier than Reference","F","j","safeDeck","riskyDeck",-14,0,-7,"right",1,0,32,"present","riskyDeck",2165,1136,1,0
"11ebzd4ncngc",2532.17538461538,1072.09945236288,13554,"28/03/2022@11:07:30","Mozilla/5.0 (Windows NT 10.0; Win64; x64) AppleWebKit/537.36 (KHTML, like Gecko) Chrome/99.0.4844.74 Safari/537.36",1536,864,1536,754,"main",4443615,5,7,14,11,"EE","Extreme","Easier than Reference","F","k","safeDeck","riskyDeck",-14,0,-7,"right",1,0,32,"absent","riskyDeck",2165,6392,1,0
"11ebzd4ncngc",2532.17538461538,1072.09945236288,13554,"28/03/2022@11:07:30","Mozilla/5.0 (Windows NT 10.0; Win64; x64) AppleWebKit/537.36 (KHTML, like Gecko) Chrome/99.0.4844.74 Safari/537.36",1536,864,1536,754,"main",4443615,5,8,14,12,"EE","Extreme","Easier than Reference","F","k","safeDeck","riskyDeck",-14,0,-7,"right",1,0,32,"absent","riskyDeck",2165,16837,1,0
"11ebzd4ncngc",2532.17538461538,1072.09945236288,13554,"28/03/2022@11:07:30","Mozilla/5.0 (Windows NT 10.0; Win64; x64) AppleWebKit/537.36 (KHTML, like Gecko) Chrome/99.0.4844.74 Safari/537.36",1536,864,1536,754,"main",4443615,5,9,14,12,"EE","Extreme","Easier than Reference","F","j","safeDeck","riskyDeck",-14,0,-7,"right",1,0,32,"present","riskyDeck",2165,2195,1,0
"11ebzd4ncngc",2532.17538461538,1072.09945236288,13554,"28/03/2022@11:07:30","Mozilla/5.0 (Windows NT 10.0; Win64; x64) AppleWebKit/537.36 (KHTML, like Gecko) Chrome/99.0.4844.74 Safari/537.36",1536,864,1536,754,"main",4443615,5,10,14,12,"EE","Extreme","Easier than Reference","F","k","safeDeck","riskyDeck",-14,0,-7,"right",1,0,32,"absent","riskyDeck",2165,14301,1,0
"11ebzd4ncngc",2532.17538461538,1072.09945236288,13554,"28/03/2022@11:07:30","Mozilla/5.0 (Windows NT 10.0; Win64; x64) AppleWebKit/537.36 (KHTML, like Gecko) Chrome/99.0.4844.74 Safari/537.36",1536,864,1536,754,"main",4443615,5,11,14,12,"EE","Extreme","Easier than Reference","F","j","safeDeck","riskyDeck",-14,0,-7,"right",1,0,32,"present","riskyDeck",2165,1260,1,0
"11ebzd4ncngc",2532.17538461538,1072.09945236288,13554,"28/03/2022@11:07:30","Mozilla/5.0 (Windows NT 10.0; Win64; x64) AppleWebKit/537.36 (KHTML, like Gecko) Chrome/99.0.4844.74 Safari/537.36",1536,864,1536,754,"main",4443615,5,12,14,12,"EE","Extreme","Easier than Reference","F","j","safeDeck","riskyDeck",-14,0,-7,"right",1,0,32,"present","riskyDeck",2165,972,1,0
"11ebzd4ncngc",2532.17538461538,1072.09945236288,13554,"28/03/2022@11:07:30","Mozilla/5.0 (Windows NT 10.0; Win64; x64) AppleWebKit/537.36 (KHTML, like Gecko) Chrome/99.0.4844.74 Safari/537.36",1536,864,1536,754,"main",4443615,5,13,14,12,"EE","Extreme","Easier than Reference","F","k","safeDeck","riskyDeck",-14,0,-7,"right",1,0,32,"absent","riskyDeck",2165,4723,1,0
"11ebzd4ncngc",2532.17538461538,1072.09945236288,13554,"28/03/2022@11:07:30","Mozilla/5.0 (Windows NT 10.0; Win64; x64) AppleWebKit/537.36 (KHTML, like Gecko) Chrome/99.0.4844.74 Safari/537.36",1536,864,1536,754,"main",4443615,5,14,14,12,"EE","Extreme","Easier than Reference","F","j","safeDeck","riskyDeck",-14,0,-7,"right",1,0,32,"present","riskyDeck",2165,1429,1,0
"11ebzd4ncngc",2532.17538461538,1072.09945236288,13554,"28/03/2022@11:07:30","Mozilla/5.0 (Windows NT 10.0; Win64; x64) AppleWebKit/537.36 (KHTML, like Gecko) Chrome/99.0.4844.74 Safari/537.36",1536,864,1536,754,"main",4443615,5,15,14,12,"EE","Extreme","Easier than Reference","F","j","safeDeck","riskyDeck",-14,0,-7,"right",1,0,32,"present","riskyDeck",2165,978,1,0
"11ebzd4ncngc",2532.17538461538,1072.09945236288,13554,"28/03/2022@11:07:30","Mozilla/5.0 (Windows NT 10.0; Win64; x64) AppleWebKit/537.36 (KHTML, like Gecko) Chrome/99.0.4844.74 Safari/537.36",1536,864,1536,754,"main",4443615,5,16,15,12,"EE","Extreme","Easier than Reference","F","k","safeDeck","riskyDeck",-14,0,-7,"right",1,0,32,"absent","riskyDeck",2165,10859,1,0
"11ebzd4ncngc",2532.17538461538,1072.09945236288,13554,"28/03/2022@11:07:30","Mozilla/5.0 (Windows NT 10.0; Win64; x64) AppleWebKit/537.36 (KHTML, like Gecko) Chrome/99.0.4844.74 Safari/537.36",1536,864,1536,754,"main",4443615,5,17,15,12,"EE","Extreme","Easier than Reference","F","j","safeDeck","riskyDeck",-14,0,-7,"right",1,0,32,"present","riskyDeck",2165,1760,1,0
"11ebzd4ncngc",2532.17538461538,1072.09945236288,13554,"28/03/2022@11:07:30","Mozilla/5.0 (Windows NT 10.0; Win64; x64) AppleWebKit/537.36 (KHTML, like Gecko) Chrome/99.0.4844.74 Safari/537.36",1536,864,1536,754,"main",4443615,6,1,15,12,"EM","Moderate","Easier than Reference","D","j","riskyDeck","safeDeck",-28,0,-14,"left",1,0,4,"present","riskyDeck",1615,1474,-1,0
"11ebzd4ncngc",2532.17538461538,1072.09945236288,13554,"28/03/2022@11:07:30","Mozilla/5.0 (Windows NT 10.0; Win64; x64) AppleWebKit/537.36 (KHTML, like Gecko) Chrome/99.0.4844.74 Safari/537.36",1536,864,1536,754,"main",4443615,6,2,15,12,"EM","Moderate","Easier than Reference","D","k","riskyDeck","safeDeck",-28,0,-14,"left",1,0,4,"absent","riskyDeck",1615,955,-1,0
"11ebzd4ncngc",2532.17538461538,1072.09945236288,13554,"28/03/2022@11:07:30","Mozilla/5.0 (Windows NT 10.0; Win64; x64) AppleWebKit/537.36 (KHTML, like Gecko) Chrome/99.0.4844.74 Safari/537.36",1536,864,1536,754,"main",4443615,6,3,15,12,"EM","Moderate","Easier than Reference","D","j","riskyDeck","safeDeck",-28,0,-14,"left",1,0,4,"present","riskyDeck",1615,580,-1,0
"11ebzd4ncngc",2532.17538461538,1072.09945236288,13554,"28/03/2022@11:07:30","Mozilla/5.0 (Windows NT 10.0; Win64; x64) AppleWebKit/537.36 (KHTML, like Gecko) Chrome/99.0.4844.74 Safari/537.36",1536,864,1536,754,"main",4443615,6,4,15,12,"EM","Moderate","Easier than Reference","D","j","riskyDeck","safeDeck",-28,0,-14,"left",1,0,4,"present","riskyDeck",1615,756,-1,0
"11ebzd4ncngc",2532.17538461538,1072.09945236288,13554,"28/03/2022@11:07:30","Mozilla/5.0 (Windows NT 10.0; Win64; x64) AppleWebKit/537.36 (KHTML, like Gecko) Chrome/99.0.4844.74 Safari/537.36",1536,864,1536,754,"main",4443615,6,5,15,12,"EM","Moderate","Easier than Reference","D","k","riskyDeck","safeDeck",-28,0,-14,"left",1,0,4,"absent","riskyDeck",1615,1274,-1,0
"11ebzd4ncngc",2532.17538461538,1072.09945236288,13554,"28/03/2022@11:07:30","Mozilla/5.0 (Windows NT 10.0; Win64; x64) AppleWebKit/537.36 (KHTML, like Gecko) Chrome/99.0.4844.74 Safari/537.36",1536,864,1536,754,"main",4443615,6,6,15,12,"EM","Moderate","Easier than Reference","D","k","riskyDeck","safeDeck",-28,0,-14,"left",1,0,4,"absent","riskyDeck",1615,1170,-1,0
"11ebzd4ncngc",2532.17538461538,1072.09945236288,13554,"28/03/2022@11:07:30","Mozilla/5.0 (Windows NT 10.0; Win64; x64) AppleWebKit/537.36 (KHTML, like Gecko) Chrome/99.0.4844.74 Safari/537.36",1536,864,1536,754,"main",4443615,6,7,15,12,"EM","Moderate","Easier than Reference","D","k","riskyDeck","safeDeck",-28,0,-14,"left",1,0,4,"absent","riskyDeck",1615,1148,-1,0
"11ebzd4ncngc",2532.17538461538,1072.09945236288,13554,"28/03/2022@11:07:30","Mozilla/5.0 (Windows NT 10.0; Win64; x64) AppleWebKit/537.36 (KHTML, like Gecko) Chrome/99.0.4844.74 Safari/537.36",1536,864,1536,754,"main",4443615,6,8,15,13,"EM","Moderate","Easier than Reference","D","k","riskyDeck","safeDeck",-28,0,-14,"left",1,0,4,"absent","riskyDeck",1615,1025,-1,0
"11ebzd4ncngc",2532.17538461538,1072.09945236288,13554,"28/03/2022@11:07:30","Mozilla/5.0 (Windows NT 10.0; Win64; x64) AppleWebKit/537.36 (KHTML, like Gecko) Chrome/99.0.4844.74 Safari/537.36",1536,864,1536,754,"main",4443615,6,9,15,13,"EM","Moderate","Easier than Reference","D","j","riskyDeck","safeDeck",-28,0,-14,"left",1,0,4,"present","riskyDeck",1615,660,-1,0
"11ebzd4ncngc",2532.17538461538,1072.09945236288,13554,"28/03/2022@11:07:30","Mozilla/5.0 (Windows NT 10.0; Win64; x64) AppleWebKit/537.36 (KHTML, like Gecko) Chrome/99.0.4844.74 Safari/537.36",1536,864,1536,754,"main",4443615,6,10,15,13,"EM","Moderate","Easier than Reference","D","k","riskyDeck","safeDeck",-28,0,-14,"left",1,0,4,"absent","riskyDeck",1615,938,-1,0
"11ebzd4ncngc",2532.17538461538,1072.09945236288,13554,"28/03/2022@11:07:30","Mozilla/5.0 (Windows NT 10.0; Win64; x64) AppleWebKit/537.36 (KHTML, like Gecko) Chrome/99.0.4844.74 Safari/537.36",1536,864,1536,754,"main",4443615,6,11,15,13,"EM","Moderate","Easier than Reference","D","j","riskyDeck","safeDeck",-28,0,-14,"left",1,0,4,"present","riskyDeck",1615,779,-1,0
"11ebzd4ncngc",2532.17538461538,1072.09945236288,13554,"28/03/2022@11:07:30","Mozilla/5.0 (Windows NT 10.0; Win64; x64) AppleWebKit/537.36 (KHTML, like Gecko) Chrome/99.0.4844.74 Safari/537.36",1536,864,1536,754,"main",4443615,6,12,15,13,"EM","Moderate","Easier than Reference","D","k","riskyDeck","safeDeck",-28,0,-14,"left",1,0,4,"absent","riskyDeck",1615,644,-1,0
"11ebzd4ncngc",2532.17538461538,1072.09945236288,13554,"28/03/2022@11:07:30","Mozilla/5.0 (Windows NT 10.0; Win64; x64) AppleWebKit/537.36 (KHTML, like Gecko) Chrome/99.0.4844.74 Safari/537.36",1536,864,1536,754,"main",4443615,6,13,15,13,"EM","Moderate","Easier than Reference","D","j","riskyDeck","safeDeck",-28,0,-14,"left",1,0,4,"present","riskyDeck",1615,626,-1,0
"11ebzd4ncngc",2532.17538461538,1072.09945236288,13554,"28/03/2022@11:07:30","Mozilla/5.0 (Windows NT 10.0; Win64; x64) AppleWebKit/537.36 (KHTML, like Gecko) Chrome/99.0.4844.74 Safari/537.36",1536,864,1536,754,"main",4443615,6,14,15,13,"EM","Moderate","Easier than Reference","D","k","riskyDeck","safeDeck",-28,0,-14,"left",1,0,4,"absent","riskyDeck",1615,684,-1,0
"11ebzd4ncngc",2532.17538461538,1072.09945236288,13554,"28/03/2022@11:07:30","Mozilla/5.0 (Windows NT 10.0; Win64; x64) AppleWebKit/537.36 (KHTML, like Gecko) Chrome/99.0.4844.74 Safari/537.36",1536,864,1536,754,"main",4443615,6,15,15,13,"EM","Moderate","Easier than Reference","D","k","riskyDeck","safeDeck",-28,0,-14,"left",1,0,4,"absent","riskyDeck",1615,1262,-1,0
"11ebzd4ncngc",2532.17538461538,1072.09945236288,13554,"28/03/2022@11:07:30","Mozilla/5.0 (Windows NT 10.0; Win64; x64) AppleWebKit/537.36 (KHTML, like Gecko) Chrome/99.0.4844.74 Safari/537.36",1536,864,1536,754,"main",4443615,6,16,15,13,"EM","Moderate","Easier than Reference","D","k","riskyDeck","safeDeck",-28,0,-14,"left",1,0,4,"absent","riskyDeck",1615,696,-1,0
"11ebzd4ncngc",2532.17538461538,1072.09945236288,13554,"28/03/2022@11:07:30","Mozilla/5.0 (Windows NT 10.0; Win64; x64) AppleWebKit/537.36 (KHTML, like Gecko) Chrome/99.0.4844.74 Safari/537.36",1536,864,1536,754,"main",4443615,6,17,15,13,"EM","Moderate","Easier than Reference","D","k","riskyDeck","safeDeck",-28,0,-14,"left",1,0,4,"absent","riskyDeck",1615,689,-1,0
"11ebzd4ncngc",2532.17538461538,1072.09945236288,13554,"28/03/2022@11:07:30","Mozilla/5.0 (Windows NT 10.0; Win64; x64) AppleWebKit/537.36 (KHTML, like Gecko) Chrome/99.0.4844.74 Safari/537.36",1536,864,1536,754,"main",4443615,7,1,15,13,"HM","Moderate","Harder than Reference","F","k","safeDeck","riskyDeck",0,14,7,"right",1,0,46,"absent","riskyDeck",3031,8252,1,0
"11ebzd4ncngc",2532.17538461538,1072.09945236288,13554,"28/03/2022@11:07:30","Mozilla/5.0 (Windows NT 10.0; Win64; x64) AppleWebKit/537.36 (KHTML, like Gecko) Chrome/99.0.4844.74 Safari/537.36",1536,864,1536,754,"main",4443615,7,2,15,13,"HM","Moderate","Harder than Reference","F","j","safeDeck","riskyDeck",0,14,7,"right",1,0,46,"present","riskyDeck",3031,1094,1,0
"11ebzd4ncngc",2532.17538461538,1072.09945236288,13554,"28/03/2022@11:07:30","Mozilla/5.0 (Windows NT 10.0; Win64; x64) AppleWebKit/537.36 (KHTML, like Gecko) Chrome/99.0.4844.74 Safari/537.36",1536,864,1536,754,"main",4443615,7,3,15,13,"HM","Moderate","Harder than Reference","F","k","safeDeck","riskyDeck",0,14,7,"right",1,0,46,"absent","riskyDeck",3031,11921,1,0
"11ebzd4ncngc",2532.17538461538,1072.09945236288,13554,"28/03/2022@11:07:30","Mozilla/5.0 (Windows NT 10.0; Win64; x64) AppleWebKit/537.36 (KHTML, like Gecko) Chrome/99.0.4844.74 Safari/537.36",1536,864,1536,754,"main",4443615,7,4,15,13,"HM","Moderate","Harder than Reference","F","j","safeDeck","riskyDeck",0,14,7,"right",1,0,46,"present","riskyDeck",3031,961,1,0
"11ebzd4ncngc",2532.17538461538,1072.09945236288,13554,"28/03/2022@11:07:30","Mozilla/5.0 (Windows NT 10.0; Win64; x64) AppleWebKit/537.36 (KHTML, like Gecko) Chrome/99.0.4844.74 Safari/537.36",1536,864,1536,754,"main",4443615,7,5,16,13,"HM","Moderate","Harder than Reference","F","k","safeDeck","riskyDeck",0,14,7,"right",1,0,46,"absent","riskyDeck",3031,11100,1,0
"11ebzd4ncngc",2532.17538461538,1072.09945236288,13554,"28/03/2022@11:07:30","Mozilla/5.0 (Windows NT 10.0; Win64; x64) AppleWebKit/537.36 (KHTML, like Gecko) Chrome/99.0.4844.74 Safari/537.36",1536,864,1536,754,"main",4443615,7,6,16,13,"HM","Moderate","Harder than Reference","F","j","safeDeck","riskyDeck",0,14,7,"right",1,0,46,"present","riskyDeck",3031,2306,1,0
"11ebzd4ncngc",2532.17538461538,1072.09945236288,13554,"28/03/2022@11:07:30","Mozilla/5.0 (Windows NT 10.0; Win64; x64) AppleWebKit/537.36 (KHTML, like Gecko) Chrome/99.0.4844.74 Safari/537.36",1536,864,1536,754,"main",4443615,7,7,16,14,"HM","Moderate","Harder than Reference","F","k","safeDeck","riskyDeck",0,14,7,"right",1,0,46,"absent","riskyDeck",3031,18027,1,0
"11ebzd4ncngc",2532.17538461538,1072.09945236288,13554,"28/03/2022@11:07:30","Mozilla/5.0 (Windows NT 10.0; Win64; x64) AppleWebKit/537.36 (KHTML, like Gecko) Chrome/99.0.4844.74 Safari/537.36",1536,864,1536,754,"main",4443615,7,8,16,14,"HM","Moderate","Harder than Reference","F","k","safeDeck","riskyDeck",0,14,7,"right",1,0,46,"absent","riskyDeck",3031,10428,1,0
"11ebzd4ncngc",2532.17538461538,1072.09945236288,13554,"28/03/2022@11:07:30","Mozilla/5.0 (Windows NT 10.0; Win64; x64) AppleWebKit/537.36 (KHTML, like Gecko) Chrome/99.0.4844.74 Safari/537.36",1536,864,1536,754,"main",4443615,7,9,16,14,"HM","Moderate","Harder than Reference","F","j","safeDeck","riskyDeck",0,14,7,"right",1,0,46,"present","riskyDeck",3031,917,1,0
"11ebzd4ncngc",2532.17538461538,1072.09945236288,13554,"28/03/2022@11:07:30","Mozilla/5.0 (Windows NT 10.0; Win64; x64) AppleWebKit/537.36 (KHTML, like Gecko) Chrome/99.0.4844.74 Safari/537.36",1536,864,1536,754,"main",4443615,7,10,16,14,"HM","Moderate","Harder than Reference","F","k","safeDeck","riskyDeck",0,14,7,"right",1,0,46,"absent","riskyDeck",3031,10970,1,0
"11ebzd4ncngc",2532.17538461538,1072.09945236288,13554,"28/03/2022@11:07:30","Mozilla/5.0 (Windows NT 10.0; Win64; x64) AppleWebKit/537.36 (KHTML, like Gecko) Chrome/99.0.4844.74 Safari/537.36",1536,864,1536,754,"main",4443615,7,11,17,14,"HM","Moderate","Harder than Reference","F","k","safeDeck","riskyDeck",0,14,7,"right",1,0,46,"absent","riskyDeck",3031,16324,1,0
"11ebzd4ncngc",2532.17538461538,1072.09945236288,13554,"28/03/2022@11:07:30","Mozilla/5.0 (Windows NT 10.0; Win64; x64) AppleWebKit/537.36 (KHTML, like Gecko) Chrome/99.0.4844.74 Safari/537.36",1536,864,1536,754,"main",4443615,7,14,18,16,"HM","Moderate","Harder than Reference","F","j","safeDeck","riskyDeck",0,14,7,"right",1,0,46,"present","riskyDeck",3031,4776,1,0
"11ebzd4ncngc",2532.17538461538,1072.09945236288,13554,"28/03/2022@11:07:30","Mozilla/5.0 (Windows NT 10.0; Win64; x64) AppleWebKit/537.36 (KHTML, like Gecko) Chrome/99.0.4844.74 Safari/537.36",1536,864,1536,754,"main",4443615,7,15,18,16,"HM","Moderate","Harder than Reference","F","k","safeDeck","riskyDeck",0,14,7,"right",1,0,46,"absent","riskyDeck",3031,15182,1,0
"11ebzd4ncngc",2532.17538461538,1072.09945236288,13554,"28/03/2022@11:07:30","Mozilla/5.0 (Windows NT 10.0; Win64; x64) AppleWebKit/537.36 (KHTML, like Gecko) Chrome/99.0.4844.74 Safari/537.36",1536,864,1536,754,"main",4443615,7,16,18,16,"HM","Moderate","Harder than Reference","F","k","safeDeck","riskyDeck",0,14,7,"right",1,0,46,"absent","riskyDeck",3031,13009,1,0
"11ebzd4ncngc",2532.17538461538,1072.09945236288,13554,"28/03/2022@11:07:30","Mozilla/5.0 (Windows NT 10.0; Win64; x64) AppleWebKit/537.36 (KHTML, like Gecko) Chrome/99.0.4844.74 Safari/537.36",1536,864,1536,754,"main",4443615,7,17,19,16,"HM","Moderate","Harder than Reference","F","k","safeDeck","riskyDeck",0,14,7,"right",1,0,46,"absent","riskyDeck",3031,12186,1,0
"11ebzd4ncngc",2532.17538461538,1072.09945236288,13554,"28/03/2022@11:07:30","Mozilla/5.0 (Windows NT 10.0; Win64; x64) AppleWebKit/537.36 (KHTML, like Gecko) Chrome/99.0.4844.74 Safari/537.36",1536,864,1536,754,"main",4443615,8,1,19,16,"HE","Extreme","Harder than Reference","F","j","safeDeck","riskyDeck",0,28,14,"right",1,0,60,"present","riskyDeck",3165,1355,1,0
"11ebzd4ncngc",2532.17538461538,1072.09945236288,13554,"28/03/2022@11:07:30","Mozilla/5.0 (Windows NT 10.0; Win64; x64) AppleWebKit/537.36 (KHTML, like Gecko) Chrome/99.0.4844.74 Safari/537.36",1536,864,1536,754,"main",4443615,8,2,19,17,"HE","Extreme","Harder than Reference","F","k","safeDeck","riskyDeck",0,28,14,"right",1,0,60,"absent","riskyDeck",3165,17558,1,0
"11ebzd4ncngc",2532.17538461538,1072.09945236288,13554,"28/03/2022@11:07:30","Mozilla/5.0 (Windows NT 10.0; Win64; x64) AppleWebKit/537.36 (KHTML, like Gecko) Chrome/99.0.4844.74 Safari/537.36",1536,864,1536,754,"main",4443615,8,3,19,17,"HE","Extreme","Harder than Reference","F","k","safeDeck","riskyDeck",0,28,14,"right",1,0,60,"absent","riskyDeck",3165,12649,1,0
"11ebzd4ncngc",2532.17538461538,1072.09945236288,13554,"28/03/2022@11:07:30","Mozilla/5.0 (Windows NT 10.0; Win64; x64) AppleWebKit/537.36 (KHTML, like Gecko) Chrome/99.0.4844.74 Safari/537.36",1536,864,1536,754,"main",4443615,8,4,20,17,"HE","Extreme","Harder than Reference","F","k","safeDeck","riskyDeck",0,28,14,"right",1,0,60,"absent","riskyDeck",3165,17469,1,0
"11ebzd4ncngc",2532.17538461538,1072.09945236288,13554,"28/03/2022@11:07:30","Mozilla/5.0 (Windows NT 10.0; Win64; x64) AppleWebKit/537.36 (KHTML, like Gecko) Chrome/99.0.4844.74 Safari/537.36",1536,864,1536,754,"main",4443615,8,5,20,17,"HE","Extreme","Harder than Reference","F","j","safeDeck","riskyDeck",0,28,14,"right",1,0,60,"present","riskyDeck",3165,882,1,0
"11ebzd4ncngc",2532.17538461538,1072.09945236288,13554,"28/03/2022@11:07:30","Mozilla/5.0 (Windows NT 10.0; Win64; x64) AppleWebKit/537.36 (KHTML, like Gecko) Chrome/99.0.4844.74 Safari/537.36",1536,864,1536,754,"main",4443615,8,6,20,17,"HE","Extreme","Harder than Reference","F","j","safeDeck","riskyDeck",0,28,14,"right",1,0,60,"present","riskyDeck",3165,3047,1,0
"11ebzd4ncngc",2532.17538461538,1072.09945236288,13554,"28/03/2022@11:07:30","Mozilla/5.0 (Windows NT 10.0; Win64; x64) AppleWebKit/537.36 (KHTML, like Gecko) Chrome/99.0.4844.74 Safari/537.36",1536,864,1536,754,"main",4443615,8,7,20,18,"HE","Extreme","Harder than Reference","F","k","safeDeck","riskyDeck",0,28,14,"right",1,0,60,"absent","riskyDeck",3165,11909,1,0
"11ebzd4ncngc",2532.17538461538,1072.09945236288,13554,"28/03/2022@11:07:30","Mozilla/5.0 (Windows NT 10.0; Win64; x64) AppleWebKit/537.36 (KHTML, like Gecko) Chrome/99.0.4844.74 Safari/537.36",1536,864,1536,754,"main",4443615,8,8,20,18,"HE","Extreme","Harder than Reference","F","j","safeDeck","riskyDeck",0,28,14,"right",1,0,60,"present","riskyDeck",3165,1130,1,0
"11ebzd4ncngc",2532.17538461538,1072.09945236288,13554,"28/03/2022@11:07:30","Mozilla/5.0 (Windows NT 10.0; Win64; x64) AppleWebKit/537.36 (KHTML, like Gecko) Chrome/99.0.4844.74 Safari/537.36",1536,864,1536,754,"main",4443615,8,9,20,18,"HE","Extreme","Harder than Reference","F","j","safeDeck","riskyDeck",0,28,14,"right",1,0,60,"present","riskyDeck",3165,6846,1,0
"11ebzd4ncngc",2532.17538461538,1072.09945236288,13554,"28/03/2022@11:07:30","Mozilla/5.0 (Windows NT 10.0; Win64; x64) AppleWebKit/537.36 (KHTML, like Gecko) Chrome/99.0.4844.74 Safari/537.36",1536,864,1536,754,"main",4443615,8,10,20,18,"HE","Extreme","Harder than Reference","F","k","safeDeck","riskyDeck",0,28,14,"right",1,0,60,"absent","riskyDeck",3165,9953,1,0
"11ebzd4ncngc",2532.17538461538,1072.09945236288,13554,"28/03/2022@11:07:30","Mozilla/5.0 (Windows NT 10.0; Win64; x64) AppleWebKit/537.36 (KHTML, like Gecko) Chrome/99.0.4844.74 Safari/537.36",1536,864,1536,754,"main",4443615,8,11,20,18,"HE","Extreme","Harder than Reference","F","k","safeDeck","riskyDeck",0,28,14,"right",1,0,60,"absent","riskyDeck",3165,11521,1,0
"11ebzd4ncngc",2532.17538461538,1072.09945236288,13554,"28/03/2022@11:07:30","Mozilla/5.0 (Windows NT 10.0; Win64; x64) AppleWebKit/537.36 (KHTML, like Gecko) Chrome/99.0.4844.74 Safari/537.36",1536,864,1536,754,"main",4443615,8,12,20,18,"HE","Extreme","Harder than Reference","F","j","safeDeck","riskyDeck",0,28,14,"right",1,0,60,"present","riskyDeck",3165,2415,1,0
"11ebzd4ncngc",2532.17538461538,1072.09945236288,13554,"28/03/2022@11:07:30","Mozilla/5.0 (Windows NT 10.0; Win64; x64) AppleWebKit/537.36 (KHTML, like Gecko) Chrome/99.0.4844.74 Safari/537.36",1536,864,1536,754,"main",4443615,8,13,21,18,"HE","Extreme","Harder than Reference","F","k","safeDeck","riskyDeck",0,28,14,"right",1,0,60,"absent","riskyDeck",3165,18940,1,0
"11ebzd4ncngc",2532.17538461538,1072.09945236288,13554,"28/03/2022@11:07:30","Mozilla/5.0 (Windows NT 10.0; Win64; x64) AppleWebKit/537.36 (KHTML, like Gecko) Chrome/99.0.4844.74 Safari/537.36",1536,864,1536,754,"main",4443615,8,15,21,19,"HE","Extreme","Harder than Reference","F","j","safeDeck","riskyDeck",0,28,14,"right",1,0,60,"present","riskyDeck",3165,1024,1,0
"11ebzd4ncngc",2532.17538461538,1072.09945236288,13554,"28/03/2022@11:07:30","Mozilla/5.0 (Windows NT 10.0; Win64; x64) AppleWebKit/537.36 (KHTML, like Gecko) Chrome/99.0.4844.74 Safari/537.36",1536,864,1536,754,"main",4443615,8,16,21,19,"HE","Extreme","Harder than Reference","F","j","safeDeck","riskyDeck",0,28,14,"right",1,0,60,"present","riskyDeck",3165,1645,1,0
"11ebzd4ncngc",2532.17538461538,1072.09945236288,13554,"28/03/2022@11:07:30","Mozilla/5.0 (Windows NT 10.0; Win64; x64) AppleWebKit/537.36 (KHTML, like Gecko) Chrome/99.0.4844.74 Safari/537.36",1536,864,1536,754,"main",4443615,8,17,21,19,"HE","Extreme","Harder than Reference","F","j","safeDeck","riskyDeck",0,28,14,"right",1,0,60,"present","riskyDeck",3165,1542,1,0
"11ebzd4ncngc",2532.17538461538,1072.09945236288,13554,"28/03/2022@11:07:30","Mozilla/5.0 (Windows NT 10.0; Win64; x64) AppleWebKit/537.36 (KHTML, like Gecko) Chrome/99.0.4844.74 Safari/537.36",1536,864,1536,754,"main",4443615,9,1,21,19,"HM","Moderate","Harder than Reference","D","k","riskyDeck","safeDeck",0,14,7,"left",1,0,32,"absent","riskyDeck",1896,7582,-1,0
"11ebzd4ncngc",2532.17538461538,1072.09945236288,13554,"28/03/2022@11:07:30","Mozilla/5.0 (Windows NT 10.0; Win64; x64) AppleWebKit/537.36 (KHTML, like Gecko) Chrome/99.0.4844.74 Safari/537.36",1536,864,1536,754,"main",4443615,9,2,21,19,"HM","Moderate","Harder than Reference","D","j","riskyDeck","safeDeck",0,14,7,"left",1,0,32,"present","riskyDeck",1896,726,-1,0
"11ebzd4ncngc",2532.17538461538,1072.09945236288,13554,"28/03/2022@11:07:30","Mozilla/5.0 (Windows NT 10.0; Win64; x64) AppleWebKit/537.36 (KHTML, like Gecko) Chrome/99.0.4844.74 Safari/537.36",1536,864,1536,754,"main",4443615,9,3,21,19,"HM","Moderate","Harder than Reference","D","j","riskyDeck","safeDeck",0,14,7,"left",1,0,32,"present","riskyDeck",1896,1003,-1,0
"11ebzd4ncngc",2532.17538461538,1072.09945236288,13554,"28/03/2022@11:07:30","Mozilla/5.0 (Windows NT 10.0; Win64; x64) AppleWebKit/537.36 (KHTML, like Gecko) Chrome/99.0.4844.74 Safari/537.36",1536,864,1536,754,"main",4443615,9,4,22,19,"HM","Moderate","Harder than Reference","D","k","riskyDeck","safeDeck",0,14,7,"left",1,0,32,"absent","riskyDeck",1896,5444,-1,0
"11ebzd4ncngc",2532.17538461538,1072.09945236288,13554,"28/03/2022@11:07:30","Mozilla/5.0 (Windows NT 10.0; Win64; x64) AppleWebKit/537.36 (KHTML, like Gecko) Chrome/99.0.4844.74 Safari/537.36",1536,864,1536,754,"main",4443615,9,5,22,19,"HM","Moderate","Harder than Reference","D","k","riskyDeck","safeDeck",0,14,7,"left",1,0,32,"absent","riskyDeck",1896,5023,-1,0
"11ebzd4ncngc",2532.17538461538,1072.09945236288,13554,"28/03/2022@11:07:30","Mozilla/5.0 (Windows NT 10.0; Win64; x64) AppleWebKit/537.36 (KHTML, like Gecko) Chrome/99.0.4844.74 Safari/537.36",1536,864,1536,754,"main",4443615,9,6,22,19,"HM","Moderate","Harder than Reference","D","j","riskyDeck","safeDeck",0,14,7,"left",1,0,32,"present","riskyDeck",1896,938,-1,0
"11ebzd4ncngc",2532.17538461538,1072.09945236288,13554,"28/03/2022@11:07:30","Mozilla/5.0 (Windows NT 10.0; Win64; x64) AppleWebKit/537.36 (KHTML, like Gecko) Chrome/99.0.4844.74 Safari/537.36",1536,864,1536,754,"main",4443615,9,7,22,19,"HM","Moderate","Harder than Reference","D","k","riskyDeck","safeDeck",0,14,7,"left",1,0,32,"absent","riskyDeck",1896,9106,-1,0
"11ebzd4ncngc",2532.17538461538,1072.09945236288,13554,"28/03/2022@11:07:30","Mozilla/5.0 (Windows NT 10.0; Win64; x64) AppleWebKit/537.36 (KHTML, like Gecko) Chrome/99.0.4844.74 Safari/537.36",1536,864,1536,754,"main",4443615,9,8,22,20,"HM","Moderate","Harder than Reference","D","k","riskyDeck","safeDeck",0,14,7,"left",1,0,32,"absent","riskyDeck",1896,2044,-1,0
"11ebzd4ncngc",2532.17538461538,1072.09945236288,13554,"28/03/2022@11:07:30","Mozilla/5.0 (Windows NT 10.0; Win64; x64) AppleWebKit/537.36 (KHTML, like Gecko) Chrome/99.0.4844.74 Safari/537.36",1536,864,1536,754,"main",4443615,9,9,22,20,"HM","Moderate","Harder than Reference","D","j","riskyDeck","safeDeck",0,14,7,"left",1,0,32,"present","riskyDeck",1896,759,-1,0
"11ebzd4ncngc",2532.17538461538,1072.09945236288,13554,"28/03/2022@11:07:30","Mozilla/5.0 (Windows NT 10.0; Win64; x64) AppleWebKit/537.36 (KHTML, like Gecko) Chrome/99.0.4844.74 Safari/537.36",1536,864,1536,754,"main",4443615,9,10,22,20,"HM","Moderate","Harder than Reference","D","k","riskyDeck","safeDeck",0,14,7,"left",1,0,32,"absent","riskyDeck",1896,15605,-1,0
"11ebzd4ncngc",2532.17538461538,1072.09945236288,13554,"28/03/2022@11:07:30","Mozilla/5.0 (Windows NT 10.0; Win64; x64) AppleWebKit/537.36 (KHTML, like Gecko) Chrome/99.0.4844.74 Safari/537.36",1536,864,1536,754,"main",4443615,9,11,22,20,"HM","Moderate","Harder than Reference","D","j","riskyDeck","safeDeck",0,14,7,"left",1,0,32,"present","riskyDeck",1896,1479,-1,0
"11ebzd4ncngc",2532.17538461538,1072.09945236288,13554,"28/03/2022@11:07:30","Mozilla/5.0 (Windows NT 10.0; Win64; x64) AppleWebKit/537.36 (KHTML, like Gecko) Chrome/99.0.4844.74 Safari/537.36",1536,864,1536,754,"main",4443615,9,12,22,20,"HM","Moderate","Harder than Reference","D","k","riskyDeck","safeDeck",0,14,7,"left",1,0,32,"absent","riskyDeck",1896,8703,-1,0
"11ebzd4ncngc",2532.17538461538,1072.09945236288,13554,"28/03/2022@11:07:30","Mozilla/5.0 (Windows NT 10.0; Win64; x64) AppleWebKit/537.36 (KHTML, like Gecko) Chrome/99.0.4844.74 Safari/537.36",1536,864,1536,754,"main",4443615,9,13,22,20,"HM","Moderate","Harder than Reference","D","j","riskyDeck","safeDeck",0,14,7,"left",1,0,32,"present","riskyDeck",1896,678,-1,0
"11ebzd4ncngc",2532.17538461538,1072.09945236288,13554,"28/03/2022@11:07:30","Mozilla/5.0 (Windows NT 10.0; Win64; x64) AppleWebKit/537.36 (KHTML, like Gecko) Chrome/99.0.4844.74 Safari/537.36",1536,864,1536,754,"main",4443615,9,14,22,20,"HM","Moderate","Harder than Reference","D","j","riskyDeck","safeDeck",0,14,7,"left",1,0,32,"present","riskyDeck",1896,803,-1,0
"11ebzd4ncngc",2532.17538461538,1072.09945236288,13554,"28/03/2022@11:07:30","Mozilla/5.0 (Windows NT 10.0; Win64; x64) AppleWebKit/537.36 (KHTML, like Gecko) Chrome/99.0.4844.74 Safari/537.36",1536,864,1536,754,"main",4443615,9,15,23,20,"HM","Moderate","Harder than Reference","D","k","riskyDeck","safeDeck",0,14,7,"left",1,0,32,"absent","riskyDeck",1896,7961,-1,0
"11ebzd4ncngc",2532.17538461538,1072.09945236288,13554,"28/03/2022@11:07:30","Mozilla/5.0 (Windows NT 10.0; Win64; x64) AppleWebKit/537.36 (KHTML, like Gecko) Chrome/99.0.4844.74 Safari/537.36",1536,864,1536,754,"main",4443615,9,16,23,20,"HM","Moderate","Harder than Reference","D","k","riskyDeck","safeDeck",0,14,7,"left",1,0,32,"absent","riskyDeck",1896,7486,-1,0
"11ebzd4ncngc",2532.17538461538,1072.09945236288,13554,"28/03/2022@11:07:30","Mozilla/5.0 (Windows NT 10.0; Win64; x64) AppleWebKit/537.36 (KHTML, like Gecko) Chrome/99.0.4844.74 Safari/537.36",1536,864,1536,754,"main",4443615,9,17,23,20,"HM","Moderate","Harder than Reference","D","k","riskyDeck","safeDeck",0,14,7,"left",1,0,32,"absent","riskyDeck",1896,3993,-1,0
"11ebzd4ncngc",2532.17538461538,1072.09945236288,13554,"28/03/2022@11:07:30","Mozilla/5.0 (Windows NT 10.0; Win64; x64) AppleWebKit/537.36 (KHTML, like Gecko) Chrome/99.0.4844.74 Safari/537.36",1536,864,1536,754,"main",4443615,10,1,23,20,"EE","Extreme","Easier than Reference","D","j","riskyDeck","safeDeck",-14,0,-7,"left",1,0,32,"present","riskyDeck",1480,966,-1,0
"11ebzd4ncngc",2532.17538461538,1072.09945236288,13554,"28/03/2022@11:07:30","Mozilla/5.0 (Windows NT 10.0; Win64; x64) AppleWebKit/537.36 (KHTML, like Gecko) Chrome/99.0.4844.74 Safari/537.36",1536,864,1536,754,"main",4443615,10,2,23,20,"EE","Extreme","Easier than Reference","D","j","riskyDeck","safeDeck",-14,0,-7,"left",1,0,32,"present","riskyDeck",1480,1396,-1,0
"11ebzd4ncngc",2532.17538461538,1072.09945236288,13554,"28/03/2022@11:07:30","Mozilla/5.0 (Windows NT 10.0; Win64; x64) AppleWebKit/537.36 (KHTML, like Gecko) Chrome/99.0.4844.74 Safari/537.36",1536,864,1536,754,"main",4443615,10,3,23,21,"EE","Extreme","Easier than Reference","D","k","riskyDeck","safeDeck",-14,0,-7,"left",1,0,32,"absent","riskyDeck",1480,5547,-1,0
"11ebzd4ncngc",2532.17538461538,1072.09945236288,13554,"28/03/2022@11:07:30","Mozilla/5.0 (Windows NT 10.0; Win64; x64) AppleWebKit/537.36 (KHTML, like Gecko) Chrome/99.0.4844.74 Safari/537.36",1536,864,1536,754,"main",4443615,10,4,23,21,"EE","Extreme","Easier than Reference","D","j","riskyDeck","safeDeck",-14,0,-7,"left",1,0,32,"present","riskyDeck",1480,894,-1,0
"11ebzd4ncngc",2532.17538461538,1072.09945236288,13554,"28/03/2022@11:07:30","Mozilla/5.0 (Windows NT 10.0; Win64; x64) AppleWebKit/537.36 (KHTML, like Gecko) Chrome/99.0.4844.74 Safari/537.36",1536,864,1536,754,"main",4443615,10,5,23,21,"EE","Extreme","Easier than Reference","D","k","riskyDeck","safeDeck",-14,0,-7,"left",1,0,32,"absent","riskyDeck",1480,6722,-1,0
"11ebzd4ncngc",2532.17538461538,1072.09945236288,13554,"28/03/2022@11:07:30","Mozilla/5.0 (Windows NT 10.0; Win64; x64) AppleWebKit/537.36 (KHTML, like Gecko) Chrome/99.0.4844.74 Safari/537.36",1536,864,1536,754,"main",4443615,10,6,23,21,"EE","Extreme","Easier than Reference","D","k","riskyDeck","safeDeck",-14,0,-7,"left",1,0,32,"absent","riskyDeck",1480,4372,-1,0
"11ebzd4ncngc",2532.17538461538,1072.09945236288,13554,"28/03/2022@11:07:30","Mozilla/5.0 (Windows NT 10.0; Win64; x64) AppleWebKit/537.36 (KHTML, like Gecko) Chrome/99.0.4844.74 Safari/537.36",1536,864,1536,754,"main",4443615,10,7,23,21,"EE","Extreme","Easier than Reference","D","j","riskyDeck","safeDeck",-14,0,-7,"left",1,0,32,"present","riskyDeck",1480,831,-1,0
"11ebzd4ncngc",2532.17538461538,1072.09945236288,13554,"28/03/2022@11:07:30","Mozilla/5.0 (Windows NT 10.0; Win64; x64) AppleWebKit/537.36 (KHTML, like Gecko) Chrome/99.0.4844.74 Safari/537.36",1536,864,1536,754,"main",4443615,10,8,23,21,"EE","Extreme","Easier than Reference","D","k","riskyDeck","safeDeck",-14,0,-7,"left",1,0,32,"absent","riskyDeck",1480,4149,-1,0
"11ebzd4ncngc",2532.17538461538,1072.09945236288,13554,"28/03/2022@11:07:30","Mozilla/5.0 (Windows NT 10.0; Win64; x64) AppleWebKit/537.36 (KHTML, like Gecko) Chrome/99.0.4844.74 Safari/537.36",1536,864,1536,754,"main",4443615,10,9,23,21,"EE","Extreme","Easier than Reference","D","k","riskyDeck","safeDeck",-14,0,-7,"left",1,0,32,"absent","riskyDeck",1480,4715,-1,0
"11ebzd4ncngc",2532.17538461538,1072.09945236288,13554,"28/03/2022@11:07:30","Mozilla/5.0 (Windows NT 10.0; Win64; x64) AppleWebKit/537.36 (KHTML, like Gecko) Chrome/99.0.4844.74 Safari/537.36",1536,864,1536,754,"main",4443615,10,10,23,21,"EE","Extreme","Easier than Reference","D","j","riskyDeck","safeDeck",-14,0,-7,"left",1,0,32,"present","riskyDeck",1480,1232,-1,0
"11ebzd4ncngc",2532.17538461538,1072.09945236288,13554,"28/03/2022@11:07:30","Mozilla/5.0 (Windows NT 10.0; Win64; x64) AppleWebKit/537.36 (KHTML, like Gecko) Chrome/99.0.4844.74 Safari/537.36",1536,864,1536,754,"main",4443615,10,11,23,21,"EE","Extreme","Easier than Reference","D","k","riskyDeck","safeDeck",-14,0,-7,"left",1,0,32,"absent","riskyDeck",1480,8247,-1,0
"11ebzd4ncngc",2532.17538461538,1072.09945236288,13554,"28/03/2022@11:07:30","Mozilla/5.0 (Windows NT 10.0; Win64; x64) AppleWebKit/537.36 (KHTML, like Gecko) Chrome/99.0.4844.74 Safari/537.36",1536,864,1536,754,"main",4443615,10,12,24,21,"EE","Extreme","Easier than Reference","D","j","riskyDeck","safeDeck",-14,0,-7,"left",1,0,32,"present","riskyDeck",1480,1530,-1,0
"11ebzd4ncngc",2532.17538461538,1072.09945236288,13554,"28/03/2022@11:07:30","Mozilla/5.0 (Windows NT 10.0; Win64; x64) AppleWebKit/537.36 (KHTML, like Gecko) Chrome/99.0.4844.74 Safari/537.36",1536,864,1536,754,"main",4443615,10,13,24,21,"EE","Extreme","Easier than Reference","D","j","riskyDeck","safeDeck",-14,0,-7,"left",1,0,32,"present","riskyDeck",1480,1662,-1,0
"11ebzd4ncngc",2532.17538461538,1072.09945236288,13554,"28/03/2022@11:07:30","Mozilla/5.0 (Windows NT 10.0; Win64; x64) AppleWebKit/537.36 (KHTML, like Gecko) Chrome/99.0.4844.74 Safari/537.36",1536,864,1536,754,"main",4443615,10,14,24,21,"EE","Extreme","Easier than Reference","D","j","riskyDeck","safeDeck",-14,0,-7,"left",1,0,32,"present","riskyDeck",1480,972,-1,0
"11ebzd4ncngc",2532.17538461538,1072.09945236288,13554,"28/03/2022@11:07:30","Mozilla/5.0 (Windows NT 10.0; Win64; x64) AppleWebKit/537.36 (KHTML, like Gecko) Chrome/99.0.4844.74 Safari/537.36",1536,864,1536,754,"main",4443615,10,15,24,21,"EE","Extreme","Easier than Reference","D","k","riskyDeck","safeDeck",-14,0,-7,"left",1,0,32,"absent","riskyDeck",1480,5588,-1,0
"11ebzd4ncngc",2532.17538461538,1072.09945236288,13554,"28/03/2022@11:07:30","Mozilla/5.0 (Windows NT 10.0; Win64; x64) AppleWebKit/537.36 (KHTML, like Gecko) Chrome/99.0.4844.74 Safari/537.36",1536,864,1536,754,"main",4443615,10,16,24,21,"EE","Extreme","Easier than Reference","D","j","riskyDeck","safeDeck",-14,0,-7,"left",1,0,32,"present","riskyDeck",1480,1338,-1,0
"11ebzd4ncngc",2532.17538461538,1072.09945236288,13554,"28/03/2022@11:07:30","Mozilla/5.0 (Windows NT 10.0; Win64; x64) AppleWebKit/537.36 (KHTML, like Gecko) Chrome/99.0.4844.74 Safari/537.36",1536,864,1536,754,"main",4443615,10,17,24,22,"EE","Extreme","Easier than Reference","D","k","riskyDeck","safeDeck",-14,0,-7,"left",1,0,32,"absent","riskyDeck",1480,11004,-1,0
"11ebzd4ncngc",2532.17538461538,1072.09945236288,13554,"28/03/2022@11:07:30","Mozilla/5.0 (Windows NT 10.0; Win64; x64) AppleWebKit/537.36 (KHTML, like Gecko) Chrome/99.0.4844.74 Safari/537.36",1536,864,1536,754,"main",4443615,11,1,24,22,"HE","Extreme","Harder than Reference","D","j","riskyDeck","safeDeck",28,0,14,"left",1,0,32,"present","riskyDeck",4207,999,-1,0
"11ebzd4ncngc",2532.17538461538,1072.09945236288,13554,"28/03/2022@11:07:30","Mozilla/5.0 (Windows NT 10.0; Win64; x64) AppleWebKit/537.36 (KHTML, like Gecko) Chrome/99.0.4844.74 Safari/537.36",1536,864,1536,754,"main",4443615,11,2,24,22,"HE","Extreme","Harder than Reference","D","j","riskyDeck","safeDeck",28,0,14,"left",1,0,32,"present","riskyDeck",4207,1363,-1,0
"11ebzd4ncngc",2532.17538461538,1072.09945236288,13554,"28/03/2022@11:07:30","Mozilla/5.0 (Windows NT 10.0; Win64; x64) AppleWebKit/537.36 (KHTML, like Gecko) Chrome/99.0.4844.74 Safari/537.36",1536,864,1536,754,"main",4443615,11,3,24,22,"HE","Extreme","Harder than Reference","D","j","riskyDeck","safeDeck",28,0,14,"left",1,0,32,"present","riskyDeck",4207,1100,-1,0
"11ebzd4ncngc",2532.17538461538,1072.09945236288,13554,"28/03/2022@11:07:30","Mozilla/5.0 (Windows NT 10.0; Win64; x64) AppleWebKit/537.36 (KHTML, like Gecko) Chrome/99.0.4844.74 Safari/537.36",1536,864,1536,754,"main",4443615,11,4,24,22,"HE","Extreme","Harder than Reference","D","k","riskyDeck","safeDeck",28,0,14,"left",1,0,32,"absent","riskyDeck",4207,8133,-1,0
"11ebzd4ncngc",2532.17538461538,1072.09945236288,13554,"28/03/2022@11:07:30","Mozilla/5.0 (Windows NT 10.0; Win64; x64) AppleWebKit/537.36 (KHTML, like Gecko) Chrome/99.0.4844.74 Safari/537.36",1536,864,1536,754,"main",4443615,11,5,24,22,"HE","Extreme","Harder than Reference","D","k","riskyDeck","safeDeck",28,0,14,"left",1,0,32,"absent","riskyDeck",4207,7396,-1,0
"11ebzd4ncngc",2532.17538461538,1072.09945236288,13554,"28/03/2022@11:07:30","Mozilla/5.0 (Windows NT 10.0; Win64; x64) AppleWebKit/537.36 (KHTML, like Gecko) Chrome/99.0.4844.74 Safari/537.36",1536,864,1536,754,"main",4443615,11,6,24,22,"HE","Extreme","Harder than Reference","D","j","riskyDeck","safeDeck",28,0,14,"left",1,0,32,"present","riskyDeck",4207,994,-1,0
"11ebzd4ncngc",2532.17538461538,1072.09945236288,13554,"28/03/2022@11:07:30","Mozilla/5.0 (Windows NT 10.0; Win64; x64) AppleWebKit/537.36 (KHTML, like Gecko) Chrome/99.0.4844.74 Safari/537.36",1536,864,1536,754,"main",4443615,11,7,24,22,"HE","Extreme","Harder than Reference","D","j","riskyDeck","safeDeck",28,0,14,"left",1,0,32,"present","riskyDeck",4207,873,-1,0
"11ebzd4ncngc",2532.17538461538,1072.09945236288,13554,"28/03/2022@11:07:30","Mozilla/5.0 (Windows NT 10.0; Win64; x64) AppleWebKit/537.36 (KHTML, like Gecko) Chrome/99.0.4844.74 Safari/537.36",1536,864,1536,754,"main",4443615,11,8,25,22,"HE","Extreme","Harder than Reference","D","k","riskyDeck","safeDeck",28,0,14,"left",1,0,32,"absent","riskyDeck",4207,5061,-1,0
"11ebzd4ncngc",2532.17538461538,1072.09945236288,13554,"28/03/2022@11:07:30","Mozilla/5.0 (Windows NT 10.0; Win64; x64) AppleWebKit/537.36 (KHTML, like Gecko) Chrome/99.0.4844.74 Safari/537.36",1536,864,1536,754,"main",4443615,11,9,25,22,"HE","Extreme","Harder than Reference","D","j","riskyDeck","safeDeck",28,0,14,"left",1,0,32,"present","riskyDeck",4207,1799,-1,0
"11ebzd4ncngc",2532.17538461538,1072.09945236288,13554,"28/03/2022@11:07:30","Mozilla/5.0 (Windows NT 10.0; Win64; x64) AppleWebKit/537.36 (KHTML, like Gecko) Chrome/99.0.4844.74 Safari/537.36",1536,864,1536,754,"main",4443615,11,10,25,22,"HE","Extreme","Harder than Reference","D","k","riskyDeck","safeDeck",28,0,14,"left",1,0,32,"absent","riskyDeck",4207,12909,-1,0
"11ebzd4ncngc",2532.17538461538,1072.09945236288,13554,"28/03/2022@11:07:30","Mozilla/5.0 (Windows NT 10.0; Win64; x64) AppleWebKit/537.36 (KHTML, like Gecko) Chrome/99.0.4844.74 Safari/537.36",1536,864,1536,754,"main",4443615,11,11,25,23,"HE","Extreme","Harder than Reference","D","k","riskyDeck","safeDeck",28,0,14,"left",1,0,32,"absent","riskyDeck",4207,6822,-1,0
"11ebzd4ncngc",2532.17538461538,1072.09945236288,13554,"28/03/2022@11:07:30","Mozilla/5.0 (Windows NT 10.0; Win64; x64) AppleWebKit/537.36 (KHTML, like Gecko) Chrome/99.0.4844.74 Safari/537.36",1536,864,1536,754,"main",4443615,11,12,25,23,"HE","Extreme","Harder than Reference","D","k","riskyDeck","safeDeck",28,0,14,"left",1,0,32,"absent","riskyDeck",4207,5703,-1,0
"11ebzd4ncngc",2532.17538461538,1072.09945236288,13554,"28/03/2022@11:07:30","Mozilla/5.0 (Windows NT 10.0; Win64; x64) AppleWebKit/537.36 (KHTML, like Gecko) Chrome/99.0.4844.74 Safari/537.36",1536,864,1536,754,"main",4443615,11,13,25,23,"HE","Extreme","Harder than Reference","D","j","riskyDeck","safeDeck",28,0,14,"left",1,0,32,"present","riskyDeck",4207,1137,-1,0
"11ebzd4ncngc",2532.17538461538,1072.09945236288,13554,"28/03/2022@11:07:30","Mozilla/5.0 (Windows NT 10.0; Win64; x64) AppleWebKit/537.36 (KHTML, like Gecko) Chrome/99.0.4844.74 Safari/537.36",1536,864,1536,754,"main",4443615,11,14,25,23,"HE","Extreme","Harder than Reference","D","k","riskyDeck","safeDeck",28,0,14,"left",1,0,32,"absent","riskyDeck",4207,5135,-1,0
"11ebzd4ncngc",2532.17538461538,1072.09945236288,13554,"28/03/2022@11:07:30","Mozilla/5.0 (Windows NT 10.0; Win64; x64) AppleWebKit/537.36 (KHTML, like Gecko) Chrome/99.0.4844.74 Safari/537.36",1536,864,1536,754,"main",4443615,11,15,25,23,"HE","Extreme","Harder than Reference","D","j","riskyDeck","safeDeck",28,0,14,"left",1,0,32,"present","riskyDeck",4207,2505,-1,0
"11ebzd4ncngc",2532.17538461538,1072.09945236288,13554,"28/03/2022@11:07:30","Mozilla/5.0 (Windows NT 10.0; Win64; x64) AppleWebKit/537.36 (KHTML, like Gecko) Chrome/99.0.4844.74 Safari/537.36",1536,864,1536,754,"main",4443615,11,16,25,23,"HE","Extreme","Harder than Reference","D","k","riskyDeck","safeDeck",28,0,14,"left",1,0,32,"absent","riskyDeck",4207,11114,-1,0
"11ebzd4ncngc",2532.17538461538,1072.09945236288,13554,"28/03/2022@11:07:30","Mozilla/5.0 (Windows NT 10.0; Win64; x64) AppleWebKit/537.36 (KHTML, like Gecko) Chrome/99.0.4844.74 Safari/537.36",1536,864,1536,754,"main",4443615,11,17,25,23,"HE","Extreme","Harder than Reference","D","j","riskyDeck","safeDeck",28,0,14,"left",1,0,32,"present","riskyDeck",4207,1702,-1,0
"11ebzd4ncngc",2532.17538461538,1072.09945236288,13554,"28/03/2022@11:07:30","Mozilla/5.0 (Windows NT 10.0; Win64; x64) AppleWebKit/537.36 (KHTML, like Gecko) Chrome/99.0.4844.74 Safari/537.36",1536,864,1536,754,"main",4443615,12,1,26,23,"EM","Moderate","Easier than Reference","D","k","riskyDeck","safeDeck",0,-28,-14,"left",1,0,32,"absent","riskyDeck",2326,10638,-1,0
"11ebzd4ncngc",2532.17538461538,1072.09945236288,13554,"28/03/2022@11:07:30","Mozilla/5.0 (Windows NT 10.0; Win64; x64) AppleWebKit/537.36 (KHTML, like Gecko) Chrome/99.0.4844.74 Safari/537.36",1536,864,1536,754,"main",4443615,12,2,26,23,"EM","Moderate","Easier than Reference","D","j","riskyDeck","safeDeck",0,-28,-14,"left",1,0,32,"present","riskyDeck",2326,1069,-1,0
"11ebzd4ncngc",2532.17538461538,1072.09945236288,13554,"28/03/2022@11:07:30","Mozilla/5.0 (Windows NT 10.0; Win64; x64) AppleWebKit/537.36 (KHTML, like Gecko) Chrome/99.0.4844.74 Safari/537.36",1536,864,1536,754,"main",4443615,12,3,26,23,"EM","Moderate","Easier than Reference","D","k","riskyDeck","safeDeck",0,-28,-14,"left",1,0,32,"absent","riskyDeck",2326,5007,-1,0
"11ebzd4ncngc",2532.17538461538,1072.09945236288,13554,"28/03/2022@11:07:30","Mozilla/5.0 (Windows NT 10.0; Win64; x64) AppleWebKit/537.36 (KHTML, like Gecko) Chrome/99.0.4844.74 Safari/537.36",1536,864,1536,754,"main",4443615,12,4,26,23,"EM","Moderate","Easier than Reference","D","k","riskyDeck","safeDeck",0,-28,-14,"left",1,0,32,"absent","riskyDeck",2326,3124,-1,0
"11ebzd4ncngc",2532.17538461538,1072.09945236288,13554,"28/03/2022@11:07:30","Mozilla/5.0 (Windows NT 10.0; Win64; x64) AppleWebKit/537.36 (KHTML, like Gecko) Chrome/99.0.4844.74 Safari/537.36",1536,864,1536,754,"main",4443615,12,5,26,24,"EM","Moderate","Easier than Reference","D","k","riskyDeck","safeDeck",0,-28,-14,"left",1,0,32,"absent","riskyDeck",2326,5468,-1,0
"11ebzd4ncngc",2532.17538461538,1072.09945236288,13554,"28/03/2022@11:07:30","Mozilla/5.0 (Windows NT 10.0; Win64; x64) AppleWebKit/537.36 (KHTML, like Gecko) Chrome/99.0.4844.74 Safari/537.36",1536,864,1536,754,"main",4443615,12,6,26,24,"EM","Moderate","Easier than Reference","D","j","riskyDeck","safeDeck",0,-28,-14,"left",1,0,32,"present","riskyDeck",2326,1360,-1,0
"11ebzd4ncngc",2532.17538461538,1072.09945236288,13554,"28/03/2022@11:07:30","Mozilla/5.0 (Windows NT 10.0; Win64; x64) AppleWebKit/537.36 (KHTML, like Gecko) Chrome/99.0.4844.74 Safari/537.36",1536,864,1536,754,"main",4443615,12,7,26,24,"EM","Moderate","Easier than Reference","D","j","riskyDeck","safeDeck",0,-28,-14,"left",1,0,32,"present","riskyDeck",2326,1388,-1,0
"11ebzd4ncngc",2532.17538461538,1072.09945236288,13554,"28/03/2022@11:07:30","Mozilla/5.0 (Windows NT 10.0; Win64; x64) AppleWebKit/537.36 (KHTML, like Gecko) Chrome/99.0.4844.74 Safari/537.36",1536,864,1536,754,"main",4443615,12,8,26,24,"EM","Moderate","Easier than Reference","D","j","riskyDeck","safeDeck",0,-28,-14,"left",1,0,32,"present","riskyDeck",2326,937,-1,0
"11ebzd4ncngc",2532.17538461538,1072.09945236288,13554,"28/03/2022@11:07:30","Mozilla/5.0 (Windows NT 10.0; Win64; x64) AppleWebKit/537.36 (KHTML, like Gecko) Chrome/99.0.4844.74 Safari/537.36",1536,864,1536,754,"main",4443615,12,9,26,24,"EM","Moderate","Easier than Reference","D","j","riskyDeck","safeDeck",0,-28,-14,"left",1,0,32,"present","riskyDeck",2326,1217,-1,0
"11ebzd4ncngc",2532.17538461538,1072.09945236288,13554,"28/03/2022@11:07:30","Mozilla/5.0 (Windows NT 10.0; Win64; x64) AppleWebKit/537.36 (KHTML, like Gecko) Chrome/99.0.4844.74 Safari/537.36",1536,864,1536,754,"main",4443615,12,11,27,24,"EM","Moderate","Easier than Reference","D","j","riskyDeck","safeDeck",0,-28,-14,"left",1,0,32,"present","riskyDeck",2326,1094,-1,0
"11ebzd4ncngc",2532.17538461538,1072.09945236288,13554,"28/03/2022@11:07:30","Mozilla/5.0 (Windows NT 10.0; Win64; x64) AppleWebKit/537.36 (KHTML, like Gecko) Chrome/99.0.4844.74 Safari/537.36",1536,864,1536,754,"main",4443615,12,12,27,24,"EM","Moderate","Easier than Reference","D","k","riskyDeck","safeDeck",0,-28,-14,"left",1,0,32,"absent","riskyDeck",2326,7612,-1,0
"11ebzd4ncngc",2532.17538461538,1072.09945236288,13554,"28/03/2022@11:07:30","Mozilla/5.0 (Windows NT 10.0; Win64; x64) AppleWebKit/537.36 (KHTML, like Gecko) Chrome/99.0.4844.74 Safari/537.36",1536,864,1536,754,"main",4443615,12,13,27,24,"EM","Moderate","Easier than Reference","D","j","riskyDeck","safeDeck",0,-28,-14,"left",1,0,32,"present","riskyDeck",2326,737,-1,0
"11ebzd4ncngc",2532.17538461538,1072.09945236288,13554,"28/03/2022@11:07:30","Mozilla/5.0 (Windows NT 10.0; Win64; x64) AppleWebKit/537.36 (KHTML, like Gecko) Chrome/99.0.4844.74 Safari/537.36",1536,864,1536,754,"main",4443615,12,15,27,25,"EM","Moderate","Easier than Reference","D","k","riskyDeck","safeDeck",0,-28,-14,"left",1,0,32,"absent","riskyDeck",2326,11225,-1,0
"11ebzd4ncngc",2532.17538461538,1072.09945236288,13554,"28/03/2022@11:07:30","Mozilla/5.0 (Windows NT 10.0; Win64; x64) AppleWebKit/537.36 (KHTML, like Gecko) Chrome/99.0.4844.74 Safari/537.36",1536,864,1536,754,"main",4443615,12,16,27,25,"EM","Moderate","Easier than Reference","D","j","riskyDeck","safeDeck",0,-28,-14,"left",1,0,32,"present","riskyDeck",2326,1365,-1,0
"11ebzd4ncngc",2532.17538461538,1072.09945236288,13554,"28/03/2022@11:07:30","Mozilla/5.0 (Windows NT 10.0; Win64; x64) AppleWebKit/537.36 (KHTML, like Gecko) Chrome/99.0.4844.74 Safari/537.36",1536,864,1536,754,"main",4443615,12,17,27,25,"EM","Moderate","Easier than Reference","D","k","riskyDeck","safeDeck",0,-28,-14,"left",1,0,32,"absent","riskyDeck",2326,4419,-1,0
"11ebzd4ncngc",2532.17538461538,1072.09945236288,13554,"28/03/2022@11:07:30","Mozilla/5.0 (Windows NT 10.0; Win64; x64) AppleWebKit/537.36 (KHTML, like Gecko) Chrome/99.0.4844.74 Safari/537.36",1536,864,1536,754,"main",4443615,13,1,28,25,"HM","Moderate","Harder than Reference","D","k","riskyDeck","safeDeck",0,14,7,"left",1,0,46,"absent","riskyDeck",3246,8180,-1,0
"11ebzd4ncngc",2532.17538461538,1072.09945236288,13554,"28/03/2022@11:07:30","Mozilla/5.0 (Windows NT 10.0; Win64; x64) AppleWebKit/537.36 (KHTML, like Gecko) Chrome/99.0.4844.74 Safari/537.36",1536,864,1536,754,"main",4443615,13,2,28,25,"HM","Moderate","Harder than Reference","D","j","riskyDeck","safeDeck",0,14,7,"left",1,0,46,"present","riskyDeck",3246,1312,-1,0
"11ebzd4ncngc",2532.17538461538,1072.09945236288,13554,"28/03/2022@11:07:30","Mozilla/5.0 (Windows NT 10.0; Win64; x64) AppleWebKit/537.36 (KHTML, like Gecko) Chrome/99.0.4844.74 Safari/537.36",1536,864,1536,754,"main",4443615,13,4,28,26,"HM","Moderate","Harder than Reference","D","k","riskyDeck","safeDeck",0,14,7,"left",1,0,46,"absent","riskyDeck",3246,11504,-1,0
"11ebzd4ncngc",2532.17538461538,1072.09945236288,13554,"28/03/2022@11:07:30","Mozilla/5.0 (Windows NT 10.0; Win64; x64) AppleWebKit/537.36 (KHTML, like Gecko) Chrome/99.0.4844.74 Safari/537.36",1536,864,1536,754,"main",4443615,13,5,28,26,"HM","Moderate","Harder than Reference","D","j","riskyDeck","safeDeck",0,14,7,"left",1,0,46,"present","riskyDeck",3246,1305,-1,0
"11ebzd4ncngc",2532.17538461538,1072.09945236288,13554,"28/03/2022@11:07:30","Mozilla/5.0 (Windows NT 10.0; Win64; x64) AppleWebKit/537.36 (KHTML, like Gecko) Chrome/99.0.4844.74 Safari/537.36",1536,864,1536,754,"main",4443615,13,6,29,26,"HM","Moderate","Harder than Reference","D","k","riskyDeck","safeDeck",0,14,7,"left",1,0,46,"absent","riskyDeck",3246,16795,-1,0
"11ebzd4ncngc",2532.17538461538,1072.09945236288,13554,"28/03/2022@11:07:30","Mozilla/5.0 (Windows NT 10.0; Win64; x64) AppleWebKit/537.36 (KHTML, like Gecko) Chrome/99.0.4844.74 Safari/537.36",1536,864,1536,754,"main",4443615,13,7,29,26,"HM","Moderate","Harder than Reference","D","j","riskyDeck","safeDeck",0,14,7,"left",1,0,46,"present","riskyDeck",3246,1560,-1,0
"11ebzd4ncngc",2532.17538461538,1072.09945236288,13554,"28/03/2022@11:07:30","Mozilla/5.0 (Windows NT 10.0; Win64; x64) AppleWebKit/537.36 (KHTML, like Gecko) Chrome/99.0.4844.74 Safari/537.36",1536,864,1536,754,"main",4443615,13,8,29,26,"HM","Moderate","Harder than Reference","D","k","riskyDeck","safeDeck",0,14,7,"left",1,0,46,"absent","riskyDeck",3246,9006,-1,0
"11ebzd4ncngc",2532.17538461538,1072.09945236288,13554,"28/03/2022@11:07:30","Mozilla/5.0 (Windows NT 10.0; Win64; x64) AppleWebKit/537.36 (KHTML, like Gecko) Chrome/99.0.4844.74 Safari/537.36",1536,864,1536,754,"main",4443615,13,9,29,26,"HM","Moderate","Harder than Reference","D","k","riskyDeck","safeDeck",0,14,7,"left",1,0,46,"absent","riskyDeck",3246,3607,-1,0
"11ebzd4ncngc",2532.17538461538,1072.09945236288,13554,"28/03/2022@11:07:30","Mozilla/5.0 (Windows NT 10.0; Win64; x64) AppleWebKit/537.36 (KHTML, like Gecko) Chrome/99.0.4844.74 Safari/537.36",1536,864,1536,754,"main",4443615,13,10,29,26,"HM","Moderate","Harder than Reference","D","j","riskyDeck","safeDeck",0,14,7,"left",1,0,46,"present","riskyDeck",3246,1156,-1,0
"11ebzd4ncngc",2532.17538461538,1072.09945236288,13554,"28/03/2022@11:07:30","Mozilla/5.0 (Windows NT 10.0; Win64; x64) AppleWebKit/537.36 (KHTML, like Gecko) Chrome/99.0.4844.74 Safari/537.36",1536,864,1536,754,"main",4443615,13,11,29,27,"HM","Moderate","Harder than Reference","D","k","riskyDeck","safeDeck",0,14,7,"left",1,0,46,"absent","riskyDeck",3246,4355,-1,0
"11ebzd4ncngc",2532.17538461538,1072.09945236288,13554,"28/03/2022@11:07:30","Mozilla/5.0 (Windows NT 10.0; Win64; x64) AppleWebKit/537.36 (KHTML, like Gecko) Chrome/99.0.4844.74 Safari/537.36",1536,864,1536,754,"main",4443615,13,12,29,27,"HM","Moderate","Harder than Reference","D","k","riskyDeck","safeDeck",0,14,7,"left",1,0,46,"absent","riskyDeck",3246,8860,-1,0
"11ebzd4ncngc",2532.17538461538,1072.09945236288,13554,"28/03/2022@11:07:30","Mozilla/5.0 (Windows NT 10.0; Win64; x64) AppleWebKit/537.36 (KHTML, like Gecko) Chrome/99.0.4844.74 Safari/537.36",1536,864,1536,754,"main",4443615,13,13,29,27,"HM","Moderate","Harder than Reference","D","j","riskyDeck","safeDeck",0,14,7,"left",1,0,46,"present","riskyDeck",3246,1014,-1,0
"11ebzd4ncngc",2532.17538461538,1072.09945236288,13554,"28/03/2022@11:07:30","Mozilla/5.0 (Windows NT 10.0; Win64; x64) AppleWebKit/537.36 (KHTML, like Gecko) Chrome/99.0.4844.74 Safari/537.36",1536,864,1536,754,"main",4443615,13,14,29,27,"HM","Moderate","Harder than Reference","D","k","riskyDeck","safeDeck",0,14,7,"left",1,0,46,"absent","riskyDeck",3246,4025,-1,0
"11ebzd4ncngc",2532.17538461538,1072.09945236288,13554,"28/03/2022@11:07:30","Mozilla/5.0 (Windows NT 10.0; Win64; x64) AppleWebKit/537.36 (KHTML, like Gecko) Chrome/99.0.4844.74 Safari/537.36",1536,864,1536,754,"main",4443615,13,15,29,27,"HM","Moderate","Harder than Reference","D","k","riskyDeck","safeDeck",0,14,7,"left",1,0,46,"absent","riskyDeck",3246,4163,-1,0
"11ebzd4ncngc",2532.17538461538,1072.09945236288,13554,"28/03/2022@11:07:30","Mozilla/5.0 (Windows NT 10.0; Win64; x64) AppleWebKit/537.36 (KHTML, like Gecko) Chrome/99.0.4844.74 Safari/537.36",1536,864,1536,754,"main",4443615,13,16,29,27,"HM","Moderate","Harder than Reference","D","j","riskyDeck","safeDeck",0,14,7,"left",1,0,46,"present","riskyDeck",3246,1901,-1,0
"11ebzd4ncngc",2532.17538461538,1072.09945236288,13554,"28/03/2022@11:07:30","Mozilla/5.0 (Windows NT 10.0; Win64; x64) AppleWebKit/537.36 (KHTML, like Gecko) Chrome/99.0.4844.74 Safari/537.36",1536,864,1536,754,"main",4443615,13,17,29,27,"HM","Moderate","Harder than Reference","D","j","riskyDeck","safeDeck",0,14,7,"left",1,0,46,"present","riskyDeck",3246,2025,-1,0
"11ebzd4ncngc",2532.17538461538,1072.09945236288,13554,"28/03/2022@11:07:30","Mozilla/5.0 (Windows NT 10.0; Win64; x64) AppleWebKit/537.36 (KHTML, like Gecko) Chrome/99.0.4844.74 Safari/537.36",1536,864,1536,754,"main",4443615,14,1,29,27,"HE","Extreme","Harder than Reference","D","j","safeDeck","riskyDeck",0,28,14,"left",0,0,46,"present","safeDeck",4442,2372,-1,1
"11ebzd4ncngc",2532.17538461538,1072.09945236288,13554,"28/03/2022@11:07:30","Mozilla/5.0 (Windows NT 10.0; Win64; x64) AppleWebKit/537.36 (KHTML, like Gecko) Chrome/99.0.4844.74 Safari/537.36",1536,864,1536,754,"main",4443615,14,2,29,27,"HE","Extreme","Harder than Reference","D","j","safeDeck","riskyDeck",0,28,14,"left",0,0,46,"present","safeDeck",4442,1342,-1,1
"11ebzd4ncngc",2532.17538461538,1072.09945236288,13554,"28/03/2022@11:07:30","Mozilla/5.0 (Windows NT 10.0; Win64; x64) AppleWebKit/537.36 (KHTML, like Gecko) Chrome/99.0.4844.74 Safari/537.36",1536,864,1536,754,"main",4443615,14,3,29,27,"HE","Extreme","Harder than Reference","D","k","safeDeck","riskyDeck",0,28,14,"left",0,0,46,"absent","safeDeck",4442,3317,-1,1
"11ebzd4ncngc",2532.17538461538,1072.09945236288,13554,"28/03/2022@11:07:30","Mozilla/5.0 (Windows NT 10.0; Win64; x64) AppleWebKit/537.36 (KHTML, like Gecko) Chrome/99.0.4844.74 Safari/537.36",1536,864,1536,754,"main",4443615,14,4,30,27,"HE","Extreme","Harder than Reference","D","k","safeDeck","riskyDeck",0,28,14,"left",0,0,46,"absent","safeDeck",4442,3110,-1,1
"11ebzd4ncngc",2532.17538461538,1072.09945236288,13554,"28/03/2022@11:07:30","Mozilla/5.0 (Windows NT 10.0; Win64; x64) AppleWebKit/537.36 (KHTML, like Gecko) Chrome/99.0.4844.74 Safari/537.36",1536,864,1536,754,"main",4443615,14,5,30,27,"HE","Extreme","Harder than Reference","D","j","safeDeck","riskyDeck",0,28,14,"left",0,0,46,"present","safeDeck",4442,1188,-1,1
"11ebzd4ncngc",2532.17538461538,1072.09945236288,13554,"28/03/2022@11:07:30","Mozilla/5.0 (Windows NT 10.0; Win64; x64) AppleWebKit/537.36 (KHTML, like Gecko) Chrome/99.0.4844.74 Safari/537.36",1536,864,1536,754,"main",4443615,14,6,30,27,"HE","Extreme","Harder than Reference","D","j","safeDeck","riskyDeck",0,28,14,"left",0,0,46,"present","safeDeck",4442,4258,-1,1
"11ebzd4ncngc",2532.17538461538,1072.09945236288,13554,"28/03/2022@11:07:30","Mozilla/5.0 (Windows NT 10.0; Win64; x64) AppleWebKit/537.36 (KHTML, like Gecko) Chrome/99.0.4844.74 Safari/537.36",1536,864,1536,754,"main",4443615,14,7,30,27,"HE","Extreme","Harder than Reference","D","j","safeDeck","riskyDeck",0,28,14,"left",0,0,46,"present","safeDeck",4442,969,-1,1
"11ebzd4ncngc",2532.17538461538,1072.09945236288,13554,"28/03/2022@11:07:30","Mozilla/5.0 (Windows NT 10.0; Win64; x64) AppleWebKit/537.36 (KHTML, like Gecko) Chrome/99.0.4844.74 Safari/537.36",1536,864,1536,754,"main",4443615,14,8,30,27,"HE","Extreme","Harder than Reference","D","k","safeDeck","riskyDeck",0,28,14,"left",0,0,46,"absent","safeDeck",4442,7415,-1,1
"11ebzd4ncngc",2532.17538461538,1072.09945236288,13554,"28/03/2022@11:07:30","Mozilla/5.0 (Windows NT 10.0; Win64; x64) AppleWebKit/537.36 (KHTML, like Gecko) Chrome/99.0.4844.74 Safari/537.36",1536,864,1536,754,"main",4443615,14,9,30,28,"HE","Extreme","Harder than Reference","D","k","safeDeck","riskyDeck",0,28,14,"left",0,0,46,"absent","safeDeck",4442,10560,-1,1
"11ebzd4ncngc",2532.17538461538,1072.09945236288,13554,"28/03/2022@11:07:30","Mozilla/5.0 (Windows NT 10.0; Win64; x64) AppleWebKit/537.36 (KHTML, like Gecko) Chrome/99.0.4844.74 Safari/537.36",1536,864,1536,754,"main",4443615,14,10,30,28,"HE","Extreme","Harder than Reference","D","k","safeDeck","riskyDeck",0,28,14,"left",0,0,46,"absent","safeDeck",4442,8881,-1,1
"11ebzd4ncngc",2532.17538461538,1072.09945236288,13554,"28/03/2022@11:07:30","Mozilla/5.0 (Windows NT 10.0; Win64; x64) AppleWebKit/537.36 (KHTML, like Gecko) Chrome/99.0.4844.74 Safari/537.36",1536,864,1536,754,"main",4443615,14,11,30,28,"HE","Extreme","Harder than Reference","D","j","safeDeck","riskyDeck",0,28,14,"left",0,0,46,"present","safeDeck",4442,1532,-1,1
"11ebzd4ncngc",2532.17538461538,1072.09945236288,13554,"28/03/2022@11:07:30","Mozilla/5.0 (Windows NT 10.0; Win64; x64) AppleWebKit/537.36 (KHTML, like Gecko) Chrome/99.0.4844.74 Safari/537.36",1536,864,1536,754,"main",4443615,14,12,30,28,"HE","Extreme","Harder than Reference","D","j","safeDeck","riskyDeck",0,28,14,"left",0,0,46,"present","safeDeck",4442,1941,-1,1
"11ebzd4ncngc",2532.17538461538,1072.09945236288,13554,"28/03/2022@11:07:30","Mozilla/5.0 (Windows NT 10.0; Win64; x64) AppleWebKit/537.36 (KHTML, like Gecko) Chrome/99.0.4844.74 Safari/537.36",1536,864,1536,754,"main",4443615,14,13,30,28,"HE","Extreme","Harder than Reference","D","j","safeDeck","riskyDeck",0,28,14,"left",0,0,46,"present","safeDeck",4442,1739,-1,1
"11ebzd4ncngc",2532.17538461538,1072.09945236288,13554,"28/03/2022@11:07:30","Mozilla/5.0 (Windows NT 10.0; Win64; x64) AppleWebKit/537.36 (KHTML, like Gecko) Chrome/99.0.4844.74 Safari/537.36",1536,864,1536,754,"main",4443615,14,14,30,28,"HE","Extreme","Harder than Reference","D","j","safeDeck","riskyDeck",0,28,14,"left",0,0,46,"present","safeDeck",4442,1387,-1,1
"11ebzd4ncngc",2532.17538461538,1072.09945236288,13554,"28/03/2022@11:07:30","Mozilla/5.0 (Windows NT 10.0; Win64; x64) AppleWebKit/537.36 (KHTML, like Gecko) Chrome/99.0.4844.74 Safari/537.36",1536,864,1536,754,"main",4443615,14,15,30,28,"HE","Extreme","Harder than Reference","D","j","safeDeck","riskyDeck",0,28,14,"left",0,0,46,"present","safeDeck",4442,1664,-1,1
"11ebzd4ncngc",2532.17538461538,1072.09945236288,13554,"28/03/2022@11:07:30","Mozilla/5.0 (Windows NT 10.0; Win64; x64) AppleWebKit/537.36 (KHTML, like Gecko) Chrome/99.0.4844.74 Safari/537.36",1536,864,1536,754,"main",4443615,14,16,31,28,"HE","Extreme","Harder than Reference","D","k","safeDeck","riskyDeck",0,28,14,"left",0,0,46,"absent","safeDeck",4442,12764,-1,1
"11ebzd4ncngc",2532.17538461538,1072.09945236288,13554,"28/03/2022@11:07:30","Mozilla/5.0 (Windows NT 10.0; Win64; x64) AppleWebKit/537.36 (KHTML, like Gecko) Chrome/99.0.4844.74 Safari/537.36",1536,864,1536,754,"main",4443615,14,17,31,28,"HE","Extreme","Harder than Reference","D","k","safeDeck","riskyDeck",0,28,14,"left",0,0,46,"absent","safeDeck",4442,13850,-1,1
"11ebzd4ncngc",2532.17538461538,1072.09945236288,13554,"28/03/2022@11:07:30","Mozilla/5.0 (Windows NT 10.0; Win64; x64) AppleWebKit/537.36 (KHTML, like Gecko) Chrome/99.0.4844.74 Safari/537.36",1536,864,1536,754,"main",4443615,15,1,31,29,"EM","Moderate","Easier than Reference","D","k","riskyDeck","safeDeck",0,-28,-14,"left",1,0,32,"absent","riskyDeck",2151,10442,-1,0
"11ebzd4ncngc",2532.17538461538,1072.09945236288,13554,"28/03/2022@11:07:30","Mozilla/5.0 (Windows NT 10.0; Win64; x64) AppleWebKit/537.36 (KHTML, like Gecko) Chrome/99.0.4844.74 Safari/537.36",1536,864,1536,754,"main",4443615,15,2,31,29,"EM","Moderate","Easier than Reference","D","j","riskyDeck","safeDeck",0,-28,-14,"left",1,0,32,"present","riskyDeck",2151,1480,-1,0
"11ebzd4ncngc",2532.17538461538,1072.09945236288,13554,"28/03/2022@11:07:30","Mozilla/5.0 (Windows NT 10.0; Win64; x64) AppleWebKit/537.36 (KHTML, like Gecko) Chrome/99.0.4844.74 Safari/537.36",1536,864,1536,754,"main",4443615,15,3,31,29,"EM","Moderate","Easier than Reference","D","j","riskyDeck","safeDeck",0,-28,-14,"left",1,0,32,"present","riskyDeck",2151,1679,-1,0
"11ebzd4ncngc",2532.17538461538,1072.09945236288,13554,"28/03/2022@11:07:30","Mozilla/5.0 (Windows NT 10.0; Win64; x64) AppleWebKit/537.36 (KHTML, like Gecko) Chrome/99.0.4844.74 Safari/537.36",1536,864,1536,754,"main",4443615,15,4,31,29,"EM","Moderate","Easier than Reference","D","k","riskyDeck","safeDeck",0,-28,-14,"left",1,0,32,"absent","riskyDeck",2151,5122,-1,0
"11ebzd4ncngc",2532.17538461538,1072.09945236288,13554,"28/03/2022@11:07:30","Mozilla/5.0 (Windows NT 10.0; Win64; x64) AppleWebKit/537.36 (KHTML, like Gecko) Chrome/99.0.4844.74 Safari/537.36",1536,864,1536,754,"main",4443615,15,5,31,29,"EM","Moderate","Easier than Reference","D","j","riskyDeck","safeDeck",0,-28,-14,"left",1,0,32,"present","riskyDeck",2151,1632,-1,0
"11ebzd4ncngc",2532.17538461538,1072.09945236288,13554,"28/03/2022@11:07:30","Mozilla/5.0 (Windows NT 10.0; Win64; x64) AppleWebKit/537.36 (KHTML, like Gecko) Chrome/99.0.4844.74 Safari/537.36",1536,864,1536,754,"main",4443615,15,6,31,29,"EM","Moderate","Easier than Reference","D","j","riskyDeck","safeDeck",0,-28,-14,"left",1,0,32,"present","riskyDeck",2151,954,-1,0
"11ebzd4ncngc",2532.17538461538,1072.09945236288,13554,"28/03/2022@11:07:30","Mozilla/5.0 (Windows NT 10.0; Win64; x64) AppleWebKit/537.36 (KHTML, like Gecko) Chrome/99.0.4844.74 Safari/537.36",1536,864,1536,754,"main",4443615,15,7,31,29,"EM","Moderate","Easier than Reference","D","j","riskyDeck","safeDeck",0,-28,-14,"left",1,0,32,"present","riskyDeck",2151,852,-1,0
"11ebzd4ncngc",2532.17538461538,1072.09945236288,13554,"28/03/2022@11:07:30","Mozilla/5.0 (Windows NT 10.0; Win64; x64) AppleWebKit/537.36 (KHTML, like Gecko) Chrome/99.0.4844.74 Safari/537.36",1536,864,1536,754,"main",4443615,15,8,31,29,"EM","Moderate","Easier than Reference","D","k","riskyDeck","safeDeck",0,-28,-14,"left",1,0,32,"absent","riskyDeck",2151,3797,-1,0
"11ebzd4ncngc",2532.17538461538,1072.09945236288,13554,"28/03/2022@11:07:30","Mozilla/5.0 (Windows NT 10.0; Win64; x64) AppleWebKit/537.36 (KHTML, like Gecko) Chrome/99.0.4844.74 Safari/537.36",1536,864,1536,754,"main",4443615,15,9,31,29,"EM","Moderate","Easier than Reference","D","k","riskyDeck","safeDeck",0,-28,-14,"left",1,0,32,"absent","riskyDeck",2151,2547,-1,0
"11ebzd4ncngc",2532.17538461538,1072.09945236288,13554,"28/03/2022@11:07:30","Mozilla/5.0 (Windows NT 10.0; Win64; x64) AppleWebKit/537.36 (KHTML, like Gecko) Chrome/99.0.4844.74 Safari/537.36",1536,864,1536,754,"main",4443615,15,10,31,29,"EM","Moderate","Easier than Reference","D","j","riskyDeck","safeDeck",0,-28,-14,"left",1,0,32,"present","riskyDeck",2151,1123,-1,0
"11ebzd4ncngc",2532.17538461538,1072.09945236288,13554,"28/03/2022@11:07:30","Mozilla/5.0 (Windows NT 10.0; Win64; x64) AppleWebKit/537.36 (KHTML, like Gecko) Chrome/99.0.4844.74 Safari/537.36",1536,864,1536,754,"main",4443615,15,11,31,29,"EM","Moderate","Easier than Reference","D","j","riskyDeck","safeDeck",0,-28,-14,"left",1,0,32,"present","riskyDeck",2151,757,-1,0
"11ebzd4ncngc",2532.17538461538,1072.09945236288,13554,"28/03/2022@11:07:30","Mozilla/5.0 (Windows NT 10.0; Win64; x64) AppleWebKit/537.36 (KHTML, like Gecko) Chrome/99.0.4844.74 Safari/537.36",1536,864,1536,754,"main",4443615,15,12,31,29,"EM","Moderate","Easier than Reference","D","j","riskyDeck","safeDeck",0,-28,-14,"left",1,0,32,"present","riskyDeck",2151,1740,-1,0
"11ebzd4ncngc",2532.17538461538,1072.09945236288,13554,"28/03/2022@11:07:30","Mozilla/5.0 (Windows NT 10.0; Win64; x64) AppleWebKit/537.36 (KHTML, like Gecko) Chrome/99.0.4844.74 Safari/537.36",1536,864,1536,754,"main",4443615,15,13,31,29,"EM","Moderate","Easier than Reference","D","j","riskyDeck","safeDeck",0,-28,-14,"left",1,0,32,"present","riskyDeck",2151,999,-1,0
"11ebzd4ncngc",2532.17538461538,1072.09945236288,13554,"28/03/2022@11:07:30","Mozilla/5.0 (Windows NT 10.0; Win64; x64) AppleWebKit/537.36 (KHTML, like Gecko) Chrome/99.0.4844.74 Safari/537.36",1536,864,1536,754,"main",4443615,15,14,32,29,"EM","Moderate","Easier than Reference","D","k","riskyDeck","safeDeck",0,-28,-14,"left",1,1,32,"present","riskyDeck",2151,4282,-1,0
"11ebzd4ncngc",2532.17538461538,1072.09945236288,13554,"28/03/2022@11:07:30","Mozilla/5.0 (Windows NT 10.0; Win64; x64) AppleWebKit/537.36 (KHTML, like Gecko) Chrome/99.0.4844.74 Safari/537.36",1536,864,1536,754,"main",4443615,15,15,32,29,"EM","Moderate","Easier than Reference","D","k","riskyDeck","safeDeck",0,-28,-14,"left",1,0,32,"absent","riskyDeck",2151,2554,-1,0
"11ebzd4ncngc",2532.17538461538,1072.09945236288,13554,"28/03/2022@11:07:30","Mozilla/5.0 (Windows NT 10.0; Win64; x64) AppleWebKit/537.36 (KHTML, like Gecko) Chrome/99.0.4844.74 Safari/537.36",1536,864,1536,754,"main",4443615,15,16,32,29,"EM","Moderate","Easier than Reference","D","k","riskyDeck","safeDeck",0,-28,-14,"left",1,0,32,"absent","riskyDeck",2151,3846,-1,0
"11ebzd4ncngc",2532.17538461538,1072.09945236288,13554,"28/03/2022@11:07:30","Mozilla/5.0 (Windows NT 10.0; Win64; x64) AppleWebKit/537.36 (KHTML, like Gecko) Chrome/99.0.4844.74 Safari/537.36",1536,864,1536,754,"main",4443615,15,17,32,29,"EM","Moderate","Easier than Reference","D","j","riskyDeck","safeDeck",0,-28,-14,"left",1,0,32,"present","riskyDeck",2151,1578,-1,0
"11ebzd4ncngc",2532.17538461538,1072.09945236288,13554,"28/03/2022@11:07:30","Mozilla/5.0 (Windows NT 10.0; Win64; x64) AppleWebKit/537.36 (KHTML, like Gecko) Chrome/99.0.4844.74 Safari/537.36",1536,864,1536,754,"main",4443615,16,1,32,29,"EE","Extreme","Easier than Reference","F","j","riskyDeck","safeDeck",0,-14,-7,"right",0,0,25,"present","safeDeck",2605,1025,1,1
"11ebzd4ncngc",2532.17538461538,1072.09945236288,13554,"28/03/2022@11:07:30","Mozilla/5.0 (Windows NT 10.0; Win64; x64) AppleWebKit/537.36 (KHTML, like Gecko) Chrome/99.0.4844.74 Safari/537.36",1536,864,1536,754,"main",4443615,16,2,32,29,"EE","Extreme","Easier than Reference","F","j","riskyDeck","safeDeck",0,-14,-7,"right",0,0,25,"present","safeDeck",2605,1063,1,1
"11ebzd4ncngc",2532.17538461538,1072.09945236288,13554,"28/03/2022@11:07:30","Mozilla/5.0 (Windows NT 10.0; Win64; x64) AppleWebKit/537.36 (KHTML, like Gecko) Chrome/99.0.4844.74 Safari/537.36",1536,864,1536,754,"main",4443615,16,3,32,30,"EE","Extreme","Easier than Reference","F","k","riskyDeck","safeDeck",0,-14,-7,"right",0,0,25,"absent","safeDeck",2605,4654,1,1
"11ebzd4ncngc",2532.17538461538,1072.09945236288,13554,"28/03/2022@11:07:30","Mozilla/5.0 (Windows NT 10.0; Win64; x64) AppleWebKit/537.36 (KHTML, like Gecko) Chrome/99.0.4844.74 Safari/537.36",1536,864,1536,754,"main",4443615,16,4,32,30,"EE","Extreme","Easier than Reference","F","k","riskyDeck","safeDeck",0,-14,-7,"right",0,0,25,"absent","safeDeck",2605,2716,1,1
"11ebzd4ncngc",2532.17538461538,1072.09945236288,13554,"28/03/2022@11:07:30","Mozilla/5.0 (Windows NT 10.0; Win64; x64) AppleWebKit/537.36 (KHTML, like Gecko) Chrome/99.0.4844.74 Safari/537.36",1536,864,1536,754,"main",4443615,16,5,32,30,"EE","Extreme","Easier than Reference","F","j","riskyDeck","safeDeck",0,-14,-7,"right",0,0,25,"present","safeDeck",2605,635,1,1
"11ebzd4ncngc",2532.17538461538,1072.09945236288,13554,"28/03/2022@11:07:30","Mozilla/5.0 (Windows NT 10.0; Win64; x64) AppleWebKit/537.36 (KHTML, like Gecko) Chrome/99.0.4844.74 Safari/537.36",1536,864,1536,754,"main",4443615,16,6,32,30,"EE","Extreme","Easier than Reference","F","j","riskyDeck","safeDeck",0,-14,-7,"right",0,0,25,"present","safeDeck",2605,1152,1,1
"11ebzd4ncngc",2532.17538461538,1072.09945236288,13554,"28/03/2022@11:07:30","Mozilla/5.0 (Windows NT 10.0; Win64; x64) AppleWebKit/537.36 (KHTML, like Gecko) Chrome/99.0.4844.74 Safari/537.36",1536,864,1536,754,"main",4443615,16,7,32,30,"EE","Extreme","Easier than Reference","F","k","riskyDeck","safeDeck",0,-14,-7,"right",0,0,25,"absent","safeDeck",2605,2645,1,1
"11ebzd4ncngc",2532.17538461538,1072.09945236288,13554,"28/03/2022@11:07:30","Mozilla/5.0 (Windows NT 10.0; Win64; x64) AppleWebKit/537.36 (KHTML, like Gecko) Chrome/99.0.4844.74 Safari/537.36",1536,864,1536,754,"main",4443615,16,8,32,30,"EE","Extreme","Easier than Reference","F","j","riskyDeck","safeDeck",0,-14,-7,"right",0,0,25,"present","safeDeck",2605,1884,1,1
"11ebzd4ncngc",2532.17538461538,1072.09945236288,13554,"28/03/2022@11:07:30","Mozilla/5.0 (Windows NT 10.0; Win64; x64) AppleWebKit/537.36 (KHTML, like Gecko) Chrome/99.0.4844.74 Safari/537.36",1536,864,1536,754,"main",4443615,16,9,32,30,"EE","Extreme","Easier than Reference","F","k","riskyDeck","safeDeck",0,-14,-7,"right",0,0,25,"absent","safeDeck",2605,3919,1,1
"11ebzd4ncngc",2532.17538461538,1072.09945236288,13554,"28/03/2022@11:07:30","Mozilla/5.0 (Windows NT 10.0; Win64; x64) AppleWebKit/537.36 (KHTML, like Gecko) Chrome/99.0.4844.74 Safari/537.36",1536,864,1536,754,"main",4443615,16,10,32,30,"EE","Extreme","Easier than Reference","F","j","riskyDeck","safeDeck",0,-14,-7,"right",0,0,25,"present","safeDeck",2605,892,1,1
"11ebzd4ncngc",2532.17538461538,1072.09945236288,13554,"28/03/2022@11:07:30","Mozilla/5.0 (Windows NT 10.0; Win64; x64) AppleWebKit/537.36 (KHTML, like Gecko) Chrome/99.0.4844.74 Safari/537.36",1536,864,1536,754,"main",4443615,16,11,32,30,"EE","Extreme","Easier than Reference","F","k","riskyDeck","safeDeck",0,-14,-7,"right",0,0,25,"absent","safeDeck",2605,7622,1,1
"11ebzd4ncngc",2532.17538461538,1072.09945236288,13554,"28/03/2022@11:07:30","Mozilla/5.0 (Windows NT 10.0; Win64; x64) AppleWebKit/537.36 (KHTML, like Gecko) Chrome/99.0.4844.74 Safari/537.36",1536,864,1536,754,"main",4443615,16,12,32,30,"EE","Extreme","Easier than Reference","F","k","riskyDeck","safeDeck",0,-14,-7,"right",0,0,25,"absent","safeDeck",2605,1850,1,1
"11ebzd4ncngc",2532.17538461538,1072.09945236288,13554,"28/03/2022@11:07:30","Mozilla/5.0 (Windows NT 10.0; Win64; x64) AppleWebKit/537.36 (KHTML, like Gecko) Chrome/99.0.4844.74 Safari/537.36",1536,864,1536,754,"main",4443615,16,13,32,30,"EE","Extreme","Easier than Reference","F","k","riskyDeck","safeDeck",0,-14,-7,"right",0,0,25,"absent","safeDeck",2605,9544,1,1
"11ebzd4ncngc",2532.17538461538,1072.09945236288,13554,"28/03/2022@11:07:30","Mozilla/5.0 (Windows NT 10.0; Win64; x64) AppleWebKit/537.36 (KHTML, like Gecko) Chrome/99.0.4844.74 Safari/537.36",1536,864,1536,754,"main",4443615,16,14,33,30,"EE","Extreme","Easier than Reference","F","k","riskyDeck","safeDeck",0,-14,-7,"right",0,0,25,"absent","safeDeck",2605,9050,1,1
"11ebzd4ncngc",2532.17538461538,1072.09945236288,13554,"28/03/2022@11:07:30","Mozilla/5.0 (Windows NT 10.0; Win64; x64) AppleWebKit/537.36 (KHTML, like Gecko) Chrome/99.0.4844.74 Safari/537.36",1536,864,1536,754,"main",4443615,16,15,33,30,"EE","Extreme","Easier than Reference","F","k","riskyDeck","safeDeck",0,-14,-7,"right",0,0,25,"absent","safeDeck",2605,9221,1,1
"11ebzd4ncngc",2532.17538461538,1072.09945236288,13554,"28/03/2022@11:07:30","Mozilla/5.0 (Windows NT 10.0; Win64; x64) AppleWebKit/537.36 (KHTML, like Gecko) Chrome/99.0.4844.74 Safari/537.36",1536,864,1536,754,"main",4443615,16,16,33,31,"EE","Extreme","Easier than Reference","F","k","riskyDeck","safeDeck",0,-14,-7,"right",0,0,25,"absent","safeDeck",2605,6021,1,1
"11ebzd4ncngc",2532.17538461538,1072.09945236288,13554,"28/03/2022@11:07:30","Mozilla/5.0 (Windows NT 10.0; Win64; x64) AppleWebKit/537.36 (KHTML, like Gecko) Chrome/99.0.4844.74 Safari/537.36",1536,864,1536,754,"main",4443615,16,17,33,31,"EE","Extreme","Easier than Reference","F","j","riskyDeck","safeDeck",0,-14,-7,"right",0,0,25,"present","safeDeck",2605,1161,1,1
"11ebzd4ncngc",2532.17538461538,1072.09945236288,13554,"28/03/2022@11:07:30","Mozilla/5.0 (Windows NT 10.0; Win64; x64) AppleWebKit/537.36 (KHTML, like Gecko) Chrome/99.0.4844.74 Safari/537.36",1536,864,1536,754,"main",4443615,17,1,33,31,"HM","Moderate","Harder than Reference","D","j","riskyDeck","safeDeck",0,14,7,"left",1,0,32,"present","riskyDeck",3482,1126,-1,0
"11ebzd4ncngc",2532.17538461538,1072.09945236288,13554,"28/03/2022@11:07:30","Mozilla/5.0 (Windows NT 10.0; Win64; x64) AppleWebKit/537.36 (KHTML, like Gecko) Chrome/99.0.4844.74 Safari/537.36",1536,864,1536,754,"main",4443615,17,2,33,31,"HM","Moderate","Harder than Reference","D","j","riskyDeck","safeDeck",0,14,7,"left",1,0,32,"present","riskyDeck",3482,865,-1,0
"11ebzd4ncngc",2532.17538461538,1072.09945236288,13554,"28/03/2022@11:07:30","Mozilla/5.0 (Windows NT 10.0; Win64; x64) AppleWebKit/537.36 (KHTML, like Gecko) Chrome/99.0.4844.74 Safari/537.36",1536,864,1536,754,"main",4443615,17,3,33,31,"HM","Moderate","Harder than Reference","D","k","riskyDeck","safeDeck",0,14,7,"left",1,0,32,"absent","riskyDeck",3482,3064,-1,0
"11ebzd4ncngc",2532.17538461538,1072.09945236288,13554,"28/03/2022@11:07:30","Mozilla/5.0 (Windows NT 10.0; Win64; x64) AppleWebKit/537.36 (KHTML, like Gecko) Chrome/99.0.4844.74 Safari/537.36",1536,864,1536,754,"main",4443615,17,4,33,31,"HM","Moderate","Harder than Reference","D","k","riskyDeck","safeDeck",0,14,7,"left",1,0,32,"absent","riskyDeck",3482,3492,-1,0
"11ebzd4ncngc",2532.17538461538,1072.09945236288,13554,"28/03/2022@11:07:30","Mozilla/5.0 (Windows NT 10.0; Win64; x64) AppleWebKit/537.36 (KHTML, like Gecko) Chrome/99.0.4844.74 Safari/537.36",1536,864,1536,754,"main",4443615,17,5,33,31,"HM","Moderate","Harder than Reference","D","k","riskyDeck","safeDeck",0,14,7,"left",1,0,32,"absent","riskyDeck",3482,3997,-1,0
"11ebzd4ncngc",2532.17538461538,1072.09945236288,13554,"28/03/2022@11:07:30","Mozilla/5.0 (Windows NT 10.0; Win64; x64) AppleWebKit/537.36 (KHTML, like Gecko) Chrome/99.0.4844.74 Safari/537.36",1536,864,1536,754,"main",4443615,17,6,33,31,"HM","Moderate","Harder than Reference","D","j","riskyDeck","safeDeck",0,14,7,"left",1,0,32,"present","riskyDeck",3482,817,-1,0
"11ebzd4ncngc",2532.17538461538,1072.09945236288,13554,"28/03/2022@11:07:30","Mozilla/5.0 (Windows NT 10.0; Win64; x64) AppleWebKit/537.36 (KHTML, like Gecko) Chrome/99.0.4844.74 Safari/537.36",1536,864,1536,754,"main",4443615,17,7,33,31,"HM","Moderate","Harder than Reference","D","k","riskyDeck","safeDeck",0,14,7,"left",1,0,32,"absent","riskyDeck",3482,7826,-1,0
"11ebzd4ncngc",2532.17538461538,1072.09945236288,13554,"28/03/2022@11:07:30","Mozilla/5.0 (Windows NT 10.0; Win64; x64) AppleWebKit/537.36 (KHTML, like Gecko) Chrome/99.0.4844.74 Safari/537.36",1536,864,1536,754,"main",4443615,17,8,33,31,"HM","Moderate","Harder than Reference","D","j","riskyDeck","safeDeck",0,14,7,"left",1,0,32,"present","riskyDeck",3482,888,-1,0
"11ebzd4ncngc",2532.17538461538,1072.09945236288,13554,"28/03/2022@11:07:30","Mozilla/5.0 (Windows NT 10.0; Win64; x64) AppleWebKit/537.36 (KHTML, like Gecko) Chrome/99.0.4844.74 Safari/537.36",1536,864,1536,754,"main",4443615,17,9,34,31,"HM","Moderate","Harder than Reference","D","k","riskyDeck","safeDeck",0,14,7,"left",1,0,32,"absent","riskyDeck",3482,4044,-1,0
"11ebzd4ncngc",2532.17538461538,1072.09945236288,13554,"28/03/2022@11:07:30","Mozilla/5.0 (Windows NT 10.0; Win64; x64) AppleWebKit/537.36 (KHTML, like Gecko) Chrome/99.0.4844.74 Safari/537.36",1536,864,1536,754,"main",4443615,17,10,34,31,"HM","Moderate","Harder than Reference","D","j","riskyDeck","safeDeck",0,14,7,"left",1,0,32,"present","riskyDeck",3482,980,-1,0
"11ebzd4ncngc",2532.17538461538,1072.09945236288,13554,"28/03/2022@11:07:30","Mozilla/5.0 (Windows NT 10.0; Win64; x64) AppleWebKit/537.36 (KHTML, like Gecko) Chrome/99.0.4844.74 Safari/537.36",1536,864,1536,754,"main",4443615,17,11,34,31,"HM","Moderate","Harder than Reference","D","k","riskyDeck","safeDeck",0,14,7,"left",1,0,32,"absent","riskyDeck",3482,13973,-1,0
"11ebzd4ncngc",2532.17538461538,1072.09945236288,13554,"28/03/2022@11:07:30","Mozilla/5.0 (Windows NT 10.0; Win64; x64) AppleWebKit/537.36 (KHTML, like Gecko) Chrome/99.0.4844.74 Safari/537.36",1536,864,1536,754,"main",4443615,17,12,34,31,"HM","Moderate","Harder than Reference","D","j","riskyDeck","safeDeck",0,14,7,"left",1,0,32,"present","riskyDeck",3482,1431,-1,0
"11ebzd4ncngc",2532.17538461538,1072.09945236288,13554,"28/03/2022@11:07:30","Mozilla/5.0 (Windows NT 10.0; Win64; x64) AppleWebKit/537.36 (KHTML, like Gecko) Chrome/99.0.4844.74 Safari/537.36",1536,864,1536,754,"main",4443615,17,13,34,31,"HM","Moderate","Harder than Reference","D","j","riskyDeck","safeDeck",0,14,7,"left",1,0,32,"present","riskyDeck",3482,1864,-1,0
"11ebzd4ncngc",2532.17538461538,1072.09945236288,13554,"28/03/2022@11:07:30","Mozilla/5.0 (Windows NT 10.0; Win64; x64) AppleWebKit/537.36 (KHTML, like Gecko) Chrome/99.0.4844.74 Safari/537.36",1536,864,1536,754,"main",4443615,17,14,34,32,"HM","Moderate","Harder than Reference","D","k","riskyDeck","safeDeck",0,14,7,"left",1,0,32,"absent","riskyDeck",3482,5791,-1,0
"11ebzd4ncngc",2532.17538461538,1072.09945236288,13554,"28/03/2022@11:07:30","Mozilla/5.0 (Windows NT 10.0; Win64; x64) AppleWebKit/537.36 (KHTML, like Gecko) Chrome/99.0.4844.74 Safari/537.36",1536,864,1536,754,"main",4443615,17,15,34,32,"HM","Moderate","Harder than Reference","D","k","riskyDeck","safeDeck",0,14,7,"left",1,0,32,"absent","riskyDeck",3482,4602,-1,0
"11ebzd4ncngc",2532.17538461538,1072.09945236288,13554,"28/03/2022@11:07:30","Mozilla/5.0 (Windows NT 10.0; Win64; x64) AppleWebKit/537.36 (KHTML, like Gecko) Chrome/99.0.4844.74 Safari/537.36",1536,864,1536,754,"main",4443615,17,16,34,32,"HM","Moderate","Harder than Reference","D","j","riskyDeck","safeDeck",0,14,7,"left",1,0,32,"present","riskyDeck",3482,637,-1,0
"11ebzd4ncngc",2532.17538461538,1072.09945236288,13554,"28/03/2022@11:07:30","Mozilla/5.0 (Windows NT 10.0; Win64; x64) AppleWebKit/537.36 (KHTML, like Gecko) Chrome/99.0.4844.74 Safari/537.36",1536,864,1536,754,"main",4443615,17,17,34,32,"HM","Moderate","Harder than Reference","D","j","riskyDeck","safeDeck",0,14,7,"left",1,0,32,"present","riskyDeck",3482,895,-1,0
"11ebzd4ncngc",2532.17538461538,1072.09945236288,13554,"28/03/2022@11:07:30","Mozilla/5.0 (Windows NT 10.0; Win64; x64) AppleWebKit/537.36 (KHTML, like Gecko) Chrome/99.0.4844.74 Safari/537.36",1536,864,1536,754,"main",4443615,18,1,34,32,"EM","Moderate","Easier than Reference","D","k","riskyDeck","safeDeck",-28,0,-14,"left",1,0,4,"absent","riskyDeck",1799,891,-1,0
"11ebzd4ncngc",2532.17538461538,1072.09945236288,13554,"28/03/2022@11:07:30","Mozilla/5.0 (Windows NT 10.0; Win64; x64) AppleWebKit/537.36 (KHTML, like Gecko) Chrome/99.0.4844.74 Safari/537.36",1536,864,1536,754,"main",4443615,18,2,34,32,"EM","Moderate","Easier than Reference","D","j","riskyDeck","safeDeck",-28,0,-14,"left",1,0,4,"present","riskyDeck",1799,610,-1,0
"11ebzd4ncngc",2532.17538461538,1072.09945236288,13554,"28/03/2022@11:07:30","Mozilla/5.0 (Windows NT 10.0; Win64; x64) AppleWebKit/537.36 (KHTML, like Gecko) Chrome/99.0.4844.74 Safari/537.36",1536,864,1536,754,"main",4443615,18,3,34,32,"EM","Moderate","Easier than Reference","D","j","riskyDeck","safeDeck",-28,0,-14,"left",1,0,4,"present","riskyDeck",1799,767,-1,0
"11ebzd4ncngc",2532.17538461538,1072.09945236288,13554,"28/03/2022@11:07:30","Mozilla/5.0 (Windows NT 10.0; Win64; x64) AppleWebKit/537.36 (KHTML, like Gecko) Chrome/99.0.4844.74 Safari/537.36",1536,864,1536,754,"main",4443615,18,4,34,32,"EM","Moderate","Easier than Reference","D","j","riskyDeck","safeDeck",-28,0,-14,"left",1,0,4,"present","riskyDeck",1799,587,-1,0
"11ebzd4ncngc",2532.17538461538,1072.09945236288,13554,"28/03/2022@11:07:30","Mozilla/5.0 (Windows NT 10.0; Win64; x64) AppleWebKit/537.36 (KHTML, like Gecko) Chrome/99.0.4844.74 Safari/537.36",1536,864,1536,754,"main",4443615,18,5,34,32,"EM","Moderate","Easier than Reference","D","j","riskyDeck","safeDeck",-28,0,-14,"left",1,0,4,"present","riskyDeck",1799,692,-1,0
"11ebzd4ncngc",2532.17538461538,1072.09945236288,13554,"28/03/2022@11:07:30","Mozilla/5.0 (Windows NT 10.0; Win64; x64) AppleWebKit/537.36 (KHTML, like Gecko) Chrome/99.0.4844.74 Safari/537.36",1536,864,1536,754,"main",4443615,18,6,34,32,"EM","Moderate","Easier than Reference","D","j","riskyDeck","safeDeck",-28,0,-14,"left",1,0,4,"present","riskyDeck",1799,633,-1,0
"11ebzd4ncngc",2532.17538461538,1072.09945236288,13554,"28/03/2022@11:07:30","Mozilla/5.0 (Windows NT 10.0; Win64; x64) AppleWebKit/537.36 (KHTML, like Gecko) Chrome/99.0.4844.74 Safari/537.36",1536,864,1536,754,"main",4443615,18,7,34,32,"EM","Moderate","Easier than Reference","D","k","riskyDeck","safeDeck",-28,0,-14,"left",1,0,4,"absent","riskyDeck",1799,640,-1,0
"11ebzd4ncngc",2532.17538461538,1072.09945236288,13554,"28/03/2022@11:07:30","Mozilla/5.0 (Windows NT 10.0; Win64; x64) AppleWebKit/537.36 (KHTML, like Gecko) Chrome/99.0.4844.74 Safari/537.36",1536,864,1536,754,"main",4443615,18,8,34,32,"EM","Moderate","Easier than Reference","D","j","riskyDeck","safeDeck",-28,0,-14,"left",1,0,4,"present","riskyDeck",1799,597,-1,0
"11ebzd4ncngc",2532.17538461538,1072.09945236288,13554,"28/03/2022@11:07:30","Mozilla/5.0 (Windows NT 10.0; Win64; x64) AppleWebKit/537.36 (KHTML, like Gecko) Chrome/99.0.4844.74 Safari/537.36",1536,864,1536,754,"main",4443615,18,9,34,32,"EM","Moderate","Easier than Reference","D","j","riskyDeck","safeDeck",-28,0,-14,"left",1,0,4,"present","riskyDeck",1799,607,-1,0
"11ebzd4ncngc",2532.17538461538,1072.09945236288,13554,"28/03/2022@11:07:30","Mozilla/5.0 (Windows NT 10.0; Win64; x64) AppleWebKit/537.36 (KHTML, like Gecko) Chrome/99.0.4844.74 Safari/537.36",1536,864,1536,754,"main",4443615,18,10,34,32,"EM","Moderate","Easier than Reference","D","k","riskyDeck","safeDeck",-28,0,-14,"left",1,0,4,"absent","riskyDeck",1799,577,-1,0
"11ebzd4ncngc",2532.17538461538,1072.09945236288,13554,"28/03/2022@11:07:30","Mozilla/5.0 (Windows NT 10.0; Win64; x64) AppleWebKit/537.36 (KHTML, like Gecko) Chrome/99.0.4844.74 Safari/537.36",1536,864,1536,754,"main",4443615,18,11,34,32,"EM","Moderate","Easier than Reference","D","j","riskyDeck","safeDeck",-28,0,-14,"left",1,0,4,"present","riskyDeck",1799,723,-1,0
"11ebzd4ncngc",2532.17538461538,1072.09945236288,13554,"28/03/2022@11:07:30","Mozilla/5.0 (Windows NT 10.0; Win64; x64) AppleWebKit/537.36 (KHTML, like Gecko) Chrome/99.0.4844.74 Safari/537.36",1536,864,1536,754,"main",4443615,18,12,34,32,"EM","Moderate","Easier than Reference","D","j","riskyDeck","safeDeck",-28,0,-14,"left",1,0,4,"present","riskyDeck",1799,640,-1,0
"11ebzd4ncngc",2532.17538461538,1072.09945236288,13554,"28/03/2022@11:07:30","Mozilla/5.0 (Windows NT 10.0; Win64; x64) AppleWebKit/537.36 (KHTML, like Gecko) Chrome/99.0.4844.74 Safari/537.36",1536,864,1536,754,"main",4443615,18,13,34,32,"EM","Moderate","Easier than Reference","D","k","riskyDeck","safeDeck",-28,0,-14,"left",1,0,4,"absent","riskyDeck",1799,811,-1,0
"11ebzd4ncngc",2532.17538461538,1072.09945236288,13554,"28/03/2022@11:07:30","Mozilla/5.0 (Windows NT 10.0; Win64; x64) AppleWebKit/537.36 (KHTML, like Gecko) Chrome/99.0.4844.74 Safari/537.36",1536,864,1536,754,"main",4443615,18,14,34,32,"EM","Moderate","Easier than Reference","D","k","riskyDeck","safeDeck",-28,0,-14,"left",1,0,4,"absent","riskyDeck",1799,630,-1,0
"11ebzd4ncngc",2532.17538461538,1072.09945236288,13554,"28/03/2022@11:07:30","Mozilla/5.0 (Windows NT 10.0; Win64; x64) AppleWebKit/537.36 (KHTML, like Gecko) Chrome/99.0.4844.74 Safari/537.36",1536,864,1536,754,"main",4443615,18,15,34,32,"EM","Moderate","Easier than Reference","D","j","riskyDeck","safeDeck",-28,0,-14,"left",1,0,4,"present","riskyDeck",1799,566,-1,0
"11ebzd4ncngc",2532.17538461538,1072.09945236288,13554,"28/03/2022@11:07:30","Mozilla/5.0 (Windows NT 10.0; Win64; x64) AppleWebKit/537.36 (KHTML, like Gecko) Chrome/99.0.4844.74 Safari/537.36",1536,864,1536,754,"main",4443615,18,16,34,32,"EM","Moderate","Easier than Reference","D","j","riskyDeck","safeDeck",-28,0,-14,"left",1,0,4,"present","riskyDeck",1799,610,-1,0
"11ebzd4ncngc",2532.17538461538,1072.09945236288,13554,"28/03/2022@11:07:30","Mozilla/5.0 (Windows NT 10.0; Win64; x64) AppleWebKit/537.36 (KHTML, like Gecko) Chrome/99.0.4844.74 Safari/537.36",1536,864,1536,754,"main",4443615,18,17,34,32,"EM","Moderate","Easier than Reference","D","k","riskyDeck","safeDeck",-28,0,-14,"left",1,0,4,"absent","riskyDeck",1799,553,-1,0
"11ebzd4ncngc",2532.17538461538,1072.09945236288,13554,"28/03/2022@11:07:30","Mozilla/5.0 (Windows NT 10.0; Win64; x64) AppleWebKit/537.36 (KHTML, like Gecko) Chrome/99.0.4844.74 Safari/537.36",1536,864,1536,754,"main",4443615,19,1,34,32,"HE","Extreme","Harder than Reference","D","j","riskyDeck","safeDeck",28,0,14,"left",1,0,32,"present","riskyDeck",2610,1271,-1,0
"11ebzd4ncngc",2532.17538461538,1072.09945236288,13554,"28/03/2022@11:07:30","Mozilla/5.0 (Windows NT 10.0; Win64; x64) AppleWebKit/537.36 (KHTML, like Gecko) Chrome/99.0.4844.74 Safari/537.36",1536,864,1536,754,"main",4443615,19,2,34,32,"HE","Extreme","Harder than Reference","D","j","riskyDeck","safeDeck",28,0,14,"left",1,0,32,"present","riskyDeck",2610,775,-1,0
"11ebzd4ncngc",2532.17538461538,1072.09945236288,13554,"28/03/2022@11:07:30","Mozilla/5.0 (Windows NT 10.0; Win64; x64) AppleWebKit/537.36 (KHTML, like Gecko) Chrome/99.0.4844.74 Safari/537.36",1536,864,1536,754,"main",4443615,19,3,35,32,"HE","Extreme","Harder than Reference","D","k","riskyDeck","safeDeck",28,0,14,"left",1,0,32,"absent","riskyDeck",2610,2003,-1,0
"11ebzd4ncngc",2532.17538461538,1072.09945236288,13554,"28/03/2022@11:07:30","Mozilla/5.0 (Windows NT 10.0; Win64; x64) AppleWebKit/537.36 (KHTML, like Gecko) Chrome/99.0.4844.74 Safari/537.36",1536,864,1536,754,"main",4443615,19,4,35,32,"HE","Extreme","Harder than Reference","D","k","riskyDeck","safeDeck",28,0,14,"left",1,0,32,"absent","riskyDeck",2610,3675,-1,0
"11ebzd4ncngc",2532.17538461538,1072.09945236288,13554,"28/03/2022@11:07:30","Mozilla/5.0 (Windows NT 10.0; Win64; x64) AppleWebKit/537.36 (KHTML, like Gecko) Chrome/99.0.4844.74 Safari/537.36",1536,864,1536,754,"main",4443615,19,5,35,32,"HE","Extreme","Harder than Reference","D","j","riskyDeck","safeDeck",28,0,14,"left",1,0,32,"present","riskyDeck",2610,1532,-1,0
"11ebzd4ncngc",2532.17538461538,1072.09945236288,13554,"28/03/2022@11:07:30","Mozilla/5.0 (Windows NT 10.0; Win64; x64) AppleWebKit/537.36 (KHTML, like Gecko) Chrome/99.0.4844.74 Safari/537.36",1536,864,1536,754,"main",4443615,19,6,35,32,"HE","Extreme","Harder than Reference","D","j","riskyDeck","safeDeck",28,0,14,"left",1,0,32,"present","riskyDeck",2610,1242,-1,0
"11ebzd4ncngc",2532.17538461538,1072.09945236288,13554,"28/03/2022@11:07:30","Mozilla/5.0 (Windows NT 10.0; Win64; x64) AppleWebKit/537.36 (KHTML, like Gecko) Chrome/99.0.4844.74 Safari/537.36",1536,864,1536,754,"main",4443615,19,7,35,32,"HE","Extreme","Harder than Reference","D","j","riskyDeck","safeDeck",28,0,14,"left",1,0,32,"present","riskyDeck",2610,1408,-1,0
"11ebzd4ncngc",2532.17538461538,1072.09945236288,13554,"28/03/2022@11:07:30","Mozilla/5.0 (Windows NT 10.0; Win64; x64) AppleWebKit/537.36 (KHTML, like Gecko) Chrome/99.0.4844.74 Safari/537.36",1536,864,1536,754,"main",4443615,19,8,35,32,"HE","Extreme","Harder than Reference","D","k","riskyDeck","safeDeck",28,0,14,"left",1,0,32,"absent","riskyDeck",2610,3788,-1,0
"11ebzd4ncngc",2532.17538461538,1072.09945236288,13554,"28/03/2022@11:07:30","Mozilla/5.0 (Windows NT 10.0; Win64; x64) AppleWebKit/537.36 (KHTML, like Gecko) Chrome/99.0.4844.74 Safari/537.36",1536,864,1536,754,"main",4443615,19,9,35,32,"HE","Extreme","Harder than Reference","D","k","riskyDeck","safeDeck",28,0,14,"left",1,0,32,"absent","riskyDeck",2610,4096,-1,0
"11ebzd4ncngc",2532.17538461538,1072.09945236288,13554,"28/03/2022@11:07:30","Mozilla/5.0 (Windows NT 10.0; Win64; x64) AppleWebKit/537.36 (KHTML, like Gecko) Chrome/99.0.4844.74 Safari/537.36",1536,864,1536,754,"main",4443615,19,10,35,33,"HE","Extreme","Harder than Reference","D","k","riskyDeck","safeDeck",28,0,14,"left",1,0,32,"absent","riskyDeck",2610,914,-1,0
"11ebzd4ncngc",2532.17538461538,1072.09945236288,13554,"28/03/2022@11:07:30","Mozilla/5.0 (Windows NT 10.0; Win64; x64) AppleWebKit/537.36 (KHTML, like Gecko) Chrome/99.0.4844.74 Safari/537.36",1536,864,1536,754,"main",4443615,19,11,35,33,"HE","Extreme","Harder than Reference","D","k","riskyDeck","safeDeck",28,0,14,"left",1,0,32,"absent","riskyDeck",2610,1581,-1,0
