subject,sona_id,curTime,userAgent,screenWidth,screenHeight,windowWidth,windowHeight,phase,phase_run_time,choice_trial,search_trial,exp_runtime_mins,phase_runtime_mins,condition,magnitude,direction,choice_response_key,search_response_key,left_deck_id,right_deck_id,risky_deck_outcome_top,risky_deck_outcome_bottom,safe_deck_outcome,selected_deck_location,selectedRiskyDeck,error,n_stimuli,present_or_absent,chosenDeckId,choice_rt,search_rt
it1l37kgtyg,13460,27/03/2022@17:34:56,"Mozilla/5.0 (Windows NT 10.0; Win64; x64) AppleWebKit/537.36 (KHTML, like Gecko) Chrome/99.0.4844.82 Safari/537.36",1280,720,1263,520,main,2949673,1,1,3,1,EM,Moderate,Easier than Reference,D,j,riskyDeck,safeDeck,-28,0,-14,left,1,0,4,present,riskyDeck,2516,1565
it1l37kgtyg,13460,27/03/2022@17:34:56,"Mozilla/5.0 (Windows NT 10.0; Win64; x64) AppleWebKit/537.36 (KHTML, like Gecko) Chrome/99.0.4844.82 Safari/537.36",1280,720,1263,520,main,2949673,1,2,3,1,EM,Moderate,Easier than Reference,D,k,riskyDeck,safeDeck,-28,0,-14,left,1,0,4,absent,riskyDeck,2516,1296
it1l37kgtyg,13460,27/03/2022@17:34:56,"Mozilla/5.0 (Windows NT 10.0; Win64; x64) AppleWebKit/537.36 (KHTML, like Gecko) Chrome/99.0.4844.82 Safari/537.36",1280,720,1263,520,main,2949673,1,3,3,1,EM,Moderate,Easier than Reference,D,j,riskyDeck,safeDeck,-28,0,-14,left,1,0,4,present,riskyDeck,2516,800
it1l37kgtyg,13460,27/03/2022@17:34:56,"Mozilla/5.0 (Windows NT 10.0; Win64; x64) AppleWebKit/537.36 (KHTML, like Gecko) Chrome/99.0.4844.82 Safari/537.36",1280,720,1263,520,main,2949673,1,4,3,1,EM,Moderate,Easier than Reference,D,k,riskyDeck,safeDeck,-28,0,-14,left,1,0,4,absent,riskyDeck,2516,1112
it1l37kgtyg,13460,27/03/2022@17:34:56,"Mozilla/5.0 (Windows NT 10.0; Win64; x64) AppleWebKit/537.36 (KHTML, like Gecko) Chrome/99.0.4844.82 Safari/537.36",1280,720,1263,520,main,2949673,1,5,3,1,EM,Moderate,Easier than Reference,D,j,riskyDeck,safeDeck,-28,0,-14,left,1,0,4,present,riskyDeck,2516,608
it1l37kgtyg,13460,27/03/2022@17:34:56,"Mozilla/5.0 (Windows NT 10.0; Win64; x64) AppleWebKit/537.36 (KHTML, like Gecko) Chrome/99.0.4844.82 Safari/537.36",1280,720,1263,520,main,2949673,1,6,3,1,EM,Moderate,Easier than Reference,D,j,riskyDeck,safeDeck,-28,0,-14,left,1,1,4,absent,riskyDeck,2516,4190
it1l37kgtyg,13460,27/03/2022@17:34:56,"Mozilla/5.0 (Windows NT 10.0; Win64; x64) AppleWebKit/537.36 (KHTML, like Gecko) Chrome/99.0.4844.82 Safari/537.36",1280,720,1263,520,main,2949673,1,7,3,1,EM,Moderate,Easier than Reference,D,j,riskyDeck,safeDeck,-28,0,-14,left,1,0,4,present,riskyDeck,2516,1118
it1l37kgtyg,13460,27/03/2022@17:34:56,"Mozilla/5.0 (Windows NT 10.0; Win64; x64) AppleWebKit/537.36 (KHTML, like Gecko) Chrome/99.0.4844.82 Safari/537.36",1280,720,1263,520,main,2949673,1,8,3,1,EM,Moderate,Easier than Reference,D,k,riskyDeck,safeDeck,-28,0,-14,left,1,0,4,absent,riskyDeck,2516,991
it1l37kgtyg,13460,27/03/2022@17:34:56,"Mozilla/5.0 (Windows NT 10.0; Win64; x64) AppleWebKit/537.36 (KHTML, like Gecko) Chrome/99.0.4844.82 Safari/537.36",1280,720,1263,520,main,2949673,1,9,3,1,EM,Moderate,Easier than Reference,D,k,riskyDeck,safeDeck,-28,0,-14,left,1,0,4,absent,riskyDeck,2516,1271
it1l37kgtyg,13460,27/03/2022@17:34:56,"Mozilla/5.0 (Windows NT 10.0; Win64; x64) AppleWebKit/537.36 (KHTML, like Gecko) Chrome/99.0.4844.82 Safari/537.36",1280,720,1263,520,main,2949673,1,10,3,1,EM,Moderate,Easier than Reference,D,k,riskyDeck,safeDeck,-28,0,-14,left,1,1,4,present,riskyDeck,2516,980
it1l37kgtyg,13460,27/03/2022@17:34:56,"Mozilla/5.0 (Windows NT 10.0; Win64; x64) AppleWebKit/537.36 (KHTML, like Gecko) Chrome/99.0.4844.82 Safari/537.36",1280,720,1263,520,main,2949673,1,11,3,1,EM,Moderate,Easier than Reference,D,k,riskyDeck,safeDeck,-28,0,-14,left,1,0,4,absent,riskyDeck,2516,2174
it1l37kgtyg,13460,27/03/2022@17:34:56,"Mozilla/5.0 (Windows NT 10.0; Win64; x64) AppleWebKit/537.36 (KHTML, like Gecko) Chrome/99.0.4844.82 Safari/537.36",1280,720,1263,520,main,2949673,1,12,3,1,EM,Moderate,Easier than Reference,D,j,riskyDeck,safeDeck,-28,0,-14,left,1,0,4,present,riskyDeck,2516,876
it1l37kgtyg,13460,27/03/2022@17:34:56,"Mozilla/5.0 (Windows NT 10.0; Win64; x64) AppleWebKit/537.36 (KHTML, like Gecko) Chrome/99.0.4844.82 Safari/537.36",1280,720,1263,520,main,2949673,1,13,3,1,EM,Moderate,Easier than Reference,D,k,riskyDeck,safeDeck,-28,0,-14,left,1,0,4,absent,riskyDeck,2516,1635
it1l37kgtyg,13460,27/03/2022@17:34:56,"Mozilla/5.0 (Windows NT 10.0; Win64; x64) AppleWebKit/537.36 (KHTML, like Gecko) Chrome/99.0.4844.82 Safari/537.36",1280,720,1263,520,main,2949673,1,14,3,2,EM,Moderate,Easier than Reference,D,j,riskyDeck,safeDeck,-28,0,-14,left,1,0,4,present,riskyDeck,2516,826
it1l37kgtyg,13460,27/03/2022@17:34:56,"Mozilla/5.0 (Windows NT 10.0; Win64; x64) AppleWebKit/537.36 (KHTML, like Gecko) Chrome/99.0.4844.82 Safari/537.36",1280,720,1263,520,main,2949673,1,15,3,2,EM,Moderate,Easier than Reference,D,j,riskyDeck,safeDeck,-28,0,-14,left,1,0,4,present,riskyDeck,2516,886
it1l37kgtyg,13460,27/03/2022@17:34:56,"Mozilla/5.0 (Windows NT 10.0; Win64; x64) AppleWebKit/537.36 (KHTML, like Gecko) Chrome/99.0.4844.82 Safari/537.36",1280,720,1263,520,main,2949673,1,16,3,2,EM,Moderate,Easier than Reference,D,j,riskyDeck,safeDeck,-28,0,-14,left,1,0,4,present,riskyDeck,2516,948
it1l37kgtyg,13460,27/03/2022@17:34:56,"Mozilla/5.0 (Windows NT 10.0; Win64; x64) AppleWebKit/537.36 (KHTML, like Gecko) Chrome/99.0.4844.82 Safari/537.36",1280,720,1263,520,main,2949673,1,17,3,2,EM,Moderate,Easier than Reference,D,k,riskyDeck,safeDeck,-28,0,-14,left,1,0,4,absent,riskyDeck,2516,805
it1l37kgtyg,13460,27/03/2022@17:34:56,"Mozilla/5.0 (Windows NT 10.0; Win64; x64) AppleWebKit/537.36 (KHTML, like Gecko) Chrome/99.0.4844.82 Safari/537.36",1280,720,1263,520,main,2949673,2,1,4,2,HE,Extreme,Harder than Reference,D,j,riskyDeck,safeDeck,28,0,14,left,1,0,60,present,riskyDeck,2976,3758
it1l37kgtyg,13460,27/03/2022@17:34:56,"Mozilla/5.0 (Windows NT 10.0; Win64; x64) AppleWebKit/537.36 (KHTML, like Gecko) Chrome/99.0.4844.82 Safari/537.36",1280,720,1263,520,main,2949673,2,2,4,2,HE,Extreme,Harder than Reference,D,k,riskyDeck,safeDeck,28,0,14,left,1,1,60,present,riskyDeck,2976,3716
it1l37kgtyg,13460,27/03/2022@17:34:56,"Mozilla/5.0 (Windows NT 10.0; Win64; x64) AppleWebKit/537.36 (KHTML, like Gecko) Chrome/99.0.4844.82 Safari/537.36",1280,720,1263,520,main,2949673,2,3,4,2,HE,Extreme,Harder than Reference,D,k,riskyDeck,safeDeck,28,0,14,left,1,0,60,absent,riskyDeck,2976,5284
it1l37kgtyg,13460,27/03/2022@17:34:56,"Mozilla/5.0 (Windows NT 10.0; Win64; x64) AppleWebKit/537.36 (KHTML, like Gecko) Chrome/99.0.4844.82 Safari/537.36",1280,720,1263,520,main,2949673,2,4,4,2,HE,Extreme,Harder than Reference,D,k,riskyDeck,safeDeck,28,0,14,left,1,1,60,present,riskyDeck,2976,3678
it1l37kgtyg,13460,27/03/2022@17:34:56,"Mozilla/5.0 (Windows NT 10.0; Win64; x64) AppleWebKit/537.36 (KHTML, like Gecko) Chrome/99.0.4844.82 Safari/537.36",1280,720,1263,520,main,2949673,2,5,4,2,HE,Extreme,Harder than Reference,D,k,riskyDeck,safeDeck,28,0,14,left,1,0,60,absent,riskyDeck,2976,3743
it1l37kgtyg,13460,27/03/2022@17:34:56,"Mozilla/5.0 (Windows NT 10.0; Win64; x64) AppleWebKit/537.36 (KHTML, like Gecko) Chrome/99.0.4844.82 Safari/537.36",1280,720,1263,520,main,2949673,2,6,4,2,HE,Extreme,Harder than Reference,D,k,riskyDeck,safeDeck,28,0,14,left,1,0,60,absent,riskyDeck,2976,3205
it1l37kgtyg,13460,27/03/2022@17:34:56,"Mozilla/5.0 (Windows NT 10.0; Win64; x64) AppleWebKit/537.36 (KHTML, like Gecko) Chrome/99.0.4844.82 Safari/537.36",1280,720,1263,520,main,2949673,2,7,4,2,HE,Extreme,Harder than Reference,D,k,riskyDeck,safeDeck,28,0,14,left,1,0,60,absent,riskyDeck,2976,4900
it1l37kgtyg,13460,27/03/2022@17:34:56,"Mozilla/5.0 (Windows NT 10.0; Win64; x64) AppleWebKit/537.36 (KHTML, like Gecko) Chrome/99.0.4844.82 Safari/537.36",1280,720,1263,520,main,2949673,2,8,4,2,HE,Extreme,Harder than Reference,D,k,riskyDeck,safeDeck,28,0,14,left,1,0,60,absent,riskyDeck,2976,4467
it1l37kgtyg,13460,27/03/2022@17:34:56,"Mozilla/5.0 (Windows NT 10.0; Win64; x64) AppleWebKit/537.36 (KHTML, like Gecko) Chrome/99.0.4844.82 Safari/537.36",1280,720,1263,520,main,2949673,2,9,4,2,HE,Extreme,Harder than Reference,D,j,riskyDeck,safeDeck,28,0,14,left,1,0,60,present,riskyDeck,2976,3095
it1l37kgtyg,13460,27/03/2022@17:34:56,"Mozilla/5.0 (Windows NT 10.0; Win64; x64) AppleWebKit/537.36 (KHTML, like Gecko) Chrome/99.0.4844.82 Safari/537.36",1280,720,1263,520,main,2949673,2,10,4,2,HE,Extreme,Harder than Reference,D,k,riskyDeck,safeDeck,28,0,14,left,1,1,60,present,riskyDeck,2976,4544
it1l37kgtyg,13460,27/03/2022@17:34:56,"Mozilla/5.0 (Windows NT 10.0; Win64; x64) AppleWebKit/537.36 (KHTML, like Gecko) Chrome/99.0.4844.82 Safari/537.36",1280,720,1263,520,main,2949673,2,11,4,3,HE,Extreme,Harder than Reference,D,j,riskyDeck,safeDeck,28,0,14,left,1,0,60,present,riskyDeck,2976,2388
it1l37kgtyg,13460,27/03/2022@17:34:56,"Mozilla/5.0 (Windows NT 10.0; Win64; x64) AppleWebKit/537.36 (KHTML, like Gecko) Chrome/99.0.4844.82 Safari/537.36",1280,720,1263,520,main,2949673,2,12,4,3,HE,Extreme,Harder than Reference,D,j,riskyDeck,safeDeck,28,0,14,left,1,0,60,present,riskyDeck,2976,1860
it1l37kgtyg,13460,27/03/2022@17:34:56,"Mozilla/5.0 (Windows NT 10.0; Win64; x64) AppleWebKit/537.36 (KHTML, like Gecko) Chrome/99.0.4844.82 Safari/537.36",1280,720,1263,520,main,2949673,2,13,5,3,HE,Extreme,Harder than Reference,D,k,riskyDeck,safeDeck,28,0,14,left,1,0,60,absent,riskyDeck,2976,6300
it1l37kgtyg,13460,27/03/2022@17:34:56,"Mozilla/5.0 (Windows NT 10.0; Win64; x64) AppleWebKit/537.36 (KHTML, like Gecko) Chrome/99.0.4844.82 Safari/537.36",1280,720,1263,520,main,2949673,2,14,5,3,HE,Extreme,Harder than Reference,D,j,riskyDeck,safeDeck,28,0,14,left,1,0,60,present,riskyDeck,2976,3382
it1l37kgtyg,13460,27/03/2022@17:34:56,"Mozilla/5.0 (Windows NT 10.0; Win64; x64) AppleWebKit/537.36 (KHTML, like Gecko) Chrome/99.0.4844.82 Safari/537.36",1280,720,1263,520,main,2949673,2,15,5,3,HE,Extreme,Harder than Reference,D,k,riskyDeck,safeDeck,28,0,14,left,1,1,60,present,riskyDeck,2976,4490
it1l37kgtyg,13460,27/03/2022@17:34:56,"Mozilla/5.0 (Windows NT 10.0; Win64; x64) AppleWebKit/537.36 (KHTML, like Gecko) Chrome/99.0.4844.82 Safari/537.36",1280,720,1263,520,main,2949673,2,16,5,3,HE,Extreme,Harder than Reference,D,j,riskyDeck,safeDeck,28,0,14,left,1,0,60,present,riskyDeck,2976,4925
it1l37kgtyg,13460,27/03/2022@17:34:56,"Mozilla/5.0 (Windows NT 10.0; Win64; x64) AppleWebKit/537.36 (KHTML, like Gecko) Chrome/99.0.4844.82 Safari/537.36",1280,720,1263,520,main,2949673,2,17,5,3,HE,Extreme,Harder than Reference,D,k,riskyDeck,safeDeck,28,0,14,left,1,0,60,absent,riskyDeck,2976,2979
it1l37kgtyg,13460,27/03/2022@17:34:56,"Mozilla/5.0 (Windows NT 10.0; Win64; x64) AppleWebKit/537.36 (KHTML, like Gecko) Chrome/99.0.4844.82 Safari/537.36",1280,720,1263,520,main,2949673,3,1,5,3,EE,Extreme,Easier than Reference,D,j,riskyDeck,safeDeck,0,-14,-7,left,1,0,32,present,riskyDeck,2143,4153
it1l37kgtyg,13460,27/03/2022@17:34:56,"Mozilla/5.0 (Windows NT 10.0; Win64; x64) AppleWebKit/537.36 (KHTML, like Gecko) Chrome/99.0.4844.82 Safari/537.36",1280,720,1263,520,main,2949673,3,2,5,3,EE,Extreme,Easier than Reference,D,k,riskyDeck,safeDeck,0,-14,-7,left,1,1,32,present,riskyDeck,2143,2608
it1l37kgtyg,13460,27/03/2022@17:34:56,"Mozilla/5.0 (Windows NT 10.0; Win64; x64) AppleWebKit/537.36 (KHTML, like Gecko) Chrome/99.0.4844.82 Safari/537.36",1280,720,1263,520,main,2949673,3,3,5,3,EE,Extreme,Easier than Reference,D,j,riskyDeck,safeDeck,0,-14,-7,left,1,0,32,present,riskyDeck,2143,2314
it1l37kgtyg,13460,27/03/2022@17:34:56,"Mozilla/5.0 (Windows NT 10.0; Win64; x64) AppleWebKit/537.36 (KHTML, like Gecko) Chrome/99.0.4844.82 Safari/537.36",1280,720,1263,520,main,2949673,3,4,5,3,EE,Extreme,Easier than Reference,D,k,riskyDeck,safeDeck,0,-14,-7,left,1,0,32,absent,riskyDeck,2143,3246
it1l37kgtyg,13460,27/03/2022@17:34:56,"Mozilla/5.0 (Windows NT 10.0; Win64; x64) AppleWebKit/537.36 (KHTML, like Gecko) Chrome/99.0.4844.82 Safari/537.36",1280,720,1263,520,main,2949673,3,5,5,3,EE,Extreme,Easier than Reference,D,k,riskyDeck,safeDeck,0,-14,-7,left,1,0,32,absent,riskyDeck,2143,3312
it1l37kgtyg,13460,27/03/2022@17:34:56,"Mozilla/5.0 (Windows NT 10.0; Win64; x64) AppleWebKit/537.36 (KHTML, like Gecko) Chrome/99.0.4844.82 Safari/537.36",1280,720,1263,520,main,2949673,3,6,5,3,EE,Extreme,Easier than Reference,D,k,riskyDeck,safeDeck,0,-14,-7,left,1,0,32,absent,riskyDeck,2143,3612
it1l37kgtyg,13460,27/03/2022@17:34:56,"Mozilla/5.0 (Windows NT 10.0; Win64; x64) AppleWebKit/537.36 (KHTML, like Gecko) Chrome/99.0.4844.82 Safari/537.36",1280,720,1263,520,main,2949673,3,7,5,3,EE,Extreme,Easier than Reference,D,k,riskyDeck,safeDeck,0,-14,-7,left,1,0,32,absent,riskyDeck,2143,2423
it1l37kgtyg,13460,27/03/2022@17:34:56,"Mozilla/5.0 (Windows NT 10.0; Win64; x64) AppleWebKit/537.36 (KHTML, like Gecko) Chrome/99.0.4844.82 Safari/537.36",1280,720,1263,520,main,2949673,3,8,5,4,EE,Extreme,Easier than Reference,D,j,riskyDeck,safeDeck,0,-14,-7,left,1,0,32,present,riskyDeck,2143,2403
it1l37kgtyg,13460,27/03/2022@17:34:56,"Mozilla/5.0 (Windows NT 10.0; Win64; x64) AppleWebKit/537.36 (KHTML, like Gecko) Chrome/99.0.4844.82 Safari/537.36",1280,720,1263,520,main,2949673,3,9,5,4,EE,Extreme,Easier than Reference,D,k,riskyDeck,safeDeck,0,-14,-7,left,1,1,32,present,riskyDeck,2143,1565
it1l37kgtyg,13460,27/03/2022@17:34:56,"Mozilla/5.0 (Windows NT 10.0; Win64; x64) AppleWebKit/537.36 (KHTML, like Gecko) Chrome/99.0.4844.82 Safari/537.36",1280,720,1263,520,main,2949673,3,10,6,4,EE,Extreme,Easier than Reference,D,k,riskyDeck,safeDeck,0,-14,-7,left,1,0,32,absent,riskyDeck,2143,3930
it1l37kgtyg,13460,27/03/2022@17:34:56,"Mozilla/5.0 (Windows NT 10.0; Win64; x64) AppleWebKit/537.36 (KHTML, like Gecko) Chrome/99.0.4844.82 Safari/537.36",1280,720,1263,520,main,2949673,3,11,6,4,EE,Extreme,Easier than Reference,D,k,riskyDeck,safeDeck,0,-14,-7,left,1,0,32,absent,riskyDeck,2143,4223
it1l37kgtyg,13460,27/03/2022@17:34:56,"Mozilla/5.0 (Windows NT 10.0; Win64; x64) AppleWebKit/537.36 (KHTML, like Gecko) Chrome/99.0.4844.82 Safari/537.36",1280,720,1263,520,main,2949673,3,12,6,4,EE,Extreme,Easier than Reference,D,j,riskyDeck,safeDeck,0,-14,-7,left,1,0,32,present,riskyDeck,2143,2320
it1l37kgtyg,13460,27/03/2022@17:34:56,"Mozilla/5.0 (Windows NT 10.0; Win64; x64) AppleWebKit/537.36 (KHTML, like Gecko) Chrome/99.0.4844.82 Safari/537.36",1280,720,1263,520,main,2949673,3,13,6,4,EE,Extreme,Easier than Reference,D,k,riskyDeck,safeDeck,0,-14,-7,left,1,0,32,absent,riskyDeck,2143,2566
it1l37kgtyg,13460,27/03/2022@17:34:56,"Mozilla/5.0 (Windows NT 10.0; Win64; x64) AppleWebKit/537.36 (KHTML, like Gecko) Chrome/99.0.4844.82 Safari/537.36",1280,720,1263,520,main,2949673,3,14,6,4,EE,Extreme,Easier than Reference,D,j,riskyDeck,safeDeck,0,-14,-7,left,1,0,32,present,riskyDeck,2143,2871
it1l37kgtyg,13460,27/03/2022@17:34:56,"Mozilla/5.0 (Windows NT 10.0; Win64; x64) AppleWebKit/537.36 (KHTML, like Gecko) Chrome/99.0.4844.82 Safari/537.36",1280,720,1263,520,main,2949673,3,15,6,4,EE,Extreme,Easier than Reference,D,k,riskyDeck,safeDeck,0,-14,-7,left,1,1,32,present,riskyDeck,2143,4553
it1l37kgtyg,13460,27/03/2022@17:34:56,"Mozilla/5.0 (Windows NT 10.0; Win64; x64) AppleWebKit/537.36 (KHTML, like Gecko) Chrome/99.0.4844.82 Safari/537.36",1280,720,1263,520,main,2949673,3,16,6,4,EE,Extreme,Easier than Reference,D,k,riskyDeck,safeDeck,0,-14,-7,left,1,0,32,absent,riskyDeck,2143,3073
it1l37kgtyg,13460,27/03/2022@17:34:56,"Mozilla/5.0 (Windows NT 10.0; Win64; x64) AppleWebKit/537.36 (KHTML, like Gecko) Chrome/99.0.4844.82 Safari/537.36",1280,720,1263,520,main,2949673,3,17,6,4,EE,Extreme,Easier than Reference,D,k,riskyDeck,safeDeck,0,-14,-7,left,1,0,32,absent,riskyDeck,2143,3772
it1l37kgtyg,13460,27/03/2022@17:34:56,"Mozilla/5.0 (Windows NT 10.0; Win64; x64) AppleWebKit/537.36 (KHTML, like Gecko) Chrome/99.0.4844.82 Safari/537.36",1280,720,1263,520,main,2949673,4,1,6,4,HM,Moderate,Harder than Reference,F,k,riskyDeck,safeDeck,14,0,7,right,0,1,39,present,safeDeck,2676,5159
it1l37kgtyg,13460,27/03/2022@17:34:56,"Mozilla/5.0 (Windows NT 10.0; Win64; x64) AppleWebKit/537.36 (KHTML, like Gecko) Chrome/99.0.4844.82 Safari/537.36",1280,720,1263,520,main,2949673,4,2,6,4,HM,Moderate,Harder than Reference,F,k,riskyDeck,safeDeck,14,0,7,right,0,1,39,present,safeDeck,2676,2626
it1l37kgtyg,13460,27/03/2022@17:34:56,"Mozilla/5.0 (Windows NT 10.0; Win64; x64) AppleWebKit/537.36 (KHTML, like Gecko) Chrome/99.0.4844.82 Safari/537.36",1280,720,1263,520,main,2949673,4,3,7,5,HM,Moderate,Harder than Reference,F,k,riskyDeck,safeDeck,14,0,7,right,0,0,39,absent,safeDeck,2676,25387
it1l37kgtyg,13460,27/03/2022@17:34:56,"Mozilla/5.0 (Windows NT 10.0; Win64; x64) AppleWebKit/537.36 (KHTML, like Gecko) Chrome/99.0.4844.82 Safari/537.36",1280,720,1263,520,main,2949673,4,4,7,5,HM,Moderate,Harder than Reference,F,k,riskyDeck,safeDeck,14,0,7,right,0,1,39,present,safeDeck,2676,4685
it1l37kgtyg,13460,27/03/2022@17:34:56,"Mozilla/5.0 (Windows NT 10.0; Win64; x64) AppleWebKit/537.36 (KHTML, like Gecko) Chrome/99.0.4844.82 Safari/537.36",1280,720,1263,520,main,2949673,4,5,7,5,HM,Moderate,Harder than Reference,F,k,riskyDeck,safeDeck,14,0,7,right,0,0,39,absent,safeDeck,2676,3855
it1l37kgtyg,13460,27/03/2022@17:34:56,"Mozilla/5.0 (Windows NT 10.0; Win64; x64) AppleWebKit/537.36 (KHTML, like Gecko) Chrome/99.0.4844.82 Safari/537.36",1280,720,1263,520,main,2949673,4,6,7,5,HM,Moderate,Harder than Reference,F,j,riskyDeck,safeDeck,14,0,7,right,0,0,39,present,safeDeck,2676,4401
it1l37kgtyg,13460,27/03/2022@17:34:56,"Mozilla/5.0 (Windows NT 10.0; Win64; x64) AppleWebKit/537.36 (KHTML, like Gecko) Chrome/99.0.4844.82 Safari/537.36",1280,720,1263,520,main,2949673,4,7,7,5,HM,Moderate,Harder than Reference,F,j,riskyDeck,safeDeck,14,0,7,right,0,0,39,present,safeDeck,2676,1615
it1l37kgtyg,13460,27/03/2022@17:34:56,"Mozilla/5.0 (Windows NT 10.0; Win64; x64) AppleWebKit/537.36 (KHTML, like Gecko) Chrome/99.0.4844.82 Safari/537.36",1280,720,1263,520,main,2949673,4,8,7,5,HM,Moderate,Harder than Reference,F,j,riskyDeck,safeDeck,14,0,7,right,0,0,39,present,safeDeck,2676,1778
it1l37kgtyg,13460,27/03/2022@17:34:56,"Mozilla/5.0 (Windows NT 10.0; Win64; x64) AppleWebKit/537.36 (KHTML, like Gecko) Chrome/99.0.4844.82 Safari/537.36",1280,720,1263,520,main,2949673,4,9,7,5,HM,Moderate,Harder than Reference,F,k,riskyDeck,safeDeck,14,0,7,right,0,0,39,absent,safeDeck,2676,2026
it1l37kgtyg,13460,27/03/2022@17:34:56,"Mozilla/5.0 (Windows NT 10.0; Win64; x64) AppleWebKit/537.36 (KHTML, like Gecko) Chrome/99.0.4844.82 Safari/537.36",1280,720,1263,520,main,2949673,4,10,7,5,HM,Moderate,Harder than Reference,F,k,riskyDeck,safeDeck,14,0,7,right,0,0,39,absent,safeDeck,2676,3608
it1l37kgtyg,13460,27/03/2022@17:34:56,"Mozilla/5.0 (Windows NT 10.0; Win64; x64) AppleWebKit/537.36 (KHTML, like Gecko) Chrome/99.0.4844.82 Safari/537.36",1280,720,1263,520,main,2949673,4,11,7,5,HM,Moderate,Harder than Reference,F,k,riskyDeck,safeDeck,14,0,7,right,0,1,39,present,safeDeck,2676,7356
it1l37kgtyg,13460,27/03/2022@17:34:56,"Mozilla/5.0 (Windows NT 10.0; Win64; x64) AppleWebKit/537.36 (KHTML, like Gecko) Chrome/99.0.4844.82 Safari/537.36",1280,720,1263,520,main,2949673,4,12,7,5,HM,Moderate,Harder than Reference,F,j,riskyDeck,safeDeck,14,0,7,right,0,0,39,present,safeDeck,2676,4380
it1l37kgtyg,13460,27/03/2022@17:34:56,"Mozilla/5.0 (Windows NT 10.0; Win64; x64) AppleWebKit/537.36 (KHTML, like Gecko) Chrome/99.0.4844.82 Safari/537.36",1280,720,1263,520,main,2949673,4,13,7,6,HM,Moderate,Harder than Reference,F,k,riskyDeck,safeDeck,14,0,7,right,0,0,39,absent,safeDeck,2676,2279
it1l37kgtyg,13460,27/03/2022@17:34:56,"Mozilla/5.0 (Windows NT 10.0; Win64; x64) AppleWebKit/537.36 (KHTML, like Gecko) Chrome/99.0.4844.82 Safari/537.36",1280,720,1263,520,main,2949673,4,14,7,6,HM,Moderate,Harder than Reference,F,k,riskyDeck,safeDeck,14,0,7,right,0,0,39,absent,safeDeck,2676,4628
it1l37kgtyg,13460,27/03/2022@17:34:56,"Mozilla/5.0 (Windows NT 10.0; Win64; x64) AppleWebKit/537.36 (KHTML, like Gecko) Chrome/99.0.4844.82 Safari/537.36",1280,720,1263,520,main,2949673,4,15,8,6,HM,Moderate,Harder than Reference,F,k,riskyDeck,safeDeck,14,0,7,right,0,1,39,present,safeDeck,2676,2638
it1l37kgtyg,13460,27/03/2022@17:34:56,"Mozilla/5.0 (Windows NT 10.0; Win64; x64) AppleWebKit/537.36 (KHTML, like Gecko) Chrome/99.0.4844.82 Safari/537.36",1280,720,1263,520,main,2949673,4,16,8,6,HM,Moderate,Harder than Reference,F,k,riskyDeck,safeDeck,14,0,7,right,0,0,39,absent,safeDeck,2676,5016
it1l37kgtyg,13460,27/03/2022@17:34:56,"Mozilla/5.0 (Windows NT 10.0; Win64; x64) AppleWebKit/537.36 (KHTML, like Gecko) Chrome/99.0.4844.82 Safari/537.36",1280,720,1263,520,main,2949673,4,17,8,6,HM,Moderate,Harder than Reference,F,k,riskyDeck,safeDeck,14,0,7,right,0,1,39,present,safeDeck,2676,3630
it1l37kgtyg,13460,27/03/2022@17:34:56,"Mozilla/5.0 (Windows NT 10.0; Win64; x64) AppleWebKit/537.36 (KHTML, like Gecko) Chrome/99.0.4844.82 Safari/537.36",1280,720,1263,520,main,2949673,5,1,8,6,EM,Moderate,Easier than Reference,D,k,riskyDeck,safeDeck,-28,0,-14,left,1,0,4,absent,riskyDeck,2026,3015
it1l37kgtyg,13460,27/03/2022@17:34:56,"Mozilla/5.0 (Windows NT 10.0; Win64; x64) AppleWebKit/537.36 (KHTML, like Gecko) Chrome/99.0.4844.82 Safari/537.36",1280,720,1263,520,main,2949673,5,2,8,6,EM,Moderate,Easier than Reference,D,k,riskyDeck,safeDeck,-28,0,-14,left,1,0,4,absent,riskyDeck,2026,1082
it1l37kgtyg,13460,27/03/2022@17:34:56,"Mozilla/5.0 (Windows NT 10.0; Win64; x64) AppleWebKit/537.36 (KHTML, like Gecko) Chrome/99.0.4844.82 Safari/537.36",1280,720,1263,520,main,2949673,5,3,8,6,EM,Moderate,Easier than Reference,D,j,riskyDeck,safeDeck,-28,0,-14,left,1,0,4,present,riskyDeck,2026,1338
it1l37kgtyg,13460,27/03/2022@17:34:56,"Mozilla/5.0 (Windows NT 10.0; Win64; x64) AppleWebKit/537.36 (KHTML, like Gecko) Chrome/99.0.4844.82 Safari/537.36",1280,720,1263,520,main,2949673,5,4,8,6,EM,Moderate,Easier than Reference,D,k,riskyDeck,safeDeck,-28,0,-14,left,1,1,4,present,riskyDeck,2026,883
it1l37kgtyg,13460,27/03/2022@17:34:56,"Mozilla/5.0 (Windows NT 10.0; Win64; x64) AppleWebKit/537.36 (KHTML, like Gecko) Chrome/99.0.4844.82 Safari/537.36",1280,720,1263,520,main,2949673,5,5,8,6,EM,Moderate,Easier than Reference,D,k,riskyDeck,safeDeck,-28,0,-14,left,1,0,4,absent,riskyDeck,2026,1209
it1l37kgtyg,13460,27/03/2022@17:34:56,"Mozilla/5.0 (Windows NT 10.0; Win64; x64) AppleWebKit/537.36 (KHTML, like Gecko) Chrome/99.0.4844.82 Safari/537.36",1280,720,1263,520,main,2949673,5,6,8,6,EM,Moderate,Easier than Reference,D,k,riskyDeck,safeDeck,-28,0,-14,left,1,0,4,absent,riskyDeck,2026,1101
it1l37kgtyg,13460,27/03/2022@17:34:56,"Mozilla/5.0 (Windows NT 10.0; Win64; x64) AppleWebKit/537.36 (KHTML, like Gecko) Chrome/99.0.4844.82 Safari/537.36",1280,720,1263,520,main,2949673,5,7,8,6,EM,Moderate,Easier than Reference,D,k,riskyDeck,safeDeck,-28,0,-14,left,1,0,4,absent,riskyDeck,2026,647
it1l37kgtyg,13460,27/03/2022@17:34:56,"Mozilla/5.0 (Windows NT 10.0; Win64; x64) AppleWebKit/537.36 (KHTML, like Gecko) Chrome/99.0.4844.82 Safari/537.36",1280,720,1263,520,main,2949673,5,8,8,6,EM,Moderate,Easier than Reference,D,k,riskyDeck,safeDeck,-28,0,-14,left,1,0,4,absent,riskyDeck,2026,994
it1l37kgtyg,13460,27/03/2022@17:34:56,"Mozilla/5.0 (Windows NT 10.0; Win64; x64) AppleWebKit/537.36 (KHTML, like Gecko) Chrome/99.0.4844.82 Safari/537.36",1280,720,1263,520,main,2949673,5,9,8,6,EM,Moderate,Easier than Reference,D,k,riskyDeck,safeDeck,-28,0,-14,left,1,1,4,present,riskyDeck,2026,515
it1l37kgtyg,13460,27/03/2022@17:34:56,"Mozilla/5.0 (Windows NT 10.0; Win64; x64) AppleWebKit/537.36 (KHTML, like Gecko) Chrome/99.0.4844.82 Safari/537.36",1280,720,1263,520,main,2949673,5,10,8,6,EM,Moderate,Easier than Reference,D,k,riskyDeck,safeDeck,-28,0,-14,left,1,1,4,present,riskyDeck,2026,641
it1l37kgtyg,13460,27/03/2022@17:34:56,"Mozilla/5.0 (Windows NT 10.0; Win64; x64) AppleWebKit/537.36 (KHTML, like Gecko) Chrome/99.0.4844.82 Safari/537.36",1280,720,1263,520,main,2949673,5,11,8,6,EM,Moderate,Easier than Reference,D,k,riskyDeck,safeDeck,-28,0,-14,left,1,0,4,absent,riskyDeck,2026,702
it1l37kgtyg,13460,27/03/2022@17:34:56,"Mozilla/5.0 (Windows NT 10.0; Win64; x64) AppleWebKit/537.36 (KHTML, like Gecko) Chrome/99.0.4844.82 Safari/537.36",1280,720,1263,520,main,2949673,5,12,8,6,EM,Moderate,Easier than Reference,D,j,riskyDeck,safeDeck,-28,0,-14,left,1,0,4,present,riskyDeck,2026,924
it1l37kgtyg,13460,27/03/2022@17:34:56,"Mozilla/5.0 (Windows NT 10.0; Win64; x64) AppleWebKit/537.36 (KHTML, like Gecko) Chrome/99.0.4844.82 Safari/537.36",1280,720,1263,520,main,2949673,5,13,8,6,EM,Moderate,Easier than Reference,D,j,riskyDeck,safeDeck,-28,0,-14,left,1,0,4,present,riskyDeck,2026,972
it1l37kgtyg,13460,27/03/2022@17:34:56,"Mozilla/5.0 (Windows NT 10.0; Win64; x64) AppleWebKit/537.36 (KHTML, like Gecko) Chrome/99.0.4844.82 Safari/537.36",1280,720,1263,520,main,2949673,5,14,8,6,EM,Moderate,Easier than Reference,D,k,riskyDeck,safeDeck,-28,0,-14,left,1,0,4,absent,riskyDeck,2026,1017
it1l37kgtyg,13460,27/03/2022@17:34:56,"Mozilla/5.0 (Windows NT 10.0; Win64; x64) AppleWebKit/537.36 (KHTML, like Gecko) Chrome/99.0.4844.82 Safari/537.36",1280,720,1263,520,main,2949673,5,15,8,6,EM,Moderate,Easier than Reference,D,k,riskyDeck,safeDeck,-28,0,-14,left,1,0,4,absent,riskyDeck,2026,1217
it1l37kgtyg,13460,27/03/2022@17:34:56,"Mozilla/5.0 (Windows NT 10.0; Win64; x64) AppleWebKit/537.36 (KHTML, like Gecko) Chrome/99.0.4844.82 Safari/537.36",1280,720,1263,520,main,2949673,5,16,8,6,EM,Moderate,Easier than Reference,D,j,riskyDeck,safeDeck,-28,0,-14,left,1,0,4,present,riskyDeck,2026,771
it1l37kgtyg,13460,27/03/2022@17:34:56,"Mozilla/5.0 (Windows NT 10.0; Win64; x64) AppleWebKit/537.36 (KHTML, like Gecko) Chrome/99.0.4844.82 Safari/537.36",1280,720,1263,520,main,2949673,5,17,8,6,EM,Moderate,Easier than Reference,D,k,riskyDeck,safeDeck,-28,0,-14,left,1,0,4,absent,riskyDeck,2026,897
it1l37kgtyg,13460,27/03/2022@17:34:56,"Mozilla/5.0 (Windows NT 10.0; Win64; x64) AppleWebKit/537.36 (KHTML, like Gecko) Chrome/99.0.4844.82 Safari/537.36",1280,720,1263,520,main,2949673,6,1,8,7,HM,Moderate,Harder than Reference,F,j,riskyDeck,safeDeck,14,0,7,right,0,0,39,present,safeDeck,3846,2555
it1l37kgtyg,13460,27/03/2022@17:34:56,"Mozilla/5.0 (Windows NT 10.0; Win64; x64) AppleWebKit/537.36 (KHTML, like Gecko) Chrome/99.0.4844.82 Safari/537.36",1280,720,1263,520,main,2949673,6,2,8,7,HM,Moderate,Harder than Reference,F,k,riskyDeck,safeDeck,14,0,7,right,0,0,39,absent,safeDeck,3846,2087
it1l37kgtyg,13460,27/03/2022@17:34:56,"Mozilla/5.0 (Windows NT 10.0; Win64; x64) AppleWebKit/537.36 (KHTML, like Gecko) Chrome/99.0.4844.82 Safari/537.36",1280,720,1263,520,main,2949673,6,3,9,7,HM,Moderate,Harder than Reference,F,k,riskyDeck,safeDeck,14,0,7,right,0,0,39,absent,safeDeck,3846,3198
it1l37kgtyg,13460,27/03/2022@17:34:56,"Mozilla/5.0 (Windows NT 10.0; Win64; x64) AppleWebKit/537.36 (KHTML, like Gecko) Chrome/99.0.4844.82 Safari/537.36",1280,720,1263,520,main,2949673,6,4,9,7,HM,Moderate,Harder than Reference,F,k,riskyDeck,safeDeck,14,0,7,right,0,1,39,present,safeDeck,3846,3432
it1l37kgtyg,13460,27/03/2022@17:34:56,"Mozilla/5.0 (Windows NT 10.0; Win64; x64) AppleWebKit/537.36 (KHTML, like Gecko) Chrome/99.0.4844.82 Safari/537.36",1280,720,1263,520,main,2949673,6,5,9,7,HM,Moderate,Harder than Reference,F,j,riskyDeck,safeDeck,14,0,7,right,0,0,39,present,safeDeck,3846,2074
it1l37kgtyg,13460,27/03/2022@17:34:56,"Mozilla/5.0 (Windows NT 10.0; Win64; x64) AppleWebKit/537.36 (KHTML, like Gecko) Chrome/99.0.4844.82 Safari/537.36",1280,720,1263,520,main,2949673,6,6,9,7,HM,Moderate,Harder than Reference,F,k,riskyDeck,safeDeck,14,0,7,right,0,1,39,present,safeDeck,3846,4619
it1l37kgtyg,13460,27/03/2022@17:34:56,"Mozilla/5.0 (Windows NT 10.0; Win64; x64) AppleWebKit/537.36 (KHTML, like Gecko) Chrome/99.0.4844.82 Safari/537.36",1280,720,1263,520,main,2949673,6,7,9,7,HM,Moderate,Harder than Reference,F,k,riskyDeck,safeDeck,14,0,7,right,0,1,39,present,safeDeck,3846,3043
it1l37kgtyg,13460,27/03/2022@17:34:56,"Mozilla/5.0 (Windows NT 10.0; Win64; x64) AppleWebKit/537.36 (KHTML, like Gecko) Chrome/99.0.4844.82 Safari/537.36",1280,720,1263,520,main,2949673,6,8,9,7,HM,Moderate,Harder than Reference,F,k,riskyDeck,safeDeck,14,0,7,right,0,1,39,present,safeDeck,3846,541
it1l37kgtyg,13460,27/03/2022@17:34:56,"Mozilla/5.0 (Windows NT 10.0; Win64; x64) AppleWebKit/537.36 (KHTML, like Gecko) Chrome/99.0.4844.82 Safari/537.36",1280,720,1263,520,main,2949673,6,9,9,7,HM,Moderate,Harder than Reference,F,j,riskyDeck,safeDeck,14,0,7,right,0,0,39,present,safeDeck,3846,1124
it1l37kgtyg,13460,27/03/2022@17:34:56,"Mozilla/5.0 (Windows NT 10.0; Win64; x64) AppleWebKit/537.36 (KHTML, like Gecko) Chrome/99.0.4844.82 Safari/537.36",1280,720,1263,520,main,2949673,6,10,9,7,HM,Moderate,Harder than Reference,F,k,riskyDeck,safeDeck,14,0,7,right,0,0,39,absent,safeDeck,3846,2423
it1l37kgtyg,13460,27/03/2022@17:34:56,"Mozilla/5.0 (Windows NT 10.0; Win64; x64) AppleWebKit/537.36 (KHTML, like Gecko) Chrome/99.0.4844.82 Safari/537.36",1280,720,1263,520,main,2949673,6,11,9,7,HM,Moderate,Harder than Reference,F,k,riskyDeck,safeDeck,14,0,7,right,0,0,39,absent,safeDeck,3846,2421
it1l37kgtyg,13460,27/03/2022@17:34:56,"Mozilla/5.0 (Windows NT 10.0; Win64; x64) AppleWebKit/537.36 (KHTML, like Gecko) Chrome/99.0.4844.82 Safari/537.36",1280,720,1263,520,main,2949673,6,12,9,7,HM,Moderate,Harder than Reference,F,j,riskyDeck,safeDeck,14,0,7,right,0,0,39,present,safeDeck,3846,1047
it1l37kgtyg,13460,27/03/2022@17:34:56,"Mozilla/5.0 (Windows NT 10.0; Win64; x64) AppleWebKit/537.36 (KHTML, like Gecko) Chrome/99.0.4844.82 Safari/537.36",1280,720,1263,520,main,2949673,6,13,9,7,HM,Moderate,Harder than Reference,F,k,riskyDeck,safeDeck,14,0,7,right,0,1,39,present,safeDeck,3846,2294
it1l37kgtyg,13460,27/03/2022@17:34:56,"Mozilla/5.0 (Windows NT 10.0; Win64; x64) AppleWebKit/537.36 (KHTML, like Gecko) Chrome/99.0.4844.82 Safari/537.36",1280,720,1263,520,main,2949673,6,14,9,7,HM,Moderate,Harder than Reference,F,j,riskyDeck,safeDeck,14,0,7,right,0,0,39,present,safeDeck,3846,2554
it1l37kgtyg,13460,27/03/2022@17:34:56,"Mozilla/5.0 (Windows NT 10.0; Win64; x64) AppleWebKit/537.36 (KHTML, like Gecko) Chrome/99.0.4844.82 Safari/537.36",1280,720,1263,520,main,2949673,6,15,9,7,HM,Moderate,Harder than Reference,F,j,riskyDeck,safeDeck,14,0,7,right,0,1,39,absent,safeDeck,3846,4592
it1l37kgtyg,13460,27/03/2022@17:34:56,"Mozilla/5.0 (Windows NT 10.0; Win64; x64) AppleWebKit/537.36 (KHTML, like Gecko) Chrome/99.0.4844.82 Safari/537.36",1280,720,1263,520,main,2949673,6,16,9,8,HM,Moderate,Harder than Reference,F,k,riskyDeck,safeDeck,14,0,7,right,0,1,39,present,safeDeck,3846,8231
it1l37kgtyg,13460,27/03/2022@17:34:56,"Mozilla/5.0 (Windows NT 10.0; Win64; x64) AppleWebKit/537.36 (KHTML, like Gecko) Chrome/99.0.4844.82 Safari/537.36",1280,720,1263,520,main,2949673,6,17,10,8,HM,Moderate,Harder than Reference,F,j,riskyDeck,safeDeck,14,0,7,right,0,0,39,present,safeDeck,3846,1224
it1l37kgtyg,13460,27/03/2022@17:34:56,"Mozilla/5.0 (Windows NT 10.0; Win64; x64) AppleWebKit/537.36 (KHTML, like Gecko) Chrome/99.0.4844.82 Safari/537.36",1280,720,1263,520,main,2949673,7,1,10,8,HE,Extreme,Harder than Reference,D,k,safeDeck,riskyDeck,28,0,14,left,0,0,46,absent,safeDeck,1553,16794
it1l37kgtyg,13460,27/03/2022@17:34:56,"Mozilla/5.0 (Windows NT 10.0; Win64; x64) AppleWebKit/537.36 (KHTML, like Gecko) Chrome/99.0.4844.82 Safari/537.36",1280,720,1263,520,main,2949673,7,2,10,8,HE,Extreme,Harder than Reference,D,k,safeDeck,riskyDeck,28,0,14,left,0,1,46,present,safeDeck,1553,771
it1l37kgtyg,13460,27/03/2022@17:34:56,"Mozilla/5.0 (Windows NT 10.0; Win64; x64) AppleWebKit/537.36 (KHTML, like Gecko) Chrome/99.0.4844.82 Safari/537.36",1280,720,1263,520,main,2949673,7,3,10,8,HE,Extreme,Harder than Reference,D,k,safeDeck,riskyDeck,28,0,14,left,0,1,46,present,safeDeck,1553,7142
it1l37kgtyg,13460,27/03/2022@17:34:56,"Mozilla/5.0 (Windows NT 10.0; Win64; x64) AppleWebKit/537.36 (KHTML, like Gecko) Chrome/99.0.4844.82 Safari/537.36",1280,720,1263,520,main,2949673,7,4,10,8,HE,Extreme,Harder than Reference,D,k,safeDeck,riskyDeck,28,0,14,left,0,1,46,present,safeDeck,1553,5424
it1l37kgtyg,13460,27/03/2022@17:34:56,"Mozilla/5.0 (Windows NT 10.0; Win64; x64) AppleWebKit/537.36 (KHTML, like Gecko) Chrome/99.0.4844.82 Safari/537.36",1280,720,1263,520,main,2949673,7,5,12,10,HE,Extreme,Harder than Reference,D,k,safeDeck,riskyDeck,28,0,14,left,0,0,46,absent,safeDeck,1553,113857
it1l37kgtyg,13460,27/03/2022@17:34:56,"Mozilla/5.0 (Windows NT 10.0; Win64; x64) AppleWebKit/537.36 (KHTML, like Gecko) Chrome/99.0.4844.82 Safari/537.36",1280,720,1263,520,main,2949673,7,6,13,11,HE,Extreme,Harder than Reference,D,k,safeDeck,riskyDeck,28,0,14,left,0,1,46,present,safeDeck,1553,32800
it1l37kgtyg,13460,27/03/2022@17:34:56,"Mozilla/5.0 (Windows NT 10.0; Win64; x64) AppleWebKit/537.36 (KHTML, like Gecko) Chrome/99.0.4844.82 Safari/537.36",1280,720,1263,520,main,2949673,7,7,13,11,HE,Extreme,Harder than Reference,D,k,safeDeck,riskyDeck,28,0,14,left,0,1,46,present,safeDeck,1553,1614
it1l37kgtyg,13460,27/03/2022@17:34:56,"Mozilla/5.0 (Windows NT 10.0; Win64; x64) AppleWebKit/537.36 (KHTML, like Gecko) Chrome/99.0.4844.82 Safari/537.36",1280,720,1263,520,main,2949673,7,8,13,11,HE,Extreme,Harder than Reference,D,k,safeDeck,riskyDeck,28,0,14,left,0,1,46,present,safeDeck,1553,1188
it1l37kgtyg,13460,27/03/2022@17:34:56,"Mozilla/5.0 (Windows NT 10.0; Win64; x64) AppleWebKit/537.36 (KHTML, like Gecko) Chrome/99.0.4844.82 Safari/537.36",1280,720,1263,520,main,2949673,7,9,13,11,HE,Extreme,Harder than Reference,D,j,safeDeck,riskyDeck,28,0,14,left,0,0,46,present,safeDeck,1553,2106
it1l37kgtyg,13460,27/03/2022@17:34:56,"Mozilla/5.0 (Windows NT 10.0; Win64; x64) AppleWebKit/537.36 (KHTML, like Gecko) Chrome/99.0.4844.82 Safari/537.36",1280,720,1263,520,main,2949673,7,10,13,11,HE,Extreme,Harder than Reference,D,k,safeDeck,riskyDeck,28,0,14,left,0,0,46,absent,safeDeck,1553,3560
it1l37kgtyg,13460,27/03/2022@17:34:56,"Mozilla/5.0 (Windows NT 10.0; Win64; x64) AppleWebKit/537.36 (KHTML, like Gecko) Chrome/99.0.4844.82 Safari/537.36",1280,720,1263,520,main,2949673,7,11,13,11,HE,Extreme,Harder than Reference,D,k,safeDeck,riskyDeck,28,0,14,left,0,0,46,absent,safeDeck,1553,1165
it1l37kgtyg,13460,27/03/2022@17:34:56,"Mozilla/5.0 (Windows NT 10.0; Win64; x64) AppleWebKit/537.36 (KHTML, like Gecko) Chrome/99.0.4844.82 Safari/537.36",1280,720,1263,520,main,2949673,7,12,13,11,HE,Extreme,Harder than Reference,D,k,safeDeck,riskyDeck,28,0,14,left,0,1,46,present,safeDeck,1553,2998
it1l37kgtyg,13460,27/03/2022@17:34:56,"Mozilla/5.0 (Windows NT 10.0; Win64; x64) AppleWebKit/537.36 (KHTML, like Gecko) Chrome/99.0.4844.82 Safari/537.36",1280,720,1263,520,main,2949673,7,13,13,11,HE,Extreme,Harder than Reference,D,j,safeDeck,riskyDeck,28,0,14,left,0,0,46,present,safeDeck,1553,2116
it1l37kgtyg,13460,27/03/2022@17:34:56,"Mozilla/5.0 (Windows NT 10.0; Win64; x64) AppleWebKit/537.36 (KHTML, like Gecko) Chrome/99.0.4844.82 Safari/537.36",1280,720,1263,520,main,2949673,7,14,13,11,HE,Extreme,Harder than Reference,D,j,safeDeck,riskyDeck,28,0,14,left,0,0,46,present,safeDeck,1553,966
it1l37kgtyg,13460,27/03/2022@17:34:56,"Mozilla/5.0 (Windows NT 10.0; Win64; x64) AppleWebKit/537.36 (KHTML, like Gecko) Chrome/99.0.4844.82 Safari/537.36",1280,720,1263,520,main,2949673,7,15,13,11,HE,Extreme,Harder than Reference,D,k,safeDeck,riskyDeck,28,0,14,left,0,0,46,absent,safeDeck,1553,2524
it1l37kgtyg,13460,27/03/2022@17:34:56,"Mozilla/5.0 (Windows NT 10.0; Win64; x64) AppleWebKit/537.36 (KHTML, like Gecko) Chrome/99.0.4844.82 Safari/537.36",1280,720,1263,520,main,2949673,7,16,13,11,HE,Extreme,Harder than Reference,D,k,safeDeck,riskyDeck,28,0,14,left,0,0,46,absent,safeDeck,1553,2989
it1l37kgtyg,13460,27/03/2022@17:34:56,"Mozilla/5.0 (Windows NT 10.0; Win64; x64) AppleWebKit/537.36 (KHTML, like Gecko) Chrome/99.0.4844.82 Safari/537.36",1280,720,1263,520,main,2949673,7,17,13,11,HE,Extreme,Harder than Reference,D,k,safeDeck,riskyDeck,28,0,14,left,0,0,46,absent,safeDeck,1553,2534
it1l37kgtyg,13460,27/03/2022@17:34:56,"Mozilla/5.0 (Windows NT 10.0; Win64; x64) AppleWebKit/537.36 (KHTML, like Gecko) Chrome/99.0.4844.82 Safari/537.36",1280,720,1263,520,main,2949673,8,1,13,11,EE,Extreme,Easier than Reference,F,j,riskyDeck,safeDeck,-14,0,-7,right,0,0,25,present,safeDeck,3460,2088
it1l37kgtyg,13460,27/03/2022@17:34:56,"Mozilla/5.0 (Windows NT 10.0; Win64; x64) AppleWebKit/537.36 (KHTML, like Gecko) Chrome/99.0.4844.82 Safari/537.36",1280,720,1263,520,main,2949673,8,2,13,12,EE,Extreme,Easier than Reference,F,k,riskyDeck,safeDeck,-14,0,-7,right,0,0,25,absent,safeDeck,3460,1733
it1l37kgtyg,13460,27/03/2022@17:34:56,"Mozilla/5.0 (Windows NT 10.0; Win64; x64) AppleWebKit/537.36 (KHTML, like Gecko) Chrome/99.0.4844.82 Safari/537.36",1280,720,1263,520,main,2949673,8,3,13,12,EE,Extreme,Easier than Reference,F,k,riskyDeck,safeDeck,-14,0,-7,right,0,0,25,absent,safeDeck,3460,2357
it1l37kgtyg,13460,27/03/2022@17:34:56,"Mozilla/5.0 (Windows NT 10.0; Win64; x64) AppleWebKit/537.36 (KHTML, like Gecko) Chrome/99.0.4844.82 Safari/537.36",1280,720,1263,520,main,2949673,8,4,14,12,EE,Extreme,Easier than Reference,F,k,riskyDeck,safeDeck,-14,0,-7,right,0,0,25,absent,safeDeck,3460,3840
it1l37kgtyg,13460,27/03/2022@17:34:56,"Mozilla/5.0 (Windows NT 10.0; Win64; x64) AppleWebKit/537.36 (KHTML, like Gecko) Chrome/99.0.4844.82 Safari/537.36",1280,720,1263,520,main,2949673,8,5,14,12,EE,Extreme,Easier than Reference,F,j,riskyDeck,safeDeck,-14,0,-7,right,0,0,25,present,safeDeck,3460,586
it1l37kgtyg,13460,27/03/2022@17:34:56,"Mozilla/5.0 (Windows NT 10.0; Win64; x64) AppleWebKit/537.36 (KHTML, like Gecko) Chrome/99.0.4844.82 Safari/537.36",1280,720,1263,520,main,2949673,8,6,14,12,EE,Extreme,Easier than Reference,F,k,riskyDeck,safeDeck,-14,0,-7,right,0,0,25,absent,safeDeck,3460,1455
it1l37kgtyg,13460,27/03/2022@17:34:56,"Mozilla/5.0 (Windows NT 10.0; Win64; x64) AppleWebKit/537.36 (KHTML, like Gecko) Chrome/99.0.4844.82 Safari/537.36",1280,720,1263,520,main,2949673,8,7,14,12,EE,Extreme,Easier than Reference,F,j,riskyDeck,safeDeck,-14,0,-7,right,0,0,25,present,safeDeck,3460,1398
it1l37kgtyg,13460,27/03/2022@17:34:56,"Mozilla/5.0 (Windows NT 10.0; Win64; x64) AppleWebKit/537.36 (KHTML, like Gecko) Chrome/99.0.4844.82 Safari/537.36",1280,720,1263,520,main,2949673,8,8,14,12,EE,Extreme,Easier than Reference,F,k,riskyDeck,safeDeck,-14,0,-7,right,0,1,25,present,safeDeck,3460,2499
it1l37kgtyg,13460,27/03/2022@17:34:56,"Mozilla/5.0 (Windows NT 10.0; Win64; x64) AppleWebKit/537.36 (KHTML, like Gecko) Chrome/99.0.4844.82 Safari/537.36",1280,720,1263,520,main,2949673,8,9,14,12,EE,Extreme,Easier than Reference,F,j,riskyDeck,safeDeck,-14,0,-7,right,0,0,25,present,safeDeck,3460,1006
it1l37kgtyg,13460,27/03/2022@17:34:56,"Mozilla/5.0 (Windows NT 10.0; Win64; x64) AppleWebKit/537.36 (KHTML, like Gecko) Chrome/99.0.4844.82 Safari/537.36",1280,720,1263,520,main,2949673,8,10,14,12,EE,Extreme,Easier than Reference,F,k,riskyDeck,safeDeck,-14,0,-7,right,0,0,25,absent,safeDeck,3460,3518
it1l37kgtyg,13460,27/03/2022@17:34:56,"Mozilla/5.0 (Windows NT 10.0; Win64; x64) AppleWebKit/537.36 (KHTML, like Gecko) Chrome/99.0.4844.82 Safari/537.36",1280,720,1263,520,main,2949673,8,11,14,12,EE,Extreme,Easier than Reference,F,k,riskyDeck,safeDeck,-14,0,-7,right,0,0,25,absent,safeDeck,3460,1660
it1l37kgtyg,13460,27/03/2022@17:34:56,"Mozilla/5.0 (Windows NT 10.0; Win64; x64) AppleWebKit/537.36 (KHTML, like Gecko) Chrome/99.0.4844.82 Safari/537.36",1280,720,1263,520,main,2949673,8,12,14,12,EE,Extreme,Easier than Reference,F,k,riskyDeck,safeDeck,-14,0,-7,right,0,1,25,present,safeDeck,3460,1411
it1l37kgtyg,13460,27/03/2022@17:34:56,"Mozilla/5.0 (Windows NT 10.0; Win64; x64) AppleWebKit/537.36 (KHTML, like Gecko) Chrome/99.0.4844.82 Safari/537.36",1280,720,1263,520,main,2949673,8,13,14,12,EE,Extreme,Easier than Reference,F,k,riskyDeck,safeDeck,-14,0,-7,right,0,1,25,present,safeDeck,3460,1350
it1l37kgtyg,13460,27/03/2022@17:34:56,"Mozilla/5.0 (Windows NT 10.0; Win64; x64) AppleWebKit/537.36 (KHTML, like Gecko) Chrome/99.0.4844.82 Safari/537.36",1280,720,1263,520,main,2949673,8,14,14,12,EE,Extreme,Easier than Reference,F,k,riskyDeck,safeDeck,-14,0,-7,right,0,0,25,absent,safeDeck,3460,1961
it1l37kgtyg,13460,27/03/2022@17:34:56,"Mozilla/5.0 (Windows NT 10.0; Win64; x64) AppleWebKit/537.36 (KHTML, like Gecko) Chrome/99.0.4844.82 Safari/537.36",1280,720,1263,520,main,2949673,8,15,14,12,EE,Extreme,Easier than Reference,F,k,riskyDeck,safeDeck,-14,0,-7,right,0,0,25,absent,safeDeck,3460,1213
it1l37kgtyg,13460,27/03/2022@17:34:56,"Mozilla/5.0 (Windows NT 10.0; Win64; x64) AppleWebKit/537.36 (KHTML, like Gecko) Chrome/99.0.4844.82 Safari/537.36",1280,720,1263,520,main,2949673,8,16,14,12,EE,Extreme,Easier than Reference,F,k,riskyDeck,safeDeck,-14,0,-7,right,0,0,25,absent,safeDeck,3460,1678
it1l37kgtyg,13460,27/03/2022@17:34:56,"Mozilla/5.0 (Windows NT 10.0; Win64; x64) AppleWebKit/537.36 (KHTML, like Gecko) Chrome/99.0.4844.82 Safari/537.36",1280,720,1263,520,main,2949673,8,17,14,12,EE,Extreme,Easier than Reference,F,k,riskyDeck,safeDeck,-14,0,-7,right,0,1,25,present,safeDeck,3460,1445
it1l37kgtyg,13460,27/03/2022@17:34:56,"Mozilla/5.0 (Windows NT 10.0; Win64; x64) AppleWebKit/537.36 (KHTML, like Gecko) Chrome/99.0.4844.82 Safari/537.36",1280,720,1263,520,main,2949673,9,1,14,13,HM,Moderate,Harder than Reference,D,k,riskyDeck,safeDeck,14,0,7,left,1,1,46,present,riskyDeck,14866,3738
it1l37kgtyg,13460,27/03/2022@17:34:56,"Mozilla/5.0 (Windows NT 10.0; Win64; x64) AppleWebKit/537.36 (KHTML, like Gecko) Chrome/99.0.4844.82 Safari/537.36",1280,720,1263,520,main,2949673,9,2,15,13,HM,Moderate,Harder than Reference,D,k,riskyDeck,safeDeck,14,0,7,left,1,0,46,absent,riskyDeck,14866,13325
it1l37kgtyg,13460,27/03/2022@17:34:56,"Mozilla/5.0 (Windows NT 10.0; Win64; x64) AppleWebKit/537.36 (KHTML, like Gecko) Chrome/99.0.4844.82 Safari/537.36",1280,720,1263,520,main,2949673,9,3,15,13,HM,Moderate,Harder than Reference,D,j,riskyDeck,safeDeck,14,0,7,left,1,0,46,present,riskyDeck,14866,1278
it1l37kgtyg,13460,27/03/2022@17:34:56,"Mozilla/5.0 (Windows NT 10.0; Win64; x64) AppleWebKit/537.36 (KHTML, like Gecko) Chrome/99.0.4844.82 Safari/537.36",1280,720,1263,520,main,2949673,9,4,15,13,HM,Moderate,Harder than Reference,D,k,riskyDeck,safeDeck,14,0,7,left,1,0,46,absent,riskyDeck,14866,1885
it1l37kgtyg,13460,27/03/2022@17:34:56,"Mozilla/5.0 (Windows NT 10.0; Win64; x64) AppleWebKit/537.36 (KHTML, like Gecko) Chrome/99.0.4844.82 Safari/537.36",1280,720,1263,520,main,2949673,9,5,15,13,HM,Moderate,Harder than Reference,D,k,riskyDeck,safeDeck,14,0,7,left,1,0,46,absent,riskyDeck,14866,2437
it1l37kgtyg,13460,27/03/2022@17:34:56,"Mozilla/5.0 (Windows NT 10.0; Win64; x64) AppleWebKit/537.36 (KHTML, like Gecko) Chrome/99.0.4844.82 Safari/537.36",1280,720,1263,520,main,2949673,9,6,15,13,HM,Moderate,Harder than Reference,D,k,riskyDeck,safeDeck,14,0,7,left,1,0,46,absent,riskyDeck,14866,1665
it1l37kgtyg,13460,27/03/2022@17:34:56,"Mozilla/5.0 (Windows NT 10.0; Win64; x64) AppleWebKit/537.36 (KHTML, like Gecko) Chrome/99.0.4844.82 Safari/537.36",1280,720,1263,520,main,2949673,9,7,15,13,HM,Moderate,Harder than Reference,D,k,riskyDeck,safeDeck,14,0,7,left,1,0,46,absent,riskyDeck,14866,1864
it1l37kgtyg,13460,27/03/2022@17:34:56,"Mozilla/5.0 (Windows NT 10.0; Win64; x64) AppleWebKit/537.36 (KHTML, like Gecko) Chrome/99.0.4844.82 Safari/537.36",1280,720,1263,520,main,2949673,9,8,15,13,HM,Moderate,Harder than Reference,D,k,riskyDeck,safeDeck,14,0,7,left,1,0,46,absent,riskyDeck,14866,2209
it1l37kgtyg,13460,27/03/2022@17:34:56,"Mozilla/5.0 (Windows NT 10.0; Win64; x64) AppleWebKit/537.36 (KHTML, like Gecko) Chrome/99.0.4844.82 Safari/537.36",1280,720,1263,520,main,2949673,9,9,15,13,HM,Moderate,Harder than Reference,D,j,riskyDeck,safeDeck,14,0,7,left,1,0,46,present,riskyDeck,14866,3193
it1l37kgtyg,13460,27/03/2022@17:34:56,"Mozilla/5.0 (Windows NT 10.0; Win64; x64) AppleWebKit/537.36 (KHTML, like Gecko) Chrome/99.0.4844.82 Safari/537.36",1280,720,1263,520,main,2949673,9,10,15,13,HM,Moderate,Harder than Reference,D,j,riskyDeck,safeDeck,14,0,7,left,1,0,46,present,riskyDeck,14866,3683
it1l37kgtyg,13460,27/03/2022@17:34:56,"Mozilla/5.0 (Windows NT 10.0; Win64; x64) AppleWebKit/537.36 (KHTML, like Gecko) Chrome/99.0.4844.82 Safari/537.36",1280,720,1263,520,main,2949673,9,11,15,13,HM,Moderate,Harder than Reference,D,k,riskyDeck,safeDeck,14,0,7,left,1,0,46,absent,riskyDeck,14866,2853
it1l37kgtyg,13460,27/03/2022@17:34:56,"Mozilla/5.0 (Windows NT 10.0; Win64; x64) AppleWebKit/537.36 (KHTML, like Gecko) Chrome/99.0.4844.82 Safari/537.36",1280,720,1263,520,main,2949673,9,12,15,13,HM,Moderate,Harder than Reference,D,k,riskyDeck,safeDeck,14,0,7,left,1,0,46,absent,riskyDeck,14866,4547
it1l37kgtyg,13460,27/03/2022@17:34:56,"Mozilla/5.0 (Windows NT 10.0; Win64; x64) AppleWebKit/537.36 (KHTML, like Gecko) Chrome/99.0.4844.82 Safari/537.36",1280,720,1263,520,main,2949673,9,13,15,13,HM,Moderate,Harder than Reference,D,k,riskyDeck,safeDeck,14,0,7,left,1,0,46,absent,riskyDeck,14866,2899
it1l37kgtyg,13460,27/03/2022@17:34:56,"Mozilla/5.0 (Windows NT 10.0; Win64; x64) AppleWebKit/537.36 (KHTML, like Gecko) Chrome/99.0.4844.82 Safari/537.36",1280,720,1263,520,main,2949673,9,14,15,13,HM,Moderate,Harder than Reference,D,k,riskyDeck,safeDeck,14,0,7,left,1,1,46,present,riskyDeck,14866,3201
it1l37kgtyg,13460,27/03/2022@17:34:56,"Mozilla/5.0 (Windows NT 10.0; Win64; x64) AppleWebKit/537.36 (KHTML, like Gecko) Chrome/99.0.4844.82 Safari/537.36",1280,720,1263,520,main,2949673,9,15,15,13,HM,Moderate,Harder than Reference,D,k,riskyDeck,safeDeck,14,0,7,left,1,0,46,absent,riskyDeck,14866,2394
it1l37kgtyg,13460,27/03/2022@17:34:56,"Mozilla/5.0 (Windows NT 10.0; Win64; x64) AppleWebKit/537.36 (KHTML, like Gecko) Chrome/99.0.4844.82 Safari/537.36",1280,720,1263,520,main,2949673,9,16,15,13,HM,Moderate,Harder than Reference,D,j,riskyDeck,safeDeck,14,0,7,left,1,0,46,present,riskyDeck,14866,1212
it1l37kgtyg,13460,27/03/2022@17:34:56,"Mozilla/5.0 (Windows NT 10.0; Win64; x64) AppleWebKit/537.36 (KHTML, like Gecko) Chrome/99.0.4844.82 Safari/537.36",1280,720,1263,520,main,2949673,9,17,15,14,HM,Moderate,Harder than Reference,D,j,riskyDeck,safeDeck,14,0,7,left,1,0,46,present,riskyDeck,14866,1379
it1l37kgtyg,13460,27/03/2022@17:34:56,"Mozilla/5.0 (Windows NT 10.0; Win64; x64) AppleWebKit/537.36 (KHTML, like Gecko) Chrome/99.0.4844.82 Safari/537.36",1280,720,1263,520,main,2949673,10,1,15,14,EM,Moderate,Easier than Reference,D,k,riskyDeck,safeDeck,-28,0,-14,left,1,0,4,absent,riskyDeck,1873,1162
it1l37kgtyg,13460,27/03/2022@17:34:56,"Mozilla/5.0 (Windows NT 10.0; Win64; x64) AppleWebKit/537.36 (KHTML, like Gecko) Chrome/99.0.4844.82 Safari/537.36",1280,720,1263,520,main,2949673,10,2,15,14,EM,Moderate,Easier than Reference,D,j,riskyDeck,safeDeck,-28,0,-14,left,1,0,4,present,riskyDeck,1873,734
it1l37kgtyg,13460,27/03/2022@17:34:56,"Mozilla/5.0 (Windows NT 10.0; Win64; x64) AppleWebKit/537.36 (KHTML, like Gecko) Chrome/99.0.4844.82 Safari/537.36",1280,720,1263,520,main,2949673,10,3,16,14,EM,Moderate,Easier than Reference,D,j,riskyDeck,safeDeck,-28,0,-14,left,1,0,4,present,riskyDeck,1873,610
it1l37kgtyg,13460,27/03/2022@17:34:56,"Mozilla/5.0 (Windows NT 10.0; Win64; x64) AppleWebKit/537.36 (KHTML, like Gecko) Chrome/99.0.4844.82 Safari/537.36",1280,720,1263,520,main,2949673,10,4,16,14,EM,Moderate,Easier than Reference,D,j,riskyDeck,safeDeck,-28,0,-14,left,1,0,4,present,riskyDeck,1873,593
it1l37kgtyg,13460,27/03/2022@17:34:56,"Mozilla/5.0 (Windows NT 10.0; Win64; x64) AppleWebKit/537.36 (KHTML, like Gecko) Chrome/99.0.4844.82 Safari/537.36",1280,720,1263,520,main,2949673,10,5,16,14,EM,Moderate,Easier than Reference,D,k,riskyDeck,safeDeck,-28,0,-14,left,1,0,4,absent,riskyDeck,1873,887
it1l37kgtyg,13460,27/03/2022@17:34:56,"Mozilla/5.0 (Windows NT 10.0; Win64; x64) AppleWebKit/537.36 (KHTML, like Gecko) Chrome/99.0.4844.82 Safari/537.36",1280,720,1263,520,main,2949673,10,6,16,14,EM,Moderate,Easier than Reference,D,j,riskyDeck,safeDeck,-28,0,-14,left,1,0,4,present,riskyDeck,1873,956
it1l37kgtyg,13460,27/03/2022@17:34:56,"Mozilla/5.0 (Windows NT 10.0; Win64; x64) AppleWebKit/537.36 (KHTML, like Gecko) Chrome/99.0.4844.82 Safari/537.36",1280,720,1263,520,main,2949673,10,7,16,14,EM,Moderate,Easier than Reference,D,j,riskyDeck,safeDeck,-28,0,-14,left,1,0,4,present,riskyDeck,1873,616
it1l37kgtyg,13460,27/03/2022@17:34:56,"Mozilla/5.0 (Windows NT 10.0; Win64; x64) AppleWebKit/537.36 (KHTML, like Gecko) Chrome/99.0.4844.82 Safari/537.36",1280,720,1263,520,main,2949673,10,8,16,14,EM,Moderate,Easier than Reference,D,j,riskyDeck,safeDeck,-28,0,-14,left,1,0,4,present,riskyDeck,1873,589
it1l37kgtyg,13460,27/03/2022@17:34:56,"Mozilla/5.0 (Windows NT 10.0; Win64; x64) AppleWebKit/537.36 (KHTML, like Gecko) Chrome/99.0.4844.82 Safari/537.36",1280,720,1263,520,main,2949673,10,9,16,14,EM,Moderate,Easier than Reference,D,k,riskyDeck,safeDeck,-28,0,-14,left,1,0,4,absent,riskyDeck,1873,852
it1l37kgtyg,13460,27/03/2022@17:34:56,"Mozilla/5.0 (Windows NT 10.0; Win64; x64) AppleWebKit/537.36 (KHTML, like Gecko) Chrome/99.0.4844.82 Safari/537.36",1280,720,1263,520,main,2949673,10,10,16,14,EM,Moderate,Easier than Reference,D,k,riskyDeck,safeDeck,-28,0,-14,left,1,0,4,absent,riskyDeck,1873,897
it1l37kgtyg,13460,27/03/2022@17:34:56,"Mozilla/5.0 (Windows NT 10.0; Win64; x64) AppleWebKit/537.36 (KHTML, like Gecko) Chrome/99.0.4844.82 Safari/537.36",1280,720,1263,520,main,2949673,10,11,16,14,EM,Moderate,Easier than Reference,D,k,riskyDeck,safeDeck,-28,0,-14,left,1,0,4,absent,riskyDeck,1873,831
it1l37kgtyg,13460,27/03/2022@17:34:56,"Mozilla/5.0 (Windows NT 10.0; Win64; x64) AppleWebKit/537.36 (KHTML, like Gecko) Chrome/99.0.4844.82 Safari/537.36",1280,720,1263,520,main,2949673,10,12,16,14,EM,Moderate,Easier than Reference,D,k,riskyDeck,safeDeck,-28,0,-14,left,1,1,4,present,riskyDeck,1873,914
it1l37kgtyg,13460,27/03/2022@17:34:56,"Mozilla/5.0 (Windows NT 10.0; Win64; x64) AppleWebKit/537.36 (KHTML, like Gecko) Chrome/99.0.4844.82 Safari/537.36",1280,720,1263,520,main,2949673,10,13,16,14,EM,Moderate,Easier than Reference,D,j,riskyDeck,safeDeck,-28,0,-14,left,1,0,4,present,riskyDeck,1873,622
it1l37kgtyg,13460,27/03/2022@17:34:56,"Mozilla/5.0 (Windows NT 10.0; Win64; x64) AppleWebKit/537.36 (KHTML, like Gecko) Chrome/99.0.4844.82 Safari/537.36",1280,720,1263,520,main,2949673,10,14,16,14,EM,Moderate,Easier than Reference,D,k,riskyDeck,safeDeck,-28,0,-14,left,1,0,4,absent,riskyDeck,1873,761
it1l37kgtyg,13460,27/03/2022@17:34:56,"Mozilla/5.0 (Windows NT 10.0; Win64; x64) AppleWebKit/537.36 (KHTML, like Gecko) Chrome/99.0.4844.82 Safari/537.36",1280,720,1263,520,main,2949673,10,15,16,14,EM,Moderate,Easier than Reference,D,j,riskyDeck,safeDeck,-28,0,-14,left,1,0,4,present,riskyDeck,1873,772
it1l37kgtyg,13460,27/03/2022@17:34:56,"Mozilla/5.0 (Windows NT 10.0; Win64; x64) AppleWebKit/537.36 (KHTML, like Gecko) Chrome/99.0.4844.82 Safari/537.36",1280,720,1263,520,main,2949673,10,16,16,14,EM,Moderate,Easier than Reference,D,j,riskyDeck,safeDeck,-28,0,-14,left,1,0,4,present,riskyDeck,1873,872
it1l37kgtyg,13460,27/03/2022@17:34:56,"Mozilla/5.0 (Windows NT 10.0; Win64; x64) AppleWebKit/537.36 (KHTML, like Gecko) Chrome/99.0.4844.82 Safari/537.36",1280,720,1263,520,main,2949673,10,17,16,14,EM,Moderate,Easier than Reference,D,k,riskyDeck,safeDeck,-28,0,-14,left,1,0,4,absent,riskyDeck,1873,792
it1l37kgtyg,13460,27/03/2022@17:34:56,"Mozilla/5.0 (Windows NT 10.0; Win64; x64) AppleWebKit/537.36 (KHTML, like Gecko) Chrome/99.0.4844.82 Safari/537.36",1280,720,1263,520,main,2949673,11,1,16,14,HE,Extreme,Harder than Reference,D,j,riskyDeck,safeDeck,0,28,14,left,1,0,32,present,riskyDeck,1963,1570
it1l37kgtyg,13460,27/03/2022@17:34:56,"Mozilla/5.0 (Windows NT 10.0; Win64; x64) AppleWebKit/537.36 (KHTML, like Gecko) Chrome/99.0.4844.82 Safari/537.36",1280,720,1263,520,main,2949673,11,2,16,14,HE,Extreme,Harder than Reference,D,j,riskyDeck,safeDeck,0,28,14,left,1,0,32,present,riskyDeck,1963,1169
it1l37kgtyg,13460,27/03/2022@17:34:56,"Mozilla/5.0 (Windows NT 10.0; Win64; x64) AppleWebKit/537.36 (KHTML, like Gecko) Chrome/99.0.4844.82 Safari/537.36",1280,720,1263,520,main,2949673,11,3,16,14,HE,Extreme,Harder than Reference,D,k,riskyDeck,safeDeck,0,28,14,left,1,1,32,present,riskyDeck,1963,1682
it1l37kgtyg,13460,27/03/2022@17:34:56,"Mozilla/5.0 (Windows NT 10.0; Win64; x64) AppleWebKit/537.36 (KHTML, like Gecko) Chrome/99.0.4844.82 Safari/537.36",1280,720,1263,520,main,2949673,11,4,16,14,HE,Extreme,Harder than Reference,D,k,riskyDeck,safeDeck,0,28,14,left,1,1,32,present,riskyDeck,1963,1438
it1l37kgtyg,13460,27/03/2022@17:34:56,"Mozilla/5.0 (Windows NT 10.0; Win64; x64) AppleWebKit/537.36 (KHTML, like Gecko) Chrome/99.0.4844.82 Safari/537.36",1280,720,1263,520,main,2949673,11,5,16,14,HE,Extreme,Harder than Reference,D,k,riskyDeck,safeDeck,0,28,14,left,1,0,32,absent,riskyDeck,1963,1060
it1l37kgtyg,13460,27/03/2022@17:34:56,"Mozilla/5.0 (Windows NT 10.0; Win64; x64) AppleWebKit/537.36 (KHTML, like Gecko) Chrome/99.0.4844.82 Safari/537.36",1280,720,1263,520,main,2949673,11,6,16,14,HE,Extreme,Harder than Reference,D,k,riskyDeck,safeDeck,0,28,14,left,1,0,32,absent,riskyDeck,1963,2095
it1l37kgtyg,13460,27/03/2022@17:34:56,"Mozilla/5.0 (Windows NT 10.0; Win64; x64) AppleWebKit/537.36 (KHTML, like Gecko) Chrome/99.0.4844.82 Safari/537.36",1280,720,1263,520,main,2949673,11,7,16,14,HE,Extreme,Harder than Reference,D,j,riskyDeck,safeDeck,0,28,14,left,1,0,32,present,riskyDeck,1963,840
it1l37kgtyg,13460,27/03/2022@17:34:56,"Mozilla/5.0 (Windows NT 10.0; Win64; x64) AppleWebKit/537.36 (KHTML, like Gecko) Chrome/99.0.4844.82 Safari/537.36",1280,720,1263,520,main,2949673,11,8,16,14,HE,Extreme,Harder than Reference,D,j,riskyDeck,safeDeck,0,28,14,left,1,0,32,present,riskyDeck,1963,2144
it1l37kgtyg,13460,27/03/2022@17:34:56,"Mozilla/5.0 (Windows NT 10.0; Win64; x64) AppleWebKit/537.36 (KHTML, like Gecko) Chrome/99.0.4844.82 Safari/537.36",1280,720,1263,520,main,2949673,11,9,16,14,HE,Extreme,Harder than Reference,D,k,riskyDeck,safeDeck,0,28,14,left,1,1,32,present,riskyDeck,1963,1587
it1l37kgtyg,13460,27/03/2022@17:34:56,"Mozilla/5.0 (Windows NT 10.0; Win64; x64) AppleWebKit/537.36 (KHTML, like Gecko) Chrome/99.0.4844.82 Safari/537.36",1280,720,1263,520,main,2949673,11,10,16,14,HE,Extreme,Harder than Reference,D,k,riskyDeck,safeDeck,0,28,14,left,1,1,32,present,riskyDeck,1963,1373
it1l37kgtyg,13460,27/03/2022@17:34:56,"Mozilla/5.0 (Windows NT 10.0; Win64; x64) AppleWebKit/537.36 (KHTML, like Gecko) Chrome/99.0.4844.82 Safari/537.36",1280,720,1263,520,main,2949673,11,11,16,14,HE,Extreme,Harder than Reference,D,k,riskyDeck,safeDeck,0,28,14,left,1,1,32,present,riskyDeck,1963,1961
it1l37kgtyg,13460,27/03/2022@17:34:56,"Mozilla/5.0 (Windows NT 10.0; Win64; x64) AppleWebKit/537.36 (KHTML, like Gecko) Chrome/99.0.4844.82 Safari/537.36",1280,720,1263,520,main,2949673,11,12,16,15,HE,Extreme,Harder than Reference,D,k,riskyDeck,safeDeck,0,28,14,left,1,0,32,absent,riskyDeck,1963,1221
it1l37kgtyg,13460,27/03/2022@17:34:56,"Mozilla/5.0 (Windows NT 10.0; Win64; x64) AppleWebKit/537.36 (KHTML, like Gecko) Chrome/99.0.4844.82 Safari/537.36",1280,720,1263,520,main,2949673,11,13,16,15,HE,Extreme,Harder than Reference,D,j,riskyDeck,safeDeck,0,28,14,left,1,0,32,present,riskyDeck,1963,751
it1l37kgtyg,13460,27/03/2022@17:34:56,"Mozilla/5.0 (Windows NT 10.0; Win64; x64) AppleWebKit/537.36 (KHTML, like Gecko) Chrome/99.0.4844.82 Safari/537.36",1280,720,1263,520,main,2949673,11,14,16,15,HE,Extreme,Harder than Reference,D,k,riskyDeck,safeDeck,0,28,14,left,1,1,32,present,riskyDeck,1963,2526
it1l37kgtyg,13460,27/03/2022@17:34:56,"Mozilla/5.0 (Windows NT 10.0; Win64; x64) AppleWebKit/537.36 (KHTML, like Gecko) Chrome/99.0.4844.82 Safari/537.36",1280,720,1263,520,main,2949673,11,15,17,15,HE,Extreme,Harder than Reference,D,k,riskyDeck,safeDeck,0,28,14,left,1,0,32,absent,riskyDeck,1963,2786
it1l37kgtyg,13460,27/03/2022@17:34:56,"Mozilla/5.0 (Windows NT 10.0; Win64; x64) AppleWebKit/537.36 (KHTML, like Gecko) Chrome/99.0.4844.82 Safari/537.36",1280,720,1263,520,main,2949673,11,16,17,15,HE,Extreme,Harder than Reference,D,j,riskyDeck,safeDeck,0,28,14,left,1,0,32,present,riskyDeck,1963,935
it1l37kgtyg,13460,27/03/2022@17:34:56,"Mozilla/5.0 (Windows NT 10.0; Win64; x64) AppleWebKit/537.36 (KHTML, like Gecko) Chrome/99.0.4844.82 Safari/537.36",1280,720,1263,520,main,2949673,11,17,17,15,HE,Extreme,Harder than Reference,D,k,riskyDeck,safeDeck,0,28,14,left,1,0,32,absent,riskyDeck,1963,4859
it1l37kgtyg,13460,27/03/2022@17:34:56,"Mozilla/5.0 (Windows NT 10.0; Win64; x64) AppleWebKit/537.36 (KHTML, like Gecko) Chrome/99.0.4844.82 Safari/537.36",1280,720,1263,520,main,2949673,12,1,17,15,EE,Extreme,Easier than Reference,F,k,safeDeck,riskyDeck,0,-14,-7,right,1,0,32,absent,riskyDeck,1911,2435
it1l37kgtyg,13460,27/03/2022@17:34:56,"Mozilla/5.0 (Windows NT 10.0; Win64; x64) AppleWebKit/537.36 (KHTML, like Gecko) Chrome/99.0.4844.82 Safari/537.36",1280,720,1263,520,main,2949673,12,2,17,15,EE,Extreme,Easier than Reference,F,k,safeDeck,riskyDeck,0,-14,-7,right,1,1,32,present,riskyDeck,1911,3352
it1l37kgtyg,13460,27/03/2022@17:34:56,"Mozilla/5.0 (Windows NT 10.0; Win64; x64) AppleWebKit/537.36 (KHTML, like Gecko) Chrome/99.0.4844.82 Safari/537.36",1280,720,1263,520,main,2949673,12,3,17,15,EE,Extreme,Easier than Reference,F,k,safeDeck,riskyDeck,0,-14,-7,right,1,0,32,absent,riskyDeck,1911,1402
it1l37kgtyg,13460,27/03/2022@17:34:56,"Mozilla/5.0 (Windows NT 10.0; Win64; x64) AppleWebKit/537.36 (KHTML, like Gecko) Chrome/99.0.4844.82 Safari/537.36",1280,720,1263,520,main,2949673,12,4,17,15,EE,Extreme,Easier than Reference,F,k,safeDeck,riskyDeck,0,-14,-7,right,1,0,32,absent,riskyDeck,1911,2755
it1l37kgtyg,13460,27/03/2022@17:34:56,"Mozilla/5.0 (Windows NT 10.0; Win64; x64) AppleWebKit/537.36 (KHTML, like Gecko) Chrome/99.0.4844.82 Safari/537.36",1280,720,1263,520,main,2949673,12,5,17,15,EE,Extreme,Easier than Reference,F,k,safeDeck,riskyDeck,0,-14,-7,right,1,0,32,absent,riskyDeck,1911,1924
it1l37kgtyg,13460,27/03/2022@17:34:56,"Mozilla/5.0 (Windows NT 10.0; Win64; x64) AppleWebKit/537.36 (KHTML, like Gecko) Chrome/99.0.4844.82 Safari/537.36",1280,720,1263,520,main,2949673,12,6,17,15,EE,Extreme,Easier than Reference,F,j,safeDeck,riskyDeck,0,-14,-7,right,1,0,32,present,riskyDeck,1911,1047
it1l37kgtyg,13460,27/03/2022@17:34:56,"Mozilla/5.0 (Windows NT 10.0; Win64; x64) AppleWebKit/537.36 (KHTML, like Gecko) Chrome/99.0.4844.82 Safari/537.36",1280,720,1263,520,main,2949673,12,7,17,15,EE,Extreme,Easier than Reference,F,k,safeDeck,riskyDeck,0,-14,-7,right,1,0,32,absent,riskyDeck,1911,1425
it1l37kgtyg,13460,27/03/2022@17:34:56,"Mozilla/5.0 (Windows NT 10.0; Win64; x64) AppleWebKit/537.36 (KHTML, like Gecko) Chrome/99.0.4844.82 Safari/537.36",1280,720,1263,520,main,2949673,12,8,17,15,EE,Extreme,Easier than Reference,F,k,safeDeck,riskyDeck,0,-14,-7,right,1,1,32,present,riskyDeck,1911,900
it1l37kgtyg,13460,27/03/2022@17:34:56,"Mozilla/5.0 (Windows NT 10.0; Win64; x64) AppleWebKit/537.36 (KHTML, like Gecko) Chrome/99.0.4844.82 Safari/537.36",1280,720,1263,520,main,2949673,12,9,17,15,EE,Extreme,Easier than Reference,F,k,safeDeck,riskyDeck,0,-14,-7,right,1,0,32,absent,riskyDeck,1911,1876
it1l37kgtyg,13460,27/03/2022@17:34:56,"Mozilla/5.0 (Windows NT 10.0; Win64; x64) AppleWebKit/537.36 (KHTML, like Gecko) Chrome/99.0.4844.82 Safari/537.36",1280,720,1263,520,main,2949673,12,10,17,15,EE,Extreme,Easier than Reference,F,k,safeDeck,riskyDeck,0,-14,-7,right,1,1,32,present,riskyDeck,1911,1959
it1l37kgtyg,13460,27/03/2022@17:34:56,"Mozilla/5.0 (Windows NT 10.0; Win64; x64) AppleWebKit/537.36 (KHTML, like Gecko) Chrome/99.0.4844.82 Safari/537.36",1280,720,1263,520,main,2949673,12,11,17,15,EE,Extreme,Easier than Reference,F,j,safeDeck,riskyDeck,0,-14,-7,right,1,0,32,present,riskyDeck,1911,1962
it1l37kgtyg,13460,27/03/2022@17:34:56,"Mozilla/5.0 (Windows NT 10.0; Win64; x64) AppleWebKit/537.36 (KHTML, like Gecko) Chrome/99.0.4844.82 Safari/537.36",1280,720,1263,520,main,2949673,12,12,17,15,EE,Extreme,Easier than Reference,F,k,safeDeck,riskyDeck,0,-14,-7,right,1,1,32,present,riskyDeck,1911,1857
it1l37kgtyg,13460,27/03/2022@17:34:56,"Mozilla/5.0 (Windows NT 10.0; Win64; x64) AppleWebKit/537.36 (KHTML, like Gecko) Chrome/99.0.4844.82 Safari/537.36",1280,720,1263,520,main,2949673,12,13,17,16,EE,Extreme,Easier than Reference,F,k,safeDeck,riskyDeck,0,-14,-7,right,1,0,32,absent,riskyDeck,1911,3162
it1l37kgtyg,13460,27/03/2022@17:34:56,"Mozilla/5.0 (Windows NT 10.0; Win64; x64) AppleWebKit/537.36 (KHTML, like Gecko) Chrome/99.0.4844.82 Safari/537.36",1280,720,1263,520,main,2949673,12,14,17,16,EE,Extreme,Easier than Reference,F,k,safeDeck,riskyDeck,0,-14,-7,right,1,0,32,absent,riskyDeck,1911,2997
it1l37kgtyg,13460,27/03/2022@17:34:56,"Mozilla/5.0 (Windows NT 10.0; Win64; x64) AppleWebKit/537.36 (KHTML, like Gecko) Chrome/99.0.4844.82 Safari/537.36",1280,720,1263,520,main,2949673,12,15,17,16,EE,Extreme,Easier than Reference,F,j,safeDeck,riskyDeck,0,-14,-7,right,1,0,32,present,riskyDeck,1911,1093
it1l37kgtyg,13460,27/03/2022@17:34:56,"Mozilla/5.0 (Windows NT 10.0; Win64; x64) AppleWebKit/537.36 (KHTML, like Gecko) Chrome/99.0.4844.82 Safari/537.36",1280,720,1263,520,main,2949673,12,16,17,16,EE,Extreme,Easier than Reference,F,k,safeDeck,riskyDeck,0,-14,-7,right,1,0,32,absent,riskyDeck,1911,1834
it1l37kgtyg,13460,27/03/2022@17:34:56,"Mozilla/5.0 (Windows NT 10.0; Win64; x64) AppleWebKit/537.36 (KHTML, like Gecko) Chrome/99.0.4844.82 Safari/537.36",1280,720,1263,520,main,2949673,12,17,18,16,EE,Extreme,Easier than Reference,F,k,safeDeck,riskyDeck,0,-14,-7,right,1,1,32,present,riskyDeck,1911,1857
it1l37kgtyg,13460,27/03/2022@17:34:56,"Mozilla/5.0 (Windows NT 10.0; Win64; x64) AppleWebKit/537.36 (KHTML, like Gecko) Chrome/99.0.4844.82 Safari/537.36",1280,720,1263,520,main,2949673,13,1,18,16,HM,Moderate,Harder than Reference,D,k,safeDeck,riskyDeck,14,0,7,left,0,1,39,present,safeDeck,2383,1308
it1l37kgtyg,13460,27/03/2022@17:34:56,"Mozilla/5.0 (Windows NT 10.0; Win64; x64) AppleWebKit/537.36 (KHTML, like Gecko) Chrome/99.0.4844.82 Safari/537.36",1280,720,1263,520,main,2949673,13,2,18,16,HM,Moderate,Harder than Reference,D,k,safeDeck,riskyDeck,14,0,7,left,0,0,39,absent,safeDeck,2383,3317
it1l37kgtyg,13460,27/03/2022@17:34:56,"Mozilla/5.0 (Windows NT 10.0; Win64; x64) AppleWebKit/537.36 (KHTML, like Gecko) Chrome/99.0.4844.82 Safari/537.36",1280,720,1263,520,main,2949673,13,3,18,16,HM,Moderate,Harder than Reference,D,j,safeDeck,riskyDeck,14,0,7,left,0,0,39,present,safeDeck,2383,1325
it1l37kgtyg,13460,27/03/2022@17:34:56,"Mozilla/5.0 (Windows NT 10.0; Win64; x64) AppleWebKit/537.36 (KHTML, like Gecko) Chrome/99.0.4844.82 Safari/537.36",1280,720,1263,520,main,2949673,13,4,18,16,HM,Moderate,Harder than Reference,D,k,safeDeck,riskyDeck,14,0,7,left,0,0,39,absent,safeDeck,2383,2812
it1l37kgtyg,13460,27/03/2022@17:34:56,"Mozilla/5.0 (Windows NT 10.0; Win64; x64) AppleWebKit/537.36 (KHTML, like Gecko) Chrome/99.0.4844.82 Safari/537.36",1280,720,1263,520,main,2949673,13,5,18,16,HM,Moderate,Harder than Reference,D,j,safeDeck,riskyDeck,14,0,7,left,0,0,39,present,safeDeck,2383,1678
it1l37kgtyg,13460,27/03/2022@17:34:56,"Mozilla/5.0 (Windows NT 10.0; Win64; x64) AppleWebKit/537.36 (KHTML, like Gecko) Chrome/99.0.4844.82 Safari/537.36",1280,720,1263,520,main,2949673,13,6,18,16,HM,Moderate,Harder than Reference,D,k,safeDeck,riskyDeck,14,0,7,left,0,0,39,absent,safeDeck,2383,2856
it1l37kgtyg,13460,27/03/2022@17:34:56,"Mozilla/5.0 (Windows NT 10.0; Win64; x64) AppleWebKit/537.36 (KHTML, like Gecko) Chrome/99.0.4844.82 Safari/537.36",1280,720,1263,520,main,2949673,13,7,18,16,HM,Moderate,Harder than Reference,D,j,safeDeck,riskyDeck,14,0,7,left,0,0,39,present,safeDeck,2383,970
it1l37kgtyg,13460,27/03/2022@17:34:56,"Mozilla/5.0 (Windows NT 10.0; Win64; x64) AppleWebKit/537.36 (KHTML, like Gecko) Chrome/99.0.4844.82 Safari/537.36",1280,720,1263,520,main,2949673,13,8,18,16,HM,Moderate,Harder than Reference,D,k,safeDeck,riskyDeck,14,0,7,left,0,0,39,absent,safeDeck,2383,3201
it1l37kgtyg,13460,27/03/2022@17:34:56,"Mozilla/5.0 (Windows NT 10.0; Win64; x64) AppleWebKit/537.36 (KHTML, like Gecko) Chrome/99.0.4844.82 Safari/537.36",1280,720,1263,520,main,2949673,13,9,18,16,HM,Moderate,Harder than Reference,D,k,safeDeck,riskyDeck,14,0,7,left,0,1,39,present,safeDeck,2383,1389
it1l37kgtyg,13460,27/03/2022@17:34:56,"Mozilla/5.0 (Windows NT 10.0; Win64; x64) AppleWebKit/537.36 (KHTML, like Gecko) Chrome/99.0.4844.82 Safari/537.36",1280,720,1263,520,main,2949673,13,10,18,16,HM,Moderate,Harder than Reference,D,k,safeDeck,riskyDeck,14,0,7,left,0,0,39,absent,safeDeck,2383,2630
it1l37kgtyg,13460,27/03/2022@17:34:56,"Mozilla/5.0 (Windows NT 10.0; Win64; x64) AppleWebKit/537.36 (KHTML, like Gecko) Chrome/99.0.4844.82 Safari/537.36",1280,720,1263,520,main,2949673,13,11,18,16,HM,Moderate,Harder than Reference,D,k,safeDeck,riskyDeck,14,0,7,left,0,0,39,absent,safeDeck,2383,2136
it1l37kgtyg,13460,27/03/2022@17:34:56,"Mozilla/5.0 (Windows NT 10.0; Win64; x64) AppleWebKit/537.36 (KHTML, like Gecko) Chrome/99.0.4844.82 Safari/537.36",1280,720,1263,520,main,2949673,13,12,18,16,HM,Moderate,Harder than Reference,D,k,safeDeck,riskyDeck,14,0,7,left,0,1,39,present,safeDeck,2383,2846
it1l37kgtyg,13460,27/03/2022@17:34:56,"Mozilla/5.0 (Windows NT 10.0; Win64; x64) AppleWebKit/537.36 (KHTML, like Gecko) Chrome/99.0.4844.82 Safari/537.36",1280,720,1263,520,main,2949673,13,13,18,16,HM,Moderate,Harder than Reference,D,k,safeDeck,riskyDeck,14,0,7,left,0,1,39,present,safeDeck,2383,2724
it1l37kgtyg,13460,27/03/2022@17:34:56,"Mozilla/5.0 (Windows NT 10.0; Win64; x64) AppleWebKit/537.36 (KHTML, like Gecko) Chrome/99.0.4844.82 Safari/537.36",1280,720,1263,520,main,2949673,13,14,18,16,HM,Moderate,Harder than Reference,D,j,safeDeck,riskyDeck,14,0,7,left,0,0,39,present,safeDeck,2383,1827
it1l37kgtyg,13460,27/03/2022@17:34:56,"Mozilla/5.0 (Windows NT 10.0; Win64; x64) AppleWebKit/537.36 (KHTML, like Gecko) Chrome/99.0.4844.82 Safari/537.36",1280,720,1263,520,main,2949673,13,15,18,17,HM,Moderate,Harder than Reference,D,k,safeDeck,riskyDeck,14,0,7,left,0,0,39,absent,safeDeck,2383,3473
it1l37kgtyg,13460,27/03/2022@17:34:56,"Mozilla/5.0 (Windows NT 10.0; Win64; x64) AppleWebKit/537.36 (KHTML, like Gecko) Chrome/99.0.4844.82 Safari/537.36",1280,720,1263,520,main,2949673,13,16,18,17,HM,Moderate,Harder than Reference,D,k,safeDeck,riskyDeck,14,0,7,left,0,1,39,present,safeDeck,2383,2858
it1l37kgtyg,13460,27/03/2022@17:34:56,"Mozilla/5.0 (Windows NT 10.0; Win64; x64) AppleWebKit/537.36 (KHTML, like Gecko) Chrome/99.0.4844.82 Safari/537.36",1280,720,1263,520,main,2949673,13,17,19,17,HM,Moderate,Harder than Reference,D,k,safeDeck,riskyDeck,14,0,7,left,0,0,39,absent,safeDeck,2383,2395
it1l37kgtyg,13460,27/03/2022@17:34:56,"Mozilla/5.0 (Windows NT 10.0; Win64; x64) AppleWebKit/537.36 (KHTML, like Gecko) Chrome/99.0.4844.82 Safari/537.36",1280,720,1263,520,main,2949673,14,1,19,17,HE,Extreme,Harder than Reference,D,k,riskyDeck,safeDeck,28,0,14,left,1,0,60,absent,riskyDeck,2280,2177
it1l37kgtyg,13460,27/03/2022@17:34:56,"Mozilla/5.0 (Windows NT 10.0; Win64; x64) AppleWebKit/537.36 (KHTML, like Gecko) Chrome/99.0.4844.82 Safari/537.36",1280,720,1263,520,main,2949673,14,2,19,17,HE,Extreme,Harder than Reference,D,k,riskyDeck,safeDeck,28,0,14,left,1,0,60,absent,riskyDeck,2280,3447
it1l37kgtyg,13460,27/03/2022@17:34:56,"Mozilla/5.0 (Windows NT 10.0; Win64; x64) AppleWebKit/537.36 (KHTML, like Gecko) Chrome/99.0.4844.82 Safari/537.36",1280,720,1263,520,main,2949673,14,3,19,17,HE,Extreme,Harder than Reference,D,k,riskyDeck,safeDeck,28,0,14,left,1,1,60,present,riskyDeck,2280,2774
it1l37kgtyg,13460,27/03/2022@17:34:56,"Mozilla/5.0 (Windows NT 10.0; Win64; x64) AppleWebKit/537.36 (KHTML, like Gecko) Chrome/99.0.4844.82 Safari/537.36",1280,720,1263,520,main,2949673,14,4,19,17,HE,Extreme,Harder than Reference,D,k,riskyDeck,safeDeck,28,0,14,left,1,0,60,absent,riskyDeck,2280,1947
it1l37kgtyg,13460,27/03/2022@17:34:56,"Mozilla/5.0 (Windows NT 10.0; Win64; x64) AppleWebKit/537.36 (KHTML, like Gecko) Chrome/99.0.4844.82 Safari/537.36",1280,720,1263,520,main,2949673,14,5,19,17,HE,Extreme,Harder than Reference,D,j,riskyDeck,safeDeck,28,0,14,left,1,0,60,present,riskyDeck,2280,1627
it1l37kgtyg,13460,27/03/2022@17:34:56,"Mozilla/5.0 (Windows NT 10.0; Win64; x64) AppleWebKit/537.36 (KHTML, like Gecko) Chrome/99.0.4844.82 Safari/537.36",1280,720,1263,520,main,2949673,14,6,19,17,HE,Extreme,Harder than Reference,D,j,riskyDeck,safeDeck,28,0,14,left,1,0,60,present,riskyDeck,2280,1123
it1l37kgtyg,13460,27/03/2022@17:34:56,"Mozilla/5.0 (Windows NT 10.0; Win64; x64) AppleWebKit/537.36 (KHTML, like Gecko) Chrome/99.0.4844.82 Safari/537.36",1280,720,1263,520,main,2949673,14,7,19,17,HE,Extreme,Harder than Reference,D,k,riskyDeck,safeDeck,28,0,14,left,1,0,60,absent,riskyDeck,2280,4364
it1l37kgtyg,13460,27/03/2022@17:34:56,"Mozilla/5.0 (Windows NT 10.0; Win64; x64) AppleWebKit/537.36 (KHTML, like Gecko) Chrome/99.0.4844.82 Safari/537.36",1280,720,1263,520,main,2949673,14,8,19,17,HE,Extreme,Harder than Reference,D,j,riskyDeck,safeDeck,28,0,14,left,1,0,60,present,riskyDeck,2280,1218
it1l37kgtyg,13460,27/03/2022@17:34:56,"Mozilla/5.0 (Windows NT 10.0; Win64; x64) AppleWebKit/537.36 (KHTML, like Gecko) Chrome/99.0.4844.82 Safari/537.36",1280,720,1263,520,main,2949673,14,9,19,17,HE,Extreme,Harder than Reference,D,j,riskyDeck,safeDeck,28,0,14,left,1,0,60,present,riskyDeck,2280,2293
it1l37kgtyg,13460,27/03/2022@17:34:56,"Mozilla/5.0 (Windows NT 10.0; Win64; x64) AppleWebKit/537.36 (KHTML, like Gecko) Chrome/99.0.4844.82 Safari/537.36",1280,720,1263,520,main,2949673,14,10,19,17,HE,Extreme,Harder than Reference,D,k,riskyDeck,safeDeck,28,0,14,left,1,1,60,present,riskyDeck,2280,3476
it1l37kgtyg,13460,27/03/2022@17:34:56,"Mozilla/5.0 (Windows NT 10.0; Win64; x64) AppleWebKit/537.36 (KHTML, like Gecko) Chrome/99.0.4844.82 Safari/537.36",1280,720,1263,520,main,2949673,14,11,19,17,HE,Extreme,Harder than Reference,D,k,riskyDeck,safeDeck,28,0,14,left,1,0,60,absent,riskyDeck,2280,2015
it1l37kgtyg,13460,27/03/2022@17:34:56,"Mozilla/5.0 (Windows NT 10.0; Win64; x64) AppleWebKit/537.36 (KHTML, like Gecko) Chrome/99.0.4844.82 Safari/537.36",1280,720,1263,520,main,2949673,14,12,19,17,HE,Extreme,Harder than Reference,D,j,riskyDeck,safeDeck,28,0,14,left,1,0,60,present,riskyDeck,2280,1707
it1l37kgtyg,13460,27/03/2022@17:34:56,"Mozilla/5.0 (Windows NT 10.0; Win64; x64) AppleWebKit/537.36 (KHTML, like Gecko) Chrome/99.0.4844.82 Safari/537.36",1280,720,1263,520,main,2949673,14,13,19,17,HE,Extreme,Harder than Reference,D,j,riskyDeck,safeDeck,28,0,14,left,1,0,60,present,riskyDeck,2280,3146
it1l37kgtyg,13460,27/03/2022@17:34:56,"Mozilla/5.0 (Windows NT 10.0; Win64; x64) AppleWebKit/537.36 (KHTML, like Gecko) Chrome/99.0.4844.82 Safari/537.36",1280,720,1263,520,main,2949673,14,14,19,17,HE,Extreme,Harder than Reference,D,k,riskyDeck,safeDeck,28,0,14,left,1,1,60,present,riskyDeck,2280,2385
it1l37kgtyg,13460,27/03/2022@17:34:56,"Mozilla/5.0 (Windows NT 10.0; Win64; x64) AppleWebKit/537.36 (KHTML, like Gecko) Chrome/99.0.4844.82 Safari/537.36",1280,720,1263,520,main,2949673,14,15,19,18,HE,Extreme,Harder than Reference,D,k,riskyDeck,safeDeck,28,0,14,left,1,0,60,absent,riskyDeck,2280,3049
it1l37kgtyg,13460,27/03/2022@17:34:56,"Mozilla/5.0 (Windows NT 10.0; Win64; x64) AppleWebKit/537.36 (KHTML, like Gecko) Chrome/99.0.4844.82 Safari/537.36",1280,720,1263,520,main,2949673,14,16,19,18,HE,Extreme,Harder than Reference,D,k,riskyDeck,safeDeck,28,0,14,left,1,1,60,present,riskyDeck,2280,3818
it1l37kgtyg,13460,27/03/2022@17:34:56,"Mozilla/5.0 (Windows NT 10.0; Win64; x64) AppleWebKit/537.36 (KHTML, like Gecko) Chrome/99.0.4844.82 Safari/537.36",1280,720,1263,520,main,2949673,14,17,20,18,HE,Extreme,Harder than Reference,D,k,riskyDeck,safeDeck,28,0,14,left,1,0,60,absent,riskyDeck,2280,2621
it1l37kgtyg,13460,27/03/2022@17:34:56,"Mozilla/5.0 (Windows NT 10.0; Win64; x64) AppleWebKit/537.36 (KHTML, like Gecko) Chrome/99.0.4844.82 Safari/537.36",1280,720,1263,520,main,2949673,15,1,20,18,EE,Extreme,Easier than Reference,F,k,safeDeck,riskyDeck,-14,0,-7,right,1,1,32,present,riskyDeck,2470,717
it1l37kgtyg,13460,27/03/2022@17:34:56,"Mozilla/5.0 (Windows NT 10.0; Win64; x64) AppleWebKit/537.36 (KHTML, like Gecko) Chrome/99.0.4844.82 Safari/537.36",1280,720,1263,520,main,2949673,15,2,20,18,EE,Extreme,Easier than Reference,F,j,safeDeck,riskyDeck,-14,0,-7,right,1,0,32,present,riskyDeck,2470,1579
it1l37kgtyg,13460,27/03/2022@17:34:56,"Mozilla/5.0 (Windows NT 10.0; Win64; x64) AppleWebKit/537.36 (KHTML, like Gecko) Chrome/99.0.4844.82 Safari/537.36",1280,720,1263,520,main,2949673,15,3,20,18,EE,Extreme,Easier than Reference,F,k,safeDeck,riskyDeck,-14,0,-7,right,1,0,32,absent,riskyDeck,2470,2259
it1l37kgtyg,13460,27/03/2022@17:34:56,"Mozilla/5.0 (Windows NT 10.0; Win64; x64) AppleWebKit/537.36 (KHTML, like Gecko) Chrome/99.0.4844.82 Safari/537.36",1280,720,1263,520,main,2949673,15,4,20,18,EE,Extreme,Easier than Reference,F,k,safeDeck,riskyDeck,-14,0,-7,right,1,0,32,absent,riskyDeck,2470,2159
it1l37kgtyg,13460,27/03/2022@17:34:56,"Mozilla/5.0 (Windows NT 10.0; Win64; x64) AppleWebKit/537.36 (KHTML, like Gecko) Chrome/99.0.4844.82 Safari/537.36",1280,720,1263,520,main,2949673,15,5,20,18,EE,Extreme,Easier than Reference,F,j,safeDeck,riskyDeck,-14,0,-7,right,1,0,32,present,riskyDeck,2470,1733
it1l37kgtyg,13460,27/03/2022@17:34:56,"Mozilla/5.0 (Windows NT 10.0; Win64; x64) AppleWebKit/537.36 (KHTML, like Gecko) Chrome/99.0.4844.82 Safari/537.36",1280,720,1263,520,main,2949673,15,6,20,18,EE,Extreme,Easier than Reference,F,k,safeDeck,riskyDeck,-14,0,-7,right,1,0,32,absent,riskyDeck,2470,3241
it1l37kgtyg,13460,27/03/2022@17:34:56,"Mozilla/5.0 (Windows NT 10.0; Win64; x64) AppleWebKit/537.36 (KHTML, like Gecko) Chrome/99.0.4844.82 Safari/537.36",1280,720,1263,520,main,2949673,15,7,20,18,EE,Extreme,Easier than Reference,F,j,safeDeck,riskyDeck,-14,0,-7,right,1,0,32,present,riskyDeck,2470,3489
it1l37kgtyg,13460,27/03/2022@17:34:56,"Mozilla/5.0 (Windows NT 10.0; Win64; x64) AppleWebKit/537.36 (KHTML, like Gecko) Chrome/99.0.4844.82 Safari/537.36",1280,720,1263,520,main,2949673,15,8,20,18,EE,Extreme,Easier than Reference,F,k,safeDeck,riskyDeck,-14,0,-7,right,1,0,32,absent,riskyDeck,2470,3822
it1l37kgtyg,13460,27/03/2022@17:34:56,"Mozilla/5.0 (Windows NT 10.0; Win64; x64) AppleWebKit/537.36 (KHTML, like Gecko) Chrome/99.0.4844.82 Safari/537.36",1280,720,1263,520,main,2949673,15,9,20,18,EE,Extreme,Easier than Reference,F,k,safeDeck,riskyDeck,-14,0,-7,right,1,0,32,absent,riskyDeck,2470,3164
it1l37kgtyg,13460,27/03/2022@17:34:56,"Mozilla/5.0 (Windows NT 10.0; Win64; x64) AppleWebKit/537.36 (KHTML, like Gecko) Chrome/99.0.4844.82 Safari/537.36",1280,720,1263,520,main,2949673,15,10,20,18,EE,Extreme,Easier than Reference,F,k,safeDeck,riskyDeck,-14,0,-7,right,1,0,32,absent,riskyDeck,2470,7339
it1l37kgtyg,13460,27/03/2022@17:34:56,"Mozilla/5.0 (Windows NT 10.0; Win64; x64) AppleWebKit/537.36 (KHTML, like Gecko) Chrome/99.0.4844.82 Safari/537.36",1280,720,1263,520,main,2949673,15,11,20,18,EE,Extreme,Easier than Reference,F,k,safeDeck,riskyDeck,-14,0,-7,right,1,0,32,absent,riskyDeck,2470,1352
it1l37kgtyg,13460,27/03/2022@17:34:56,"Mozilla/5.0 (Windows NT 10.0; Win64; x64) AppleWebKit/537.36 (KHTML, like Gecko) Chrome/99.0.4844.82 Safari/537.36",1280,720,1263,520,main,2949673,15,12,20,19,EE,Extreme,Easier than Reference,F,j,safeDeck,riskyDeck,-14,0,-7,right,1,0,32,present,riskyDeck,2470,13755
it1l37kgtyg,13460,27/03/2022@17:34:56,"Mozilla/5.0 (Windows NT 10.0; Win64; x64) AppleWebKit/537.36 (KHTML, like Gecko) Chrome/99.0.4844.82 Safari/537.36",1280,720,1263,520,main,2949673,15,13,20,19,EE,Extreme,Easier than Reference,F,k,safeDeck,riskyDeck,-14,0,-7,right,1,0,32,absent,riskyDeck,2470,1546
it1l37kgtyg,13460,27/03/2022@17:34:56,"Mozilla/5.0 (Windows NT 10.0; Win64; x64) AppleWebKit/537.36 (KHTML, like Gecko) Chrome/99.0.4844.82 Safari/537.36",1280,720,1263,520,main,2949673,15,14,21,19,EE,Extreme,Easier than Reference,F,j,safeDeck,riskyDeck,-14,0,-7,right,1,0,32,present,riskyDeck,2470,1336
it1l37kgtyg,13460,27/03/2022@17:34:56,"Mozilla/5.0 (Windows NT 10.0; Win64; x64) AppleWebKit/537.36 (KHTML, like Gecko) Chrome/99.0.4844.82 Safari/537.36",1280,720,1263,520,main,2949673,15,15,21,19,EE,Extreme,Easier than Reference,F,j,safeDeck,riskyDeck,-14,0,-7,right,1,0,32,present,riskyDeck,2470,1367
it1l37kgtyg,13460,27/03/2022@17:34:56,"Mozilla/5.0 (Windows NT 10.0; Win64; x64) AppleWebKit/537.36 (KHTML, like Gecko) Chrome/99.0.4844.82 Safari/537.36",1280,720,1263,520,main,2949673,15,16,21,19,EE,Extreme,Easier than Reference,F,j,safeDeck,riskyDeck,-14,0,-7,right,1,0,32,present,riskyDeck,2470,1496
it1l37kgtyg,13460,27/03/2022@17:34:56,"Mozilla/5.0 (Windows NT 10.0; Win64; x64) AppleWebKit/537.36 (KHTML, like Gecko) Chrome/99.0.4844.82 Safari/537.36",1280,720,1263,520,main,2949673,15,17,21,19,EE,Extreme,Easier than Reference,F,k,safeDeck,riskyDeck,-14,0,-7,right,1,1,32,present,riskyDeck,2470,1716
it1l37kgtyg,13460,27/03/2022@17:34:56,"Mozilla/5.0 (Windows NT 10.0; Win64; x64) AppleWebKit/537.36 (KHTML, like Gecko) Chrome/99.0.4844.82 Safari/537.36",1280,720,1263,520,main,2949673,16,1,21,19,EM,Moderate,Easier than Reference,D,j,riskyDeck,safeDeck,-28,0,-14,left,1,0,4,present,riskyDeck,2703,927
it1l37kgtyg,13460,27/03/2022@17:34:56,"Mozilla/5.0 (Windows NT 10.0; Win64; x64) AppleWebKit/537.36 (KHTML, like Gecko) Chrome/99.0.4844.82 Safari/537.36",1280,720,1263,520,main,2949673,16,2,21,19,EM,Moderate,Easier than Reference,D,k,riskyDeck,safeDeck,-28,0,-14,left,1,0,4,absent,riskyDeck,2703,921
it1l37kgtyg,13460,27/03/2022@17:34:56,"Mozilla/5.0 (Windows NT 10.0; Win64; x64) AppleWebKit/537.36 (KHTML, like Gecko) Chrome/99.0.4844.82 Safari/537.36",1280,720,1263,520,main,2949673,16,3,21,19,EM,Moderate,Easier than Reference,D,j,riskyDeck,safeDeck,-28,0,-14,left,1,0,4,present,riskyDeck,2703,502
it1l37kgtyg,13460,27/03/2022@17:34:56,"Mozilla/5.0 (Windows NT 10.0; Win64; x64) AppleWebKit/537.36 (KHTML, like Gecko) Chrome/99.0.4844.82 Safari/537.36",1280,720,1263,520,main,2949673,16,4,21,19,EM,Moderate,Easier than Reference,D,k,riskyDeck,safeDeck,-28,0,-14,left,1,0,4,absent,riskyDeck,2703,1007
it1l37kgtyg,13460,27/03/2022@17:34:56,"Mozilla/5.0 (Windows NT 10.0; Win64; x64) AppleWebKit/537.36 (KHTML, like Gecko) Chrome/99.0.4844.82 Safari/537.36",1280,720,1263,520,main,2949673,16,5,21,19,EM,Moderate,Easier than Reference,D,k,riskyDeck,safeDeck,-28,0,-14,left,1,0,4,absent,riskyDeck,2703,1069
it1l37kgtyg,13460,27/03/2022@17:34:56,"Mozilla/5.0 (Windows NT 10.0; Win64; x64) AppleWebKit/537.36 (KHTML, like Gecko) Chrome/99.0.4844.82 Safari/537.36",1280,720,1263,520,main,2949673,16,6,21,19,EM,Moderate,Easier than Reference,D,k,riskyDeck,safeDeck,-28,0,-14,left,1,0,4,absent,riskyDeck,2703,1124
it1l37kgtyg,13460,27/03/2022@17:34:56,"Mozilla/5.0 (Windows NT 10.0; Win64; x64) AppleWebKit/537.36 (KHTML, like Gecko) Chrome/99.0.4844.82 Safari/537.36",1280,720,1263,520,main,2949673,16,7,21,19,EM,Moderate,Easier than Reference,D,j,riskyDeck,safeDeck,-28,0,-14,left,1,0,4,present,riskyDeck,2703,603
it1l37kgtyg,13460,27/03/2022@17:34:56,"Mozilla/5.0 (Windows NT 10.0; Win64; x64) AppleWebKit/537.36 (KHTML, like Gecko) Chrome/99.0.4844.82 Safari/537.36",1280,720,1263,520,main,2949673,16,8,21,19,EM,Moderate,Easier than Reference,D,k,riskyDeck,safeDeck,-28,0,-14,left,1,0,4,absent,riskyDeck,2703,815
it1l37kgtyg,13460,27/03/2022@17:34:56,"Mozilla/5.0 (Windows NT 10.0; Win64; x64) AppleWebKit/537.36 (KHTML, like Gecko) Chrome/99.0.4844.82 Safari/537.36",1280,720,1263,520,main,2949673,16,9,21,19,EM,Moderate,Easier than Reference,D,j,riskyDeck,safeDeck,-28,0,-14,left,1,1,4,absent,riskyDeck,2703,843
it1l37kgtyg,13460,27/03/2022@17:34:56,"Mozilla/5.0 (Windows NT 10.0; Win64; x64) AppleWebKit/537.36 (KHTML, like Gecko) Chrome/99.0.4844.82 Safari/537.36",1280,720,1263,520,main,2949673,16,10,21,19,EM,Moderate,Easier than Reference,D,j,riskyDeck,safeDeck,-28,0,-14,left,1,0,4,present,riskyDeck,2703,2808
it1l37kgtyg,13460,27/03/2022@17:34:56,"Mozilla/5.0 (Windows NT 10.0; Win64; x64) AppleWebKit/537.36 (KHTML, like Gecko) Chrome/99.0.4844.82 Safari/537.36",1280,720,1263,520,main,2949673,16,11,21,19,EM,Moderate,Easier than Reference,D,k,riskyDeck,safeDeck,-28,0,-14,left,1,0,4,absent,riskyDeck,2703,788
it1l37kgtyg,13460,27/03/2022@17:34:56,"Mozilla/5.0 (Windows NT 10.0; Win64; x64) AppleWebKit/537.36 (KHTML, like Gecko) Chrome/99.0.4844.82 Safari/537.36",1280,720,1263,520,main,2949673,16,12,21,19,EM,Moderate,Easier than Reference,D,k,riskyDeck,safeDeck,-28,0,-14,left,1,0,4,absent,riskyDeck,2703,1563
it1l37kgtyg,13460,27/03/2022@17:34:56,"Mozilla/5.0 (Windows NT 10.0; Win64; x64) AppleWebKit/537.36 (KHTML, like Gecko) Chrome/99.0.4844.82 Safari/537.36",1280,720,1263,520,main,2949673,16,13,21,19,EM,Moderate,Easier than Reference,D,j,riskyDeck,safeDeck,-28,0,-14,left,1,0,4,present,riskyDeck,2703,708
it1l37kgtyg,13460,27/03/2022@17:34:56,"Mozilla/5.0 (Windows NT 10.0; Win64; x64) AppleWebKit/537.36 (KHTML, like Gecko) Chrome/99.0.4844.82 Safari/537.36",1280,720,1263,520,main,2949673,16,14,21,19,EM,Moderate,Easier than Reference,D,k,riskyDeck,safeDeck,-28,0,-14,left,1,0,4,absent,riskyDeck,2703,1222
it1l37kgtyg,13460,27/03/2022@17:34:56,"Mozilla/5.0 (Windows NT 10.0; Win64; x64) AppleWebKit/537.36 (KHTML, like Gecko) Chrome/99.0.4844.82 Safari/537.36",1280,720,1263,520,main,2949673,16,15,21,19,EM,Moderate,Easier than Reference,D,j,riskyDeck,safeDeck,-28,0,-14,left,1,0,4,present,riskyDeck,2703,681
it1l37kgtyg,13460,27/03/2022@17:34:56,"Mozilla/5.0 (Windows NT 10.0; Win64; x64) AppleWebKit/537.36 (KHTML, like Gecko) Chrome/99.0.4844.82 Safari/537.36",1280,720,1263,520,main,2949673,16,16,21,19,EM,Moderate,Easier than Reference,D,j,riskyDeck,safeDeck,-28,0,-14,left,1,0,4,present,riskyDeck,2703,684
it1l37kgtyg,13460,27/03/2022@17:34:56,"Mozilla/5.0 (Windows NT 10.0; Win64; x64) AppleWebKit/537.36 (KHTML, like Gecko) Chrome/99.0.4844.82 Safari/537.36",1280,720,1263,520,main,2949673,16,17,21,19,EM,Moderate,Easier than Reference,D,k,riskyDeck,safeDeck,-28,0,-14,left,1,0,4,absent,riskyDeck,2703,737
it1l37kgtyg,13460,27/03/2022@17:34:56,"Mozilla/5.0 (Windows NT 10.0; Win64; x64) AppleWebKit/537.36 (KHTML, like Gecko) Chrome/99.0.4844.82 Safari/537.36",1280,720,1263,520,main,2949673,17,1,21,19,HE,Extreme,Harder than Reference,D,k,safeDeck,riskyDeck,28,0,14,left,0,0,46,absent,safeDeck,2433,1710
it1l37kgtyg,13460,27/03/2022@17:34:56,"Mozilla/5.0 (Windows NT 10.0; Win64; x64) AppleWebKit/537.36 (KHTML, like Gecko) Chrome/99.0.4844.82 Safari/537.36",1280,720,1263,520,main,2949673,17,2,21,19,HE,Extreme,Harder than Reference,D,k,safeDeck,riskyDeck,28,0,14,left,0,0,46,absent,safeDeck,2433,4672
it1l37kgtyg,13460,27/03/2022@17:34:56,"Mozilla/5.0 (Windows NT 10.0; Win64; x64) AppleWebKit/537.36 (KHTML, like Gecko) Chrome/99.0.4844.82 Safari/537.36",1280,720,1263,520,main,2949673,17,3,21,19,HE,Extreme,Harder than Reference,D,k,safeDeck,riskyDeck,28,0,14,left,0,1,46,present,safeDeck,2433,2461
it1l37kgtyg,13460,27/03/2022@17:34:56,"Mozilla/5.0 (Windows NT 10.0; Win64; x64) AppleWebKit/537.36 (KHTML, like Gecko) Chrome/99.0.4844.82 Safari/537.36",1280,720,1263,520,main,2949673,17,4,21,20,HE,Extreme,Harder than Reference,D,k,safeDeck,riskyDeck,28,0,14,left,0,0,46,absent,safeDeck,2433,2849
it1l37kgtyg,13460,27/03/2022@17:34:56,"Mozilla/5.0 (Windows NT 10.0; Win64; x64) AppleWebKit/537.36 (KHTML, like Gecko) Chrome/99.0.4844.82 Safari/537.36",1280,720,1263,520,main,2949673,17,5,21,20,HE,Extreme,Harder than Reference,D,j,safeDeck,riskyDeck,28,0,14,left,0,0,46,present,safeDeck,2433,1097
it1l37kgtyg,13460,27/03/2022@17:34:56,"Mozilla/5.0 (Windows NT 10.0; Win64; x64) AppleWebKit/537.36 (KHTML, like Gecko) Chrome/99.0.4844.82 Safari/537.36",1280,720,1263,520,main,2949673,17,6,22,20,HE,Extreme,Harder than Reference,D,k,safeDeck,riskyDeck,28,0,14,left,0,0,46,absent,safeDeck,2433,3131
it1l37kgtyg,13460,27/03/2022@17:34:56,"Mozilla/5.0 (Windows NT 10.0; Win64; x64) AppleWebKit/537.36 (KHTML, like Gecko) Chrome/99.0.4844.82 Safari/537.36",1280,720,1263,520,main,2949673,17,7,22,20,HE,Extreme,Harder than Reference,D,k,safeDeck,riskyDeck,28,0,14,left,0,0,46,absent,safeDeck,2433,2146
it1l37kgtyg,13460,27/03/2022@17:34:56,"Mozilla/5.0 (Windows NT 10.0; Win64; x64) AppleWebKit/537.36 (KHTML, like Gecko) Chrome/99.0.4844.82 Safari/537.36",1280,720,1263,520,main,2949673,17,8,22,20,HE,Extreme,Harder than Reference,D,j,safeDeck,riskyDeck,28,0,14,left,0,0,46,present,safeDeck,2433,1894
it1l37kgtyg,13460,27/03/2022@17:34:56,"Mozilla/5.0 (Windows NT 10.0; Win64; x64) AppleWebKit/537.36 (KHTML, like Gecko) Chrome/99.0.4844.82 Safari/537.36",1280,720,1263,520,main,2949673,17,9,22,20,HE,Extreme,Harder than Reference,D,k,safeDeck,riskyDeck,28,0,14,left,0,1,46,present,safeDeck,2433,2299
it1l37kgtyg,13460,27/03/2022@17:34:56,"Mozilla/5.0 (Windows NT 10.0; Win64; x64) AppleWebKit/537.36 (KHTML, like Gecko) Chrome/99.0.4844.82 Safari/537.36",1280,720,1263,520,main,2949673,17,10,22,20,HE,Extreme,Harder than Reference,D,k,safeDeck,riskyDeck,28,0,14,left,0,1,46,present,safeDeck,2433,8814
it1l37kgtyg,13460,27/03/2022@17:34:56,"Mozilla/5.0 (Windows NT 10.0; Win64; x64) AppleWebKit/537.36 (KHTML, like Gecko) Chrome/99.0.4844.82 Safari/537.36",1280,720,1263,520,main,2949673,17,11,22,20,HE,Extreme,Harder than Reference,D,j,safeDeck,riskyDeck,28,0,14,left,0,0,46,present,safeDeck,2433,731
it1l37kgtyg,13460,27/03/2022@17:34:56,"Mozilla/5.0 (Windows NT 10.0; Win64; x64) AppleWebKit/537.36 (KHTML, like Gecko) Chrome/99.0.4844.82 Safari/537.36",1280,720,1263,520,main,2949673,17,12,22,20,HE,Extreme,Harder than Reference,D,k,safeDeck,riskyDeck,28,0,14,left,0,1,46,present,safeDeck,2433,1289
it1l37kgtyg,13460,27/03/2022@17:34:56,"Mozilla/5.0 (Windows NT 10.0; Win64; x64) AppleWebKit/537.36 (KHTML, like Gecko) Chrome/99.0.4844.82 Safari/537.36",1280,720,1263,520,main,2949673,17,13,22,20,HE,Extreme,Harder than Reference,D,j,safeDeck,riskyDeck,28,0,14,left,0,0,46,present,safeDeck,2433,619
it1l37kgtyg,13460,27/03/2022@17:34:56,"Mozilla/5.0 (Windows NT 10.0; Win64; x64) AppleWebKit/537.36 (KHTML, like Gecko) Chrome/99.0.4844.82 Safari/537.36",1280,720,1263,520,main,2949673,17,14,22,20,HE,Extreme,Harder than Reference,D,k,safeDeck,riskyDeck,28,0,14,left,0,0,46,absent,safeDeck,2433,563
it1l37kgtyg,13460,27/03/2022@17:34:56,"Mozilla/5.0 (Windows NT 10.0; Win64; x64) AppleWebKit/537.36 (KHTML, like Gecko) Chrome/99.0.4844.82 Safari/537.36",1280,720,1263,520,main,2949673,17,15,22,20,HE,Extreme,Harder than Reference,D,k,safeDeck,riskyDeck,28,0,14,left,0,1,46,present,safeDeck,2433,800
it1l37kgtyg,13460,27/03/2022@17:34:56,"Mozilla/5.0 (Windows NT 10.0; Win64; x64) AppleWebKit/537.36 (KHTML, like Gecko) Chrome/99.0.4844.82 Safari/537.36",1280,720,1263,520,main,2949673,17,16,22,20,HE,Extreme,Harder than Reference,D,k,safeDeck,riskyDeck,28,0,14,left,0,0,46,absent,safeDeck,2433,519
it1l37kgtyg,13460,27/03/2022@17:34:56,"Mozilla/5.0 (Windows NT 10.0; Win64; x64) AppleWebKit/537.36 (KHTML, like Gecko) Chrome/99.0.4844.82 Safari/537.36",1280,720,1263,520,main,2949673,17,17,22,20,HE,Extreme,Harder than Reference,D,k,safeDeck,riskyDeck,28,0,14,left,0,1,46,present,safeDeck,2433,1018
it1l37kgtyg,13460,27/03/2022@17:34:56,"Mozilla/5.0 (Windows NT 10.0; Win64; x64) AppleWebKit/537.36 (KHTML, like Gecko) Chrome/99.0.4844.82 Safari/537.36",1280,720,1263,520,main,2949673,18,1,22,20,EM,Moderate,Easier than Reference,F,k,safeDeck,riskyDeck,-28,0,-14,right,1,1,32,present,riskyDeck,2320,804
it1l37kgtyg,13460,27/03/2022@17:34:56,"Mozilla/5.0 (Windows NT 10.0; Win64; x64) AppleWebKit/537.36 (KHTML, like Gecko) Chrome/99.0.4844.82 Safari/537.36",1280,720,1263,520,main,2949673,18,2,22,20,EM,Moderate,Easier than Reference,F,j,safeDeck,riskyDeck,-28,0,-14,right,1,0,32,present,riskyDeck,2320,1374
it1l37kgtyg,13460,27/03/2022@17:34:56,"Mozilla/5.0 (Windows NT 10.0; Win64; x64) AppleWebKit/537.36 (KHTML, like Gecko) Chrome/99.0.4844.82 Safari/537.36",1280,720,1263,520,main,2949673,18,3,22,20,EM,Moderate,Easier than Reference,F,k,safeDeck,riskyDeck,-28,0,-14,right,1,0,32,absent,riskyDeck,2320,2209
it1l37kgtyg,13460,27/03/2022@17:34:56,"Mozilla/5.0 (Windows NT 10.0; Win64; x64) AppleWebKit/537.36 (KHTML, like Gecko) Chrome/99.0.4844.82 Safari/537.36",1280,720,1263,520,main,2949673,18,4,22,20,EM,Moderate,Easier than Reference,F,k,safeDeck,riskyDeck,-28,0,-14,right,1,0,32,absent,riskyDeck,2320,2257
it1l37kgtyg,13460,27/03/2022@17:34:56,"Mozilla/5.0 (Windows NT 10.0; Win64; x64) AppleWebKit/537.36 (KHTML, like Gecko) Chrome/99.0.4844.82 Safari/537.36",1280,720,1263,520,main,2949673,18,5,22,20,EM,Moderate,Easier than Reference,F,k,safeDeck,riskyDeck,-28,0,-14,right,1,0,32,absent,riskyDeck,2320,2490
it1l37kgtyg,13460,27/03/2022@17:34:56,"Mozilla/5.0 (Windows NT 10.0; Win64; x64) AppleWebKit/537.36 (KHTML, like Gecko) Chrome/99.0.4844.82 Safari/537.36",1280,720,1263,520,main,2949673,18,6,22,21,EM,Moderate,Easier than Reference,F,k,safeDeck,riskyDeck,-28,0,-14,right,1,1,32,present,riskyDeck,2320,2884
it1l37kgtyg,13460,27/03/2022@17:34:56,"Mozilla/5.0 (Windows NT 10.0; Win64; x64) AppleWebKit/537.36 (KHTML, like Gecko) Chrome/99.0.4844.82 Safari/537.36",1280,720,1263,520,main,2949673,18,7,22,21,EM,Moderate,Easier than Reference,F,k,safeDeck,riskyDeck,-28,0,-14,right,1,0,32,absent,riskyDeck,2320,1249
it1l37kgtyg,13460,27/03/2022@17:34:56,"Mozilla/5.0 (Windows NT 10.0; Win64; x64) AppleWebKit/537.36 (KHTML, like Gecko) Chrome/99.0.4844.82 Safari/537.36",1280,720,1263,520,main,2949673,18,8,23,21,EM,Moderate,Easier than Reference,F,k,safeDeck,riskyDeck,-28,0,-14,right,1,0,32,absent,riskyDeck,2320,1511
it1l37kgtyg,13460,27/03/2022@17:34:56,"Mozilla/5.0 (Windows NT 10.0; Win64; x64) AppleWebKit/537.36 (KHTML, like Gecko) Chrome/99.0.4844.82 Safari/537.36",1280,720,1263,520,main,2949673,18,9,23,21,EM,Moderate,Easier than Reference,F,j,safeDeck,riskyDeck,-28,0,-14,right,1,0,32,present,riskyDeck,2320,1002
it1l37kgtyg,13460,27/03/2022@17:34:56,"Mozilla/5.0 (Windows NT 10.0; Win64; x64) AppleWebKit/537.36 (KHTML, like Gecko) Chrome/99.0.4844.82 Safari/537.36",1280,720,1263,520,main,2949673,18,10,23,21,EM,Moderate,Easier than Reference,F,k,safeDeck,riskyDeck,-28,0,-14,right,1,1,32,present,riskyDeck,2320,1861
it1l37kgtyg,13460,27/03/2022@17:34:56,"Mozilla/5.0 (Windows NT 10.0; Win64; x64) AppleWebKit/537.36 (KHTML, like Gecko) Chrome/99.0.4844.82 Safari/537.36",1280,720,1263,520,main,2949673,18,11,23,21,EM,Moderate,Easier than Reference,F,k,safeDeck,riskyDeck,-28,0,-14,right,1,0,32,absent,riskyDeck,2320,1998
it1l37kgtyg,13460,27/03/2022@17:34:56,"Mozilla/5.0 (Windows NT 10.0; Win64; x64) AppleWebKit/537.36 (KHTML, like Gecko) Chrome/99.0.4844.82 Safari/537.36",1280,720,1263,520,main,2949673,18,12,23,21,EM,Moderate,Easier than Reference,F,j,safeDeck,riskyDeck,-28,0,-14,right,1,0,32,present,riskyDeck,2320,3274
it1l37kgtyg,13460,27/03/2022@17:34:56,"Mozilla/5.0 (Windows NT 10.0; Win64; x64) AppleWebKit/537.36 (KHTML, like Gecko) Chrome/99.0.4844.82 Safari/537.36",1280,720,1263,520,main,2949673,18,13,23,21,EM,Moderate,Easier than Reference,F,k,safeDeck,riskyDeck,-28,0,-14,right,1,0,32,absent,riskyDeck,2320,2739
it1l37kgtyg,13460,27/03/2022@17:34:56,"Mozilla/5.0 (Windows NT 10.0; Win64; x64) AppleWebKit/537.36 (KHTML, like Gecko) Chrome/99.0.4844.82 Safari/537.36",1280,720,1263,520,main,2949673,18,14,23,21,EM,Moderate,Easier than Reference,F,j,safeDeck,riskyDeck,-28,0,-14,right,1,0,32,present,riskyDeck,2320,1350
it1l37kgtyg,13460,27/03/2022@17:34:56,"Mozilla/5.0 (Windows NT 10.0; Win64; x64) AppleWebKit/537.36 (KHTML, like Gecko) Chrome/99.0.4844.82 Safari/537.36",1280,720,1263,520,main,2949673,18,15,23,21,EM,Moderate,Easier than Reference,F,j,safeDeck,riskyDeck,-28,0,-14,right,1,0,32,present,riskyDeck,2320,3274
it1l37kgtyg,13460,27/03/2022@17:34:56,"Mozilla/5.0 (Windows NT 10.0; Win64; x64) AppleWebKit/537.36 (KHTML, like Gecko) Chrome/99.0.4844.82 Safari/537.36",1280,720,1263,520,main,2949673,18,16,23,21,EM,Moderate,Easier than Reference,F,j,safeDeck,riskyDeck,-28,0,-14,right,1,0,32,present,riskyDeck,2320,1660
it1l37kgtyg,13460,27/03/2022@17:34:56,"Mozilla/5.0 (Windows NT 10.0; Win64; x64) AppleWebKit/537.36 (KHTML, like Gecko) Chrome/99.0.4844.82 Safari/537.36",1280,720,1263,520,main,2949673,18,17,23,21,EM,Moderate,Easier than Reference,F,j,safeDeck,riskyDeck,-28,0,-14,right,1,0,32,present,riskyDeck,2320,2529
it1l37kgtyg,13460,27/03/2022@17:34:56,"Mozilla/5.0 (Windows NT 10.0; Win64; x64) AppleWebKit/537.36 (KHTML, like Gecko) Chrome/99.0.4844.82 Safari/537.36",1280,720,1263,520,main,2949673,19,1,23,21,HM,Moderate,Harder than Reference,F,k,safeDeck,riskyDeck,0,14,7,right,1,1,46,present,riskyDeck,1651,4219
it1l37kgtyg,13460,27/03/2022@17:34:56,"Mozilla/5.0 (Windows NT 10.0; Win64; x64) AppleWebKit/537.36 (KHTML, like Gecko) Chrome/99.0.4844.82 Safari/537.36",1280,720,1263,520,main,2949673,19,2,23,21,HM,Moderate,Harder than Reference,F,k,safeDeck,riskyDeck,0,14,7,right,1,1,46,present,riskyDeck,1651,3930
it1l37kgtyg,13460,27/03/2022@17:34:56,"Mozilla/5.0 (Windows NT 10.0; Win64; x64) AppleWebKit/537.36 (KHTML, like Gecko) Chrome/99.0.4844.82 Safari/537.36",1280,720,1263,520,main,2949673,19,3,23,21,HM,Moderate,Harder than Reference,F,k,safeDeck,riskyDeck,0,14,7,right,1,0,46,absent,riskyDeck,1651,4566
it1l37kgtyg,13460,27/03/2022@17:34:56,"Mozilla/5.0 (Windows NT 10.0; Win64; x64) AppleWebKit/537.36 (KHTML, like Gecko) Chrome/99.0.4844.82 Safari/537.36",1280,720,1263,520,main,2949673,19,4,23,21,HM,Moderate,Harder than Reference,F,j,safeDeck,riskyDeck,0,14,7,right,1,1,46,absent,riskyDeck,1651,2974
it1l37kgtyg,13460,27/03/2022@17:34:56,"Mozilla/5.0 (Windows NT 10.0; Win64; x64) AppleWebKit/537.36 (KHTML, like Gecko) Chrome/99.0.4844.82 Safari/537.36",1280,720,1263,520,main,2949673,19,5,23,22,HM,Moderate,Harder than Reference,F,j,safeDeck,riskyDeck,0,14,7,right,1,0,46,present,riskyDeck,1651,5063
it1l37kgtyg,13460,27/03/2022@17:34:56,"Mozilla/5.0 (Windows NT 10.0; Win64; x64) AppleWebKit/537.36 (KHTML, like Gecko) Chrome/99.0.4844.82 Safari/537.36",1280,720,1263,520,main,2949673,19,6,23,22,HM,Moderate,Harder than Reference,F,k,safeDeck,riskyDeck,0,14,7,right,1,1,46,present,riskyDeck,1651,2804
it1l37kgtyg,13460,27/03/2022@17:34:56,"Mozilla/5.0 (Windows NT 10.0; Win64; x64) AppleWebKit/537.36 (KHTML, like Gecko) Chrome/99.0.4844.82 Safari/537.36",1280,720,1263,520,main,2949673,19,7,24,22,HM,Moderate,Harder than Reference,F,k,safeDeck,riskyDeck,0,14,7,right,1,0,46,absent,riskyDeck,1651,8596
it1l37kgtyg,13460,27/03/2022@17:34:56,"Mozilla/5.0 (Windows NT 10.0; Win64; x64) AppleWebKit/537.36 (KHTML, like Gecko) Chrome/99.0.4844.82 Safari/537.36",1280,720,1263,520,main,2949673,19,8,24,22,HM,Moderate,Harder than Reference,F,k,safeDeck,riskyDeck,0,14,7,right,1,1,46,present,riskyDeck,1651,1555
it1l37kgtyg,13460,27/03/2022@17:34:56,"Mozilla/5.0 (Windows NT 10.0; Win64; x64) AppleWebKit/537.36 (KHTML, like Gecko) Chrome/99.0.4844.82 Safari/537.36",1280,720,1263,520,main,2949673,19,9,25,23,HM,Moderate,Harder than Reference,F,k,safeDeck,riskyDeck,0,14,7,right,1,0,46,absent,riskyDeck,1651,70945
it1l37kgtyg,13460,27/03/2022@17:34:56,"Mozilla/5.0 (Windows NT 10.0; Win64; x64) AppleWebKit/537.36 (KHTML, like Gecko) Chrome/99.0.4844.82 Safari/537.36",1280,720,1263,520,main,2949673,19,10,25,23,HM,Moderate,Harder than Reference,F,k,safeDeck,riskyDeck,0,14,7,right,1,0,46,absent,riskyDeck,1651,1913
it1l37kgtyg,13460,27/03/2022@17:34:56,"Mozilla/5.0 (Windows NT 10.0; Win64; x64) AppleWebKit/537.36 (KHTML, like Gecko) Chrome/99.0.4844.82 Safari/537.36",1280,720,1263,520,main,2949673,19,11,25,23,HM,Moderate,Harder than Reference,F,k,safeDeck,riskyDeck,0,14,7,right,1,1,46,present,riskyDeck,1651,2287
it1l37kgtyg,13460,27/03/2022@17:34:56,"Mozilla/5.0 (Windows NT 10.0; Win64; x64) AppleWebKit/537.36 (KHTML, like Gecko) Chrome/99.0.4844.82 Safari/537.36",1280,720,1263,520,main,2949673,19,12,25,23,HM,Moderate,Harder than Reference,F,k,safeDeck,riskyDeck,0,14,7,right,1,1,46,present,riskyDeck,1651,1914
it1l37kgtyg,13460,27/03/2022@17:34:56,"Mozilla/5.0 (Windows NT 10.0; Win64; x64) AppleWebKit/537.36 (KHTML, like Gecko) Chrome/99.0.4844.82 Safari/537.36",1280,720,1263,520,main,2949673,19,13,25,23,HM,Moderate,Harder than Reference,F,k,safeDeck,riskyDeck,0,14,7,right,1,0,46,absent,riskyDeck,1651,1545
it1l37kgtyg,13460,27/03/2022@17:34:56,"Mozilla/5.0 (Windows NT 10.0; Win64; x64) AppleWebKit/537.36 (KHTML, like Gecko) Chrome/99.0.4844.82 Safari/537.36",1280,720,1263,520,main,2949673,19,14,25,23,HM,Moderate,Harder than Reference,F,k,safeDeck,riskyDeck,0,14,7,right,1,1,46,present,riskyDeck,1651,2439
it1l37kgtyg,13460,27/03/2022@17:34:56,"Mozilla/5.0 (Windows NT 10.0; Win64; x64) AppleWebKit/537.36 (KHTML, like Gecko) Chrome/99.0.4844.82 Safari/537.36",1280,720,1263,520,main,2949673,19,15,25,23,HM,Moderate,Harder than Reference,F,k,safeDeck,riskyDeck,0,14,7,right,1,0,46,absent,riskyDeck,1651,1384
it1l37kgtyg,13460,27/03/2022@17:34:56,"Mozilla/5.0 (Windows NT 10.0; Win64; x64) AppleWebKit/537.36 (KHTML, like Gecko) Chrome/99.0.4844.82 Safari/537.36",1280,720,1263,520,main,2949673,19,16,25,23,HM,Moderate,Harder than Reference,F,k,safeDeck,riskyDeck,0,14,7,right,1,1,46,present,riskyDeck,1651,2518
it1l37kgtyg,13460,27/03/2022@17:34:56,"Mozilla/5.0 (Windows NT 10.0; Win64; x64) AppleWebKit/537.36 (KHTML, like Gecko) Chrome/99.0.4844.82 Safari/537.36",1280,720,1263,520,main,2949673,19,17,25,24,HM,Moderate,Harder than Reference,F,k,safeDeck,riskyDeck,0,14,7,right,1,0,46,absent,riskyDeck,1651,2778
it1l37kgtyg,13460,27/03/2022@17:34:56,"Mozilla/5.0 (Windows NT 10.0; Win64; x64) AppleWebKit/537.36 (KHTML, like Gecko) Chrome/99.0.4844.82 Safari/537.36",1280,720,1263,520,main,2949673,20,1,26,24,EE,Extreme,Easier than Reference,D,k,riskyDeck,safeDeck,-14,0,-7,left,1,0,18,absent,riskyDeck,4301,1549
it1l37kgtyg,13460,27/03/2022@17:34:56,"Mozilla/5.0 (Windows NT 10.0; Win64; x64) AppleWebKit/537.36 (KHTML, like Gecko) Chrome/99.0.4844.82 Safari/537.36",1280,720,1263,520,main,2949673,20,2,26,24,EE,Extreme,Easier than Reference,D,j,riskyDeck,safeDeck,-14,0,-7,left,1,0,18,present,riskyDeck,4301,1184
it1l37kgtyg,13460,27/03/2022@17:34:56,"Mozilla/5.0 (Windows NT 10.0; Win64; x64) AppleWebKit/537.36 (KHTML, like Gecko) Chrome/99.0.4844.82 Safari/537.36",1280,720,1263,520,main,2949673,20,3,26,24,EE,Extreme,Easier than Reference,D,j,riskyDeck,safeDeck,-14,0,-7,left,1,0,18,present,riskyDeck,4301,2859
it1l37kgtyg,13460,27/03/2022@17:34:56,"Mozilla/5.0 (Windows NT 10.0; Win64; x64) AppleWebKit/537.36 (KHTML, like Gecko) Chrome/99.0.4844.82 Safari/537.36",1280,720,1263,520,main,2949673,20,4,26,24,EE,Extreme,Easier than Reference,D,k,riskyDeck,safeDeck,-14,0,-7,left,1,0,18,absent,riskyDeck,4301,2854
it1l37kgtyg,13460,27/03/2022@17:34:56,"Mozilla/5.0 (Windows NT 10.0; Win64; x64) AppleWebKit/537.36 (KHTML, like Gecko) Chrome/99.0.4844.82 Safari/537.36",1280,720,1263,520,main,2949673,20,5,26,24,EE,Extreme,Easier than Reference,D,j,riskyDeck,safeDeck,-14,0,-7,left,1,0,18,present,riskyDeck,4301,523
it1l37kgtyg,13460,27/03/2022@17:34:56,"Mozilla/5.0 (Windows NT 10.0; Win64; x64) AppleWebKit/537.36 (KHTML, like Gecko) Chrome/99.0.4844.82 Safari/537.36",1280,720,1263,520,main,2949673,20,6,26,24,EE,Extreme,Easier than Reference,D,k,riskyDeck,safeDeck,-14,0,-7,left,1,0,18,absent,riskyDeck,4301,3068
it1l37kgtyg,13460,27/03/2022@17:34:56,"Mozilla/5.0 (Windows NT 10.0; Win64; x64) AppleWebKit/537.36 (KHTML, like Gecko) Chrome/99.0.4844.82 Safari/537.36",1280,720,1263,520,main,2949673,20,7,26,24,EE,Extreme,Easier than Reference,D,k,riskyDeck,safeDeck,-14,0,-7,left,1,0,18,absent,riskyDeck,4301,2091
it1l37kgtyg,13460,27/03/2022@17:34:56,"Mozilla/5.0 (Windows NT 10.0; Win64; x64) AppleWebKit/537.36 (KHTML, like Gecko) Chrome/99.0.4844.82 Safari/537.36",1280,720,1263,520,main,2949673,20,8,26,24,EE,Extreme,Easier than Reference,D,j,riskyDeck,safeDeck,-14,0,-7,left,1,0,18,present,riskyDeck,4301,1600
