"subject","choice_rt_m","choice_rt_sd","sona_id","curTime","userAgent","screenWidth","screenHeight","windowWidth","windowHeight","phase","phase_run_time","choice_trial","search_trial","exp_runtime_mins","phase_runtime_mins","condition","magnitude","direction","choice_response_key","search_response_key","left_deck_id","right_deck_id","risky_deck_outcome_top","risky_deck_outcome_bottom","safe_deck_outcome","selected_deck_location","selectedRiskyDeck","error","n_stimuli","present_or_absent","chosenDeckId","choice_rt","search_rt","selected_deck_location_num","ssd"
"hy8mfnecik7_pilot",1447.38461538462,616.10446465203,"test","22/03/2022@13:57:31","Mozilla/5.0 (Macintosh; Intel Mac OS X 10_15_5) AppleWebKit/537.36 (KHTML, like Gecko) Chrome/99.0.4844.74 Safari/537.36",1280,800,1280,651,"main",2445171,4,1,12,9,"HE","Extreme","Harder than Reference","F","k","safeDeck","riskyDeck",0,28,14,"right",1,0,32,"absent","riskyDeck",2016,3368,1,0
"hy8mfnecik7_pilot",1447.38461538462,616.10446465203,"test","22/03/2022@13:57:31","Mozilla/5.0 (Macintosh; Intel Mac OS X 10_15_5) AppleWebKit/537.36 (KHTML, like Gecko) Chrome/99.0.4844.74 Safari/537.36",1280,800,1280,651,"main",2445171,4,2,12,9,"HE","Extreme","Harder than Reference","F","k","safeDeck","riskyDeck",0,28,14,"right",1,0,32,"absent","riskyDeck",2016,3150,1,0
"hy8mfnecik7_pilot",1447.38461538462,616.10446465203,"test","22/03/2022@13:57:31","Mozilla/5.0 (Macintosh; Intel Mac OS X 10_15_5) AppleWebKit/537.36 (KHTML, like Gecko) Chrome/99.0.4844.74 Safari/537.36",1280,800,1280,651,"main",2445171,4,3,12,9,"HE","Extreme","Harder than Reference","F","k","safeDeck","riskyDeck",0,28,14,"right",1,0,32,"absent","riskyDeck",2016,2567,1,0
"hy8mfnecik7_pilot",1447.38461538462,616.10446465203,"test","22/03/2022@13:57:31","Mozilla/5.0 (Macintosh; Intel Mac OS X 10_15_5) AppleWebKit/537.36 (KHTML, like Gecko) Chrome/99.0.4844.74 Safari/537.36",1280,800,1280,651,"main",2445171,4,4,12,10,"HE","Extreme","Harder than Reference","F","k","safeDeck","riskyDeck",0,28,14,"right",1,0,32,"absent","riskyDeck",2016,4655,1,0
"hy8mfnecik7_pilot",1447.38461538462,616.10446465203,"test","22/03/2022@13:57:31","Mozilla/5.0 (Macintosh; Intel Mac OS X 10_15_5) AppleWebKit/537.36 (KHTML, like Gecko) Chrome/99.0.4844.74 Safari/537.36",1280,800,1280,651,"main",2445171,4,5,12,10,"HE","Extreme","Harder than Reference","F","k","safeDeck","riskyDeck",0,28,14,"right",1,0,32,"absent","riskyDeck",2016,4085,1,0
"hy8mfnecik7_pilot",1447.38461538462,616.10446465203,"test","22/03/2022@13:57:31","Mozilla/5.0 (Macintosh; Intel Mac OS X 10_15_5) AppleWebKit/537.36 (KHTML, like Gecko) Chrome/99.0.4844.74 Safari/537.36",1280,800,1280,651,"main",2445171,4,6,13,10,"HE","Extreme","Harder than Reference","F","k","safeDeck","riskyDeck",0,28,14,"right",1,0,32,"absent","riskyDeck",2016,3483,1,0
"hy8mfnecik7_pilot",1447.38461538462,616.10446465203,"test","22/03/2022@13:57:31","Mozilla/5.0 (Macintosh; Intel Mac OS X 10_15_5) AppleWebKit/537.36 (KHTML, like Gecko) Chrome/99.0.4844.74 Safari/537.36",1280,800,1280,651,"main",2445171,4,7,13,10,"HE","Extreme","Harder than Reference","F","j","safeDeck","riskyDeck",0,28,14,"right",1,0,32,"present","riskyDeck",2016,799,1,0
"hy8mfnecik7_pilot",1447.38461538462,616.10446465203,"test","22/03/2022@13:57:31","Mozilla/5.0 (Macintosh; Intel Mac OS X 10_15_5) AppleWebKit/537.36 (KHTML, like Gecko) Chrome/99.0.4844.74 Safari/537.36",1280,800,1280,651,"main",2445171,4,8,13,10,"HE","Extreme","Harder than Reference","F","k","safeDeck","riskyDeck",0,28,14,"right",1,0,32,"absent","riskyDeck",2016,3956,1,0
"hy8mfnecik7_pilot",1447.38461538462,616.10446465203,"test","22/03/2022@13:57:31","Mozilla/5.0 (Macintosh; Intel Mac OS X 10_15_5) AppleWebKit/537.36 (KHTML, like Gecko) Chrome/99.0.4844.74 Safari/537.36",1280,800,1280,651,"main",2445171,4,9,13,10,"HE","Extreme","Harder than Reference","F","j","safeDeck","riskyDeck",0,28,14,"right",1,0,32,"present","riskyDeck",2016,911,1,0
"hy8mfnecik7_pilot",1447.38461538462,616.10446465203,"test","22/03/2022@13:57:31","Mozilla/5.0 (Macintosh; Intel Mac OS X 10_15_5) AppleWebKit/537.36 (KHTML, like Gecko) Chrome/99.0.4844.74 Safari/537.36",1280,800,1280,651,"main",2445171,4,10,13,10,"HE","Extreme","Harder than Reference","F","j","safeDeck","riskyDeck",0,28,14,"right",1,0,32,"present","riskyDeck",2016,1403,1,0
"hy8mfnecik7_pilot",1447.38461538462,616.10446465203,"test","22/03/2022@13:57:31","Mozilla/5.0 (Macintosh; Intel Mac OS X 10_15_5) AppleWebKit/537.36 (KHTML, like Gecko) Chrome/99.0.4844.74 Safari/537.36",1280,800,1280,651,"main",2445171,4,11,13,10,"HE","Extreme","Harder than Reference","F","j","safeDeck","riskyDeck",0,28,14,"right",1,0,32,"present","riskyDeck",2016,1297,1,0
"hy8mfnecik7_pilot",1447.38461538462,616.10446465203,"test","22/03/2022@13:57:31","Mozilla/5.0 (Macintosh; Intel Mac OS X 10_15_5) AppleWebKit/537.36 (KHTML, like Gecko) Chrome/99.0.4844.74 Safari/537.36",1280,800,1280,651,"main",2445171,4,12,13,10,"HE","Extreme","Harder than Reference","F","k","safeDeck","riskyDeck",0,28,14,"right",1,0,32,"absent","riskyDeck",2016,4902,1,0
"hy8mfnecik7_pilot",1447.38461538462,616.10446465203,"test","22/03/2022@13:57:31","Mozilla/5.0 (Macintosh; Intel Mac OS X 10_15_5) AppleWebKit/537.36 (KHTML, like Gecko) Chrome/99.0.4844.74 Safari/537.36",1280,800,1280,651,"main",2445171,4,13,13,10,"HE","Extreme","Harder than Reference","F","j","safeDeck","riskyDeck",0,28,14,"right",1,0,32,"present","riskyDeck",2016,1680,1,0
"hy8mfnecik7_pilot",1447.38461538462,616.10446465203,"test","22/03/2022@13:57:31","Mozilla/5.0 (Macintosh; Intel Mac OS X 10_15_5) AppleWebKit/537.36 (KHTML, like Gecko) Chrome/99.0.4844.74 Safari/537.36",1280,800,1280,651,"main",2445171,4,14,13,10,"HE","Extreme","Harder than Reference","F","j","safeDeck","riskyDeck",0,28,14,"right",1,0,32,"present","riskyDeck",2016,2463,1,0
"hy8mfnecik7_pilot",1447.38461538462,616.10446465203,"test","22/03/2022@13:57:31","Mozilla/5.0 (Macintosh; Intel Mac OS X 10_15_5) AppleWebKit/537.36 (KHTML, like Gecko) Chrome/99.0.4844.74 Safari/537.36",1280,800,1280,651,"main",2445171,4,15,13,10,"HE","Extreme","Harder than Reference","F","j","safeDeck","riskyDeck",0,28,14,"right",1,0,32,"present","riskyDeck",2016,790,1,0
"hy8mfnecik7_pilot",1447.38461538462,616.10446465203,"test","22/03/2022@13:57:31","Mozilla/5.0 (Macintosh; Intel Mac OS X 10_15_5) AppleWebKit/537.36 (KHTML, like Gecko) Chrome/99.0.4844.74 Safari/537.36",1280,800,1280,651,"main",2445171,4,16,13,10,"HE","Extreme","Harder than Reference","F","k","safeDeck","riskyDeck",0,28,14,"right",1,0,32,"absent","riskyDeck",2016,4575,1,0
"hy8mfnecik7_pilot",1447.38461538462,616.10446465203,"test","22/03/2022@13:57:31","Mozilla/5.0 (Macintosh; Intel Mac OS X 10_15_5) AppleWebKit/537.36 (KHTML, like Gecko) Chrome/99.0.4844.74 Safari/537.36",1280,800,1280,651,"main",2445171,4,17,13,10,"HE","Extreme","Harder than Reference","F","k","safeDeck","riskyDeck",0,28,14,"right",1,0,32,"absent","riskyDeck",2016,3719,1,0
"hy8mfnecik7_pilot",1447.38461538462,616.10446465203,"test","22/03/2022@13:57:31","Mozilla/5.0 (Macintosh; Intel Mac OS X 10_15_5) AppleWebKit/537.36 (KHTML, like Gecko) Chrome/99.0.4844.74 Safari/537.36",1280,800,1280,651,"main",2445171,5,1,13,10,"EE","Extreme","Easier than Reference","D","j","riskyDeck","safeDeck",-14,0,-7,"left",1,0,18,"present","riskyDeck",1398,1267,-1,0
"hy8mfnecik7_pilot",1447.38461538462,616.10446465203,"test","22/03/2022@13:57:31","Mozilla/5.0 (Macintosh; Intel Mac OS X 10_15_5) AppleWebKit/537.36 (KHTML, like Gecko) Chrome/99.0.4844.74 Safari/537.36",1280,800,1280,651,"main",2445171,5,2,13,10,"EE","Extreme","Easier than Reference","D","j","riskyDeck","safeDeck",-14,0,-7,"left",1,0,18,"present","riskyDeck",1398,749,-1,0
"hy8mfnecik7_pilot",1447.38461538462,616.10446465203,"test","22/03/2022@13:57:31","Mozilla/5.0 (Macintosh; Intel Mac OS X 10_15_5) AppleWebKit/537.36 (KHTML, like Gecko) Chrome/99.0.4844.74 Safari/537.36",1280,800,1280,651,"main",2445171,5,3,13,10,"EE","Extreme","Easier than Reference","D","k","riskyDeck","safeDeck",-14,0,-7,"left",1,0,18,"absent","riskyDeck",1398,2715,-1,0
"hy8mfnecik7_pilot",1447.38461538462,616.10446465203,"test","22/03/2022@13:57:31","Mozilla/5.0 (Macintosh; Intel Mac OS X 10_15_5) AppleWebKit/537.36 (KHTML, like Gecko) Chrome/99.0.4844.74 Safari/537.36",1280,800,1280,651,"main",2445171,5,4,13,10,"EE","Extreme","Easier than Reference","D","k","riskyDeck","safeDeck",-14,0,-7,"left",1,0,18,"absent","riskyDeck",1398,2368,-1,0
"hy8mfnecik7_pilot",1447.38461538462,616.10446465203,"test","22/03/2022@13:57:31","Mozilla/5.0 (Macintosh; Intel Mac OS X 10_15_5) AppleWebKit/537.36 (KHTML, like Gecko) Chrome/99.0.4844.74 Safari/537.36",1280,800,1280,651,"main",2445171,5,5,13,10,"EE","Extreme","Easier than Reference","D","k","riskyDeck","safeDeck",-14,0,-7,"left",1,0,18,"absent","riskyDeck",1398,2843,-1,0
"hy8mfnecik7_pilot",1447.38461538462,616.10446465203,"test","22/03/2022@13:57:31","Mozilla/5.0 (Macintosh; Intel Mac OS X 10_15_5) AppleWebKit/537.36 (KHTML, like Gecko) Chrome/99.0.4844.74 Safari/537.36",1280,800,1280,651,"main",2445171,5,6,13,10,"EE","Extreme","Easier than Reference","D","j","riskyDeck","safeDeck",-14,0,-7,"left",1,0,18,"present","riskyDeck",1398,1002,-1,0
"hy8mfnecik7_pilot",1447.38461538462,616.10446465203,"test","22/03/2022@13:57:31","Mozilla/5.0 (Macintosh; Intel Mac OS X 10_15_5) AppleWebKit/537.36 (KHTML, like Gecko) Chrome/99.0.4844.74 Safari/537.36",1280,800,1280,651,"main",2445171,5,7,13,10,"EE","Extreme","Easier than Reference","D","j","riskyDeck","safeDeck",-14,0,-7,"left",1,0,18,"present","riskyDeck",1398,1597,-1,0
"hy8mfnecik7_pilot",1447.38461538462,616.10446465203,"test","22/03/2022@13:57:31","Mozilla/5.0 (Macintosh; Intel Mac OS X 10_15_5) AppleWebKit/537.36 (KHTML, like Gecko) Chrome/99.0.4844.74 Safari/537.36",1280,800,1280,651,"main",2445171,5,8,13,11,"EE","Extreme","Easier than Reference","D","k","riskyDeck","safeDeck",-14,0,-7,"left",1,0,18,"absent","riskyDeck",1398,3558,-1,0
"hy8mfnecik7_pilot",1447.38461538462,616.10446465203,"test","22/03/2022@13:57:31","Mozilla/5.0 (Macintosh; Intel Mac OS X 10_15_5) AppleWebKit/537.36 (KHTML, like Gecko) Chrome/99.0.4844.74 Safari/537.36",1280,800,1280,651,"main",2445171,5,9,13,11,"EE","Extreme","Easier than Reference","D","k","riskyDeck","safeDeck",-14,0,-7,"left",1,0,18,"absent","riskyDeck",1398,2386,-1,0
"hy8mfnecik7_pilot",1447.38461538462,616.10446465203,"test","22/03/2022@13:57:31","Mozilla/5.0 (Macintosh; Intel Mac OS X 10_15_5) AppleWebKit/537.36 (KHTML, like Gecko) Chrome/99.0.4844.74 Safari/537.36",1280,800,1280,651,"main",2445171,5,10,13,11,"EE","Extreme","Easier than Reference","D","k","riskyDeck","safeDeck",-14,0,-7,"left",1,0,18,"absent","riskyDeck",1398,3089,-1,0
"hy8mfnecik7_pilot",1447.38461538462,616.10446465203,"test","22/03/2022@13:57:31","Mozilla/5.0 (Macintosh; Intel Mac OS X 10_15_5) AppleWebKit/537.36 (KHTML, like Gecko) Chrome/99.0.4844.74 Safari/537.36",1280,800,1280,651,"main",2445171,5,11,14,11,"EE","Extreme","Easier than Reference","D","j","riskyDeck","safeDeck",-14,0,-7,"left",1,0,18,"present","riskyDeck",1398,1401,-1,0
"hy8mfnecik7_pilot",1447.38461538462,616.10446465203,"test","22/03/2022@13:57:31","Mozilla/5.0 (Macintosh; Intel Mac OS X 10_15_5) AppleWebKit/537.36 (KHTML, like Gecko) Chrome/99.0.4844.74 Safari/537.36",1280,800,1280,651,"main",2445171,5,12,14,11,"EE","Extreme","Easier than Reference","D","k","riskyDeck","safeDeck",-14,0,-7,"left",1,0,18,"absent","riskyDeck",1398,2513,-1,0
"hy8mfnecik7_pilot",1447.38461538462,616.10446465203,"test","22/03/2022@13:57:31","Mozilla/5.0 (Macintosh; Intel Mac OS X 10_15_5) AppleWebKit/537.36 (KHTML, like Gecko) Chrome/99.0.4844.74 Safari/537.36",1280,800,1280,651,"main",2445171,5,13,14,11,"EE","Extreme","Easier than Reference","D","j","riskyDeck","safeDeck",-14,0,-7,"left",1,0,18,"present","riskyDeck",1398,812,-1,0
"hy8mfnecik7_pilot",1447.38461538462,616.10446465203,"test","22/03/2022@13:57:31","Mozilla/5.0 (Macintosh; Intel Mac OS X 10_15_5) AppleWebKit/537.36 (KHTML, like Gecko) Chrome/99.0.4844.74 Safari/537.36",1280,800,1280,651,"main",2445171,5,14,14,11,"EE","Extreme","Easier than Reference","D","j","riskyDeck","safeDeck",-14,0,-7,"left",1,0,18,"present","riskyDeck",1398,775,-1,0
"hy8mfnecik7_pilot",1447.38461538462,616.10446465203,"test","22/03/2022@13:57:31","Mozilla/5.0 (Macintosh; Intel Mac OS X 10_15_5) AppleWebKit/537.36 (KHTML, like Gecko) Chrome/99.0.4844.74 Safari/537.36",1280,800,1280,651,"main",2445171,5,15,14,11,"EE","Extreme","Easier than Reference","D","k","riskyDeck","safeDeck",-14,0,-7,"left",1,0,18,"absent","riskyDeck",1398,2054,-1,0
"hy8mfnecik7_pilot",1447.38461538462,616.10446465203,"test","22/03/2022@13:57:31","Mozilla/5.0 (Macintosh; Intel Mac OS X 10_15_5) AppleWebKit/537.36 (KHTML, like Gecko) Chrome/99.0.4844.74 Safari/537.36",1280,800,1280,651,"main",2445171,5,16,14,11,"EE","Extreme","Easier than Reference","D","k","riskyDeck","safeDeck",-14,0,-7,"left",1,0,18,"absent","riskyDeck",1398,2269,-1,0
"hy8mfnecik7_pilot",1447.38461538462,616.10446465203,"test","22/03/2022@13:57:31","Mozilla/5.0 (Macintosh; Intel Mac OS X 10_15_5) AppleWebKit/537.36 (KHTML, like Gecko) Chrome/99.0.4844.74 Safari/537.36",1280,800,1280,651,"main",2445171,5,17,14,11,"EE","Extreme","Easier than Reference","D","j","riskyDeck","safeDeck",-14,0,-7,"left",1,0,18,"present","riskyDeck",1398,1140,-1,0
"hy8mfnecik7_pilot",1447.38461538462,616.10446465203,"test","22/03/2022@13:57:31","Mozilla/5.0 (Macintosh; Intel Mac OS X 10_15_5) AppleWebKit/537.36 (KHTML, like Gecko) Chrome/99.0.4844.74 Safari/537.36",1280,800,1280,651,"main",2445171,6,1,14,11,"EM","Moderate","Easier than Reference","D","k","safeDeck","riskyDeck",-28,0,-14,"left",0,0,18,"absent","safeDeck",1024,2388,-1,1
"hy8mfnecik7_pilot",1447.38461538462,616.10446465203,"test","22/03/2022@13:57:31","Mozilla/5.0 (Macintosh; Intel Mac OS X 10_15_5) AppleWebKit/537.36 (KHTML, like Gecko) Chrome/99.0.4844.74 Safari/537.36",1280,800,1280,651,"main",2445171,6,2,14,11,"EM","Moderate","Easier than Reference","D","j","safeDeck","riskyDeck",-28,0,-14,"left",0,0,18,"present","safeDeck",1024,733,-1,1
"hy8mfnecik7_pilot",1447.38461538462,616.10446465203,"test","22/03/2022@13:57:31","Mozilla/5.0 (Macintosh; Intel Mac OS X 10_15_5) AppleWebKit/537.36 (KHTML, like Gecko) Chrome/99.0.4844.74 Safari/537.36",1280,800,1280,651,"main",2445171,6,3,14,11,"EM","Moderate","Easier than Reference","D","k","safeDeck","riskyDeck",-28,0,-14,"left",0,0,18,"absent","safeDeck",1024,2036,-1,1
"hy8mfnecik7_pilot",1447.38461538462,616.10446465203,"test","22/03/2022@13:57:31","Mozilla/5.0 (Macintosh; Intel Mac OS X 10_15_5) AppleWebKit/537.36 (KHTML, like Gecko) Chrome/99.0.4844.74 Safari/537.36",1280,800,1280,651,"main",2445171,6,4,14,11,"EM","Moderate","Easier than Reference","D","j","safeDeck","riskyDeck",-28,0,-14,"left",0,0,18,"present","safeDeck",1024,784,-1,1
"hy8mfnecik7_pilot",1447.38461538462,616.10446465203,"test","22/03/2022@13:57:31","Mozilla/5.0 (Macintosh; Intel Mac OS X 10_15_5) AppleWebKit/537.36 (KHTML, like Gecko) Chrome/99.0.4844.74 Safari/537.36",1280,800,1280,651,"main",2445171,6,5,14,11,"EM","Moderate","Easier than Reference","D","k","safeDeck","riskyDeck",-28,0,-14,"left",0,0,18,"absent","safeDeck",1024,3424,-1,1
"hy8mfnecik7_pilot",1447.38461538462,616.10446465203,"test","22/03/2022@13:57:31","Mozilla/5.0 (Macintosh; Intel Mac OS X 10_15_5) AppleWebKit/537.36 (KHTML, like Gecko) Chrome/99.0.4844.74 Safari/537.36",1280,800,1280,651,"main",2445171,6,6,14,11,"EM","Moderate","Easier than Reference","D","j","safeDeck","riskyDeck",-28,0,-14,"left",0,0,18,"present","safeDeck",1024,735,-1,1
"hy8mfnecik7_pilot",1447.38461538462,616.10446465203,"test","22/03/2022@13:57:31","Mozilla/5.0 (Macintosh; Intel Mac OS X 10_15_5) AppleWebKit/537.36 (KHTML, like Gecko) Chrome/99.0.4844.74 Safari/537.36",1280,800,1280,651,"main",2445171,6,7,14,11,"EM","Moderate","Easier than Reference","D","k","safeDeck","riskyDeck",-28,0,-14,"left",0,0,18,"absent","safeDeck",1024,3296,-1,1
"hy8mfnecik7_pilot",1447.38461538462,616.10446465203,"test","22/03/2022@13:57:31","Mozilla/5.0 (Macintosh; Intel Mac OS X 10_15_5) AppleWebKit/537.36 (KHTML, like Gecko) Chrome/99.0.4844.74 Safari/537.36",1280,800,1280,651,"main",2445171,6,8,14,11,"EM","Moderate","Easier than Reference","D","k","safeDeck","riskyDeck",-28,0,-14,"left",0,0,18,"absent","safeDeck",1024,2710,-1,1
"hy8mfnecik7_pilot",1447.38461538462,616.10446465203,"test","22/03/2022@13:57:31","Mozilla/5.0 (Macintosh; Intel Mac OS X 10_15_5) AppleWebKit/537.36 (KHTML, like Gecko) Chrome/99.0.4844.74 Safari/537.36",1280,800,1280,651,"main",2445171,6,9,14,11,"EM","Moderate","Easier than Reference","D","k","safeDeck","riskyDeck",-28,0,-14,"left",0,0,18,"absent","safeDeck",1024,2155,-1,1
"hy8mfnecik7_pilot",1447.38461538462,616.10446465203,"test","22/03/2022@13:57:31","Mozilla/5.0 (Macintosh; Intel Mac OS X 10_15_5) AppleWebKit/537.36 (KHTML, like Gecko) Chrome/99.0.4844.74 Safari/537.36",1280,800,1280,651,"main",2445171,6,10,14,11,"EM","Moderate","Easier than Reference","D","k","safeDeck","riskyDeck",-28,0,-14,"left",0,0,18,"absent","safeDeck",1024,2663,-1,1
"hy8mfnecik7_pilot",1447.38461538462,616.10446465203,"test","22/03/2022@13:57:31","Mozilla/5.0 (Macintosh; Intel Mac OS X 10_15_5) AppleWebKit/537.36 (KHTML, like Gecko) Chrome/99.0.4844.74 Safari/537.36",1280,800,1280,651,"main",2445171,6,11,14,11,"EM","Moderate","Easier than Reference","D","j","safeDeck","riskyDeck",-28,0,-14,"left",0,0,18,"present","safeDeck",1024,1338,-1,1
"hy8mfnecik7_pilot",1447.38461538462,616.10446465203,"test","22/03/2022@13:57:31","Mozilla/5.0 (Macintosh; Intel Mac OS X 10_15_5) AppleWebKit/537.36 (KHTML, like Gecko) Chrome/99.0.4844.74 Safari/537.36",1280,800,1280,651,"main",2445171,6,12,14,11,"EM","Moderate","Easier than Reference","D","j","safeDeck","riskyDeck",-28,0,-14,"left",0,0,18,"present","safeDeck",1024,1361,-1,1
"hy8mfnecik7_pilot",1447.38461538462,616.10446465203,"test","22/03/2022@13:57:31","Mozilla/5.0 (Macintosh; Intel Mac OS X 10_15_5) AppleWebKit/537.36 (KHTML, like Gecko) Chrome/99.0.4844.74 Safari/537.36",1280,800,1280,651,"main",2445171,6,13,14,11,"EM","Moderate","Easier than Reference","D","k","safeDeck","riskyDeck",-28,0,-14,"left",0,0,18,"absent","safeDeck",1024,2675,-1,1
"hy8mfnecik7_pilot",1447.38461538462,616.10446465203,"test","22/03/2022@13:57:31","Mozilla/5.0 (Macintosh; Intel Mac OS X 10_15_5) AppleWebKit/537.36 (KHTML, like Gecko) Chrome/99.0.4844.74 Safari/537.36",1280,800,1280,651,"main",2445171,6,14,14,11,"EM","Moderate","Easier than Reference","D","j","safeDeck","riskyDeck",-28,0,-14,"left",0,0,18,"present","safeDeck",1024,849,-1,1
"hy8mfnecik7_pilot",1447.38461538462,616.10446465203,"test","22/03/2022@13:57:31","Mozilla/5.0 (Macintosh; Intel Mac OS X 10_15_5) AppleWebKit/537.36 (KHTML, like Gecko) Chrome/99.0.4844.74 Safari/537.36",1280,800,1280,651,"main",2445171,6,15,14,11,"EM","Moderate","Easier than Reference","D","k","safeDeck","riskyDeck",-28,0,-14,"left",0,0,18,"absent","safeDeck",1024,3218,-1,1
"hy8mfnecik7_pilot",1447.38461538462,616.10446465203,"test","22/03/2022@13:57:31","Mozilla/5.0 (Macintosh; Intel Mac OS X 10_15_5) AppleWebKit/537.36 (KHTML, like Gecko) Chrome/99.0.4844.74 Safari/537.36",1280,800,1280,651,"main",2445171,6,16,14,12,"EM","Moderate","Easier than Reference","D","j","safeDeck","riskyDeck",-28,0,-14,"left",0,0,18,"present","safeDeck",1024,1538,-1,1
"hy8mfnecik7_pilot",1447.38461538462,616.10446465203,"test","22/03/2022@13:57:31","Mozilla/5.0 (Macintosh; Intel Mac OS X 10_15_5) AppleWebKit/537.36 (KHTML, like Gecko) Chrome/99.0.4844.74 Safari/537.36",1280,800,1280,651,"main",2445171,6,17,14,12,"EM","Moderate","Easier than Reference","D","j","safeDeck","riskyDeck",-28,0,-14,"left",0,0,18,"present","safeDeck",1024,597,-1,1
"hy8mfnecik7_pilot",1447.38461538462,616.10446465203,"test","22/03/2022@13:57:31","Mozilla/5.0 (Macintosh; Intel Mac OS X 10_15_5) AppleWebKit/537.36 (KHTML, like Gecko) Chrome/99.0.4844.74 Safari/537.36",1280,800,1280,651,"main",2445171,7,1,14,12,"HM","Moderate","Harder than Reference","F","j","safeDeck","riskyDeck",14,0,7,"right",1,0,46,"present","riskyDeck",1471,998,1,0
"hy8mfnecik7_pilot",1447.38461538462,616.10446465203,"test","22/03/2022@13:57:31","Mozilla/5.0 (Macintosh; Intel Mac OS X 10_15_5) AppleWebKit/537.36 (KHTML, like Gecko) Chrome/99.0.4844.74 Safari/537.36",1280,800,1280,651,"main",2445171,7,2,15,12,"HM","Moderate","Harder than Reference","F","k","safeDeck","riskyDeck",14,0,7,"right",1,0,46,"absent","riskyDeck",1471,3861,1,0
"hy8mfnecik7_pilot",1447.38461538462,616.10446465203,"test","22/03/2022@13:57:31","Mozilla/5.0 (Macintosh; Intel Mac OS X 10_15_5) AppleWebKit/537.36 (KHTML, like Gecko) Chrome/99.0.4844.74 Safari/537.36",1280,800,1280,651,"main",2445171,7,3,15,12,"HM","Moderate","Harder than Reference","F","k","safeDeck","riskyDeck",14,0,7,"right",1,0,46,"absent","riskyDeck",1471,4991,1,0
"hy8mfnecik7_pilot",1447.38461538462,616.10446465203,"test","22/03/2022@13:57:31","Mozilla/5.0 (Macintosh; Intel Mac OS X 10_15_5) AppleWebKit/537.36 (KHTML, like Gecko) Chrome/99.0.4844.74 Safari/537.36",1280,800,1280,651,"main",2445171,7,4,15,12,"HM","Moderate","Harder than Reference","F","k","safeDeck","riskyDeck",14,0,7,"right",1,0,46,"absent","riskyDeck",1471,5473,1,0
"hy8mfnecik7_pilot",1447.38461538462,616.10446465203,"test","22/03/2022@13:57:31","Mozilla/5.0 (Macintosh; Intel Mac OS X 10_15_5) AppleWebKit/537.36 (KHTML, like Gecko) Chrome/99.0.4844.74 Safari/537.36",1280,800,1280,651,"main",2445171,7,5,15,12,"HM","Moderate","Harder than Reference","F","j","safeDeck","riskyDeck",14,0,7,"right",1,0,46,"present","riskyDeck",1471,1861,1,0
"hy8mfnecik7_pilot",1447.38461538462,616.10446465203,"test","22/03/2022@13:57:31","Mozilla/5.0 (Macintosh; Intel Mac OS X 10_15_5) AppleWebKit/537.36 (KHTML, like Gecko) Chrome/99.0.4844.74 Safari/537.36",1280,800,1280,651,"main",2445171,7,6,15,12,"HM","Moderate","Harder than Reference","F","j","safeDeck","riskyDeck",14,0,7,"right",1,0,46,"present","riskyDeck",1471,728,1,0
"hy8mfnecik7_pilot",1447.38461538462,616.10446465203,"test","22/03/2022@13:57:31","Mozilla/5.0 (Macintosh; Intel Mac OS X 10_15_5) AppleWebKit/537.36 (KHTML, like Gecko) Chrome/99.0.4844.74 Safari/537.36",1280,800,1280,651,"main",2445171,7,7,15,12,"HM","Moderate","Harder than Reference","F","k","safeDeck","riskyDeck",14,0,7,"right",1,0,46,"absent","riskyDeck",1471,5188,1,0
"hy8mfnecik7_pilot",1447.38461538462,616.10446465203,"test","22/03/2022@13:57:31","Mozilla/5.0 (Macintosh; Intel Mac OS X 10_15_5) AppleWebKit/537.36 (KHTML, like Gecko) Chrome/99.0.4844.74 Safari/537.36",1280,800,1280,651,"main",2445171,7,8,15,12,"HM","Moderate","Harder than Reference","F","j","safeDeck","riskyDeck",14,0,7,"right",1,0,46,"present","riskyDeck",1471,2156,1,0
"hy8mfnecik7_pilot",1447.38461538462,616.10446465203,"test","22/03/2022@13:57:31","Mozilla/5.0 (Macintosh; Intel Mac OS X 10_15_5) AppleWebKit/537.36 (KHTML, like Gecko) Chrome/99.0.4844.74 Safari/537.36",1280,800,1280,651,"main",2445171,7,9,15,12,"HM","Moderate","Harder than Reference","F","j","safeDeck","riskyDeck",14,0,7,"right",1,0,46,"present","riskyDeck",1471,2767,1,0
"hy8mfnecik7_pilot",1447.38461538462,616.10446465203,"test","22/03/2022@13:57:31","Mozilla/5.0 (Macintosh; Intel Mac OS X 10_15_5) AppleWebKit/537.36 (KHTML, like Gecko) Chrome/99.0.4844.74 Safari/537.36",1280,800,1280,651,"main",2445171,7,10,15,12,"HM","Moderate","Harder than Reference","F","j","safeDeck","riskyDeck",14,0,7,"right",1,0,46,"present","riskyDeck",1471,2468,1,0
"hy8mfnecik7_pilot",1447.38461538462,616.10446465203,"test","22/03/2022@13:57:31","Mozilla/5.0 (Macintosh; Intel Mac OS X 10_15_5) AppleWebKit/537.36 (KHTML, like Gecko) Chrome/99.0.4844.74 Safari/537.36",1280,800,1280,651,"main",2445171,7,11,15,12,"HM","Moderate","Harder than Reference","F","k","safeDeck","riskyDeck",14,0,7,"right",1,0,46,"absent","riskyDeck",1471,8914,1,0
"hy8mfnecik7_pilot",1447.38461538462,616.10446465203,"test","22/03/2022@13:57:31","Mozilla/5.0 (Macintosh; Intel Mac OS X 10_15_5) AppleWebKit/537.36 (KHTML, like Gecko) Chrome/99.0.4844.74 Safari/537.36",1280,800,1280,651,"main",2445171,7,12,15,12,"HM","Moderate","Harder than Reference","F","k","safeDeck","riskyDeck",14,0,7,"right",1,0,46,"absent","riskyDeck",1471,3913,1,0
"hy8mfnecik7_pilot",1447.38461538462,616.10446465203,"test","22/03/2022@13:57:31","Mozilla/5.0 (Macintosh; Intel Mac OS X 10_15_5) AppleWebKit/537.36 (KHTML, like Gecko) Chrome/99.0.4844.74 Safari/537.36",1280,800,1280,651,"main",2445171,7,13,15,12,"HM","Moderate","Harder than Reference","F","j","safeDeck","riskyDeck",14,0,7,"right",1,0,46,"present","riskyDeck",1471,2035,1,0
"hy8mfnecik7_pilot",1447.38461538462,616.10446465203,"test","22/03/2022@13:57:31","Mozilla/5.0 (Macintosh; Intel Mac OS X 10_15_5) AppleWebKit/537.36 (KHTML, like Gecko) Chrome/99.0.4844.74 Safari/537.36",1280,800,1280,651,"main",2445171,7,14,15,13,"HM","Moderate","Harder than Reference","F","k","safeDeck","riskyDeck",14,0,7,"right",1,0,46,"absent","riskyDeck",1471,6349,1,0
"hy8mfnecik7_pilot",1447.38461538462,616.10446465203,"test","22/03/2022@13:57:31","Mozilla/5.0 (Macintosh; Intel Mac OS X 10_15_5) AppleWebKit/537.36 (KHTML, like Gecko) Chrome/99.0.4844.74 Safari/537.36",1280,800,1280,651,"main",2445171,7,15,15,13,"HM","Moderate","Harder than Reference","F","j","safeDeck","riskyDeck",14,0,7,"right",1,0,46,"present","riskyDeck",1471,956,1,0
"hy8mfnecik7_pilot",1447.38461538462,616.10446465203,"test","22/03/2022@13:57:31","Mozilla/5.0 (Macintosh; Intel Mac OS X 10_15_5) AppleWebKit/537.36 (KHTML, like Gecko) Chrome/99.0.4844.74 Safari/537.36",1280,800,1280,651,"main",2445171,7,16,15,13,"HM","Moderate","Harder than Reference","F","j","safeDeck","riskyDeck",14,0,7,"right",1,0,46,"present","riskyDeck",1471,2571,1,0
"hy8mfnecik7_pilot",1447.38461538462,616.10446465203,"test","22/03/2022@13:57:31","Mozilla/5.0 (Macintosh; Intel Mac OS X 10_15_5) AppleWebKit/537.36 (KHTML, like Gecko) Chrome/99.0.4844.74 Safari/537.36",1280,800,1280,651,"main",2445171,7,17,15,13,"HM","Moderate","Harder than Reference","F","j","safeDeck","riskyDeck",14,0,7,"right",1,0,46,"present","riskyDeck",1471,2201,1,0
"hy8mfnecik7_pilot",1447.38461538462,616.10446465203,"test","22/03/2022@13:57:31","Mozilla/5.0 (Macintosh; Intel Mac OS X 10_15_5) AppleWebKit/537.36 (KHTML, like Gecko) Chrome/99.0.4844.74 Safari/537.36",1280,800,1280,651,"main",2445171,8,1,16,13,"HE","Extreme","Harder than Reference","F","k","riskyDeck","safeDeck",28,0,14,"right",0,0,46,"absent","safeDeck",1594,5317,1,1
"hy8mfnecik7_pilot",1447.38461538462,616.10446465203,"test","22/03/2022@13:57:31","Mozilla/5.0 (Macintosh; Intel Mac OS X 10_15_5) AppleWebKit/537.36 (KHTML, like Gecko) Chrome/99.0.4844.74 Safari/537.36",1280,800,1280,651,"main",2445171,8,2,16,13,"HE","Extreme","Harder than Reference","F","j","riskyDeck","safeDeck",28,0,14,"right",0,0,46,"present","safeDeck",1594,1375,1,1
"hy8mfnecik7_pilot",1447.38461538462,616.10446465203,"test","22/03/2022@13:57:31","Mozilla/5.0 (Macintosh; Intel Mac OS X 10_15_5) AppleWebKit/537.36 (KHTML, like Gecko) Chrome/99.0.4844.74 Safari/537.36",1280,800,1280,651,"main",2445171,8,3,16,13,"HE","Extreme","Harder than Reference","F","j","riskyDeck","safeDeck",28,0,14,"right",0,0,46,"present","safeDeck",1594,2490,1,1
"hy8mfnecik7_pilot",1447.38461538462,616.10446465203,"test","22/03/2022@13:57:31","Mozilla/5.0 (Macintosh; Intel Mac OS X 10_15_5) AppleWebKit/537.36 (KHTML, like Gecko) Chrome/99.0.4844.74 Safari/537.36",1280,800,1280,651,"main",2445171,8,4,16,13,"HE","Extreme","Harder than Reference","F","k","riskyDeck","safeDeck",28,0,14,"right",0,0,46,"absent","safeDeck",1594,4533,1,1
"hy8mfnecik7_pilot",1447.38461538462,616.10446465203,"test","22/03/2022@13:57:31","Mozilla/5.0 (Macintosh; Intel Mac OS X 10_15_5) AppleWebKit/537.36 (KHTML, like Gecko) Chrome/99.0.4844.74 Safari/537.36",1280,800,1280,651,"main",2445171,8,5,16,13,"HE","Extreme","Harder than Reference","F","k","riskyDeck","safeDeck",28,0,14,"right",0,0,46,"absent","safeDeck",1594,6337,1,1
"hy8mfnecik7_pilot",1447.38461538462,616.10446465203,"test","22/03/2022@13:57:31","Mozilla/5.0 (Macintosh; Intel Mac OS X 10_15_5) AppleWebKit/537.36 (KHTML, like Gecko) Chrome/99.0.4844.74 Safari/537.36",1280,800,1280,651,"main",2445171,8,6,16,13,"HE","Extreme","Harder than Reference","F","k","riskyDeck","safeDeck",28,0,14,"right",0,0,46,"absent","safeDeck",1594,4121,1,1
"hy8mfnecik7_pilot",1447.38461538462,616.10446465203,"test","22/03/2022@13:57:31","Mozilla/5.0 (Macintosh; Intel Mac OS X 10_15_5) AppleWebKit/537.36 (KHTML, like Gecko) Chrome/99.0.4844.74 Safari/537.36",1280,800,1280,651,"main",2445171,8,7,16,13,"HE","Extreme","Harder than Reference","F","k","riskyDeck","safeDeck",28,0,14,"right",0,0,46,"absent","safeDeck",1594,5374,1,1
"hy8mfnecik7_pilot",1447.38461538462,616.10446465203,"test","22/03/2022@13:57:31","Mozilla/5.0 (Macintosh; Intel Mac OS X 10_15_5) AppleWebKit/537.36 (KHTML, like Gecko) Chrome/99.0.4844.74 Safari/537.36",1280,800,1280,651,"main",2445171,8,8,16,13,"HE","Extreme","Harder than Reference","F","j","riskyDeck","safeDeck",28,0,14,"right",0,0,46,"present","safeDeck",1594,1070,1,1
"hy8mfnecik7_pilot",1447.38461538462,616.10446465203,"test","22/03/2022@13:57:31","Mozilla/5.0 (Macintosh; Intel Mac OS X 10_15_5) AppleWebKit/537.36 (KHTML, like Gecko) Chrome/99.0.4844.74 Safari/537.36",1280,800,1280,651,"main",2445171,8,9,16,13,"HE","Extreme","Harder than Reference","F","j","riskyDeck","safeDeck",28,0,14,"right",0,0,46,"present","safeDeck",1594,1903,1,1
"hy8mfnecik7_pilot",1447.38461538462,616.10446465203,"test","22/03/2022@13:57:31","Mozilla/5.0 (Macintosh; Intel Mac OS X 10_15_5) AppleWebKit/537.36 (KHTML, like Gecko) Chrome/99.0.4844.74 Safari/537.36",1280,800,1280,651,"main",2445171,8,10,16,13,"HE","Extreme","Harder than Reference","F","j","riskyDeck","safeDeck",28,0,14,"right",0,0,46,"present","safeDeck",1594,3993,1,1
"hy8mfnecik7_pilot",1447.38461538462,616.10446465203,"test","22/03/2022@13:57:31","Mozilla/5.0 (Macintosh; Intel Mac OS X 10_15_5) AppleWebKit/537.36 (KHTML, like Gecko) Chrome/99.0.4844.74 Safari/537.36",1280,800,1280,651,"main",2445171,8,11,16,13,"HE","Extreme","Harder than Reference","F","k","riskyDeck","safeDeck",28,0,14,"right",0,0,46,"absent","safeDeck",1594,6297,1,1
"hy8mfnecik7_pilot",1447.38461538462,616.10446465203,"test","22/03/2022@13:57:31","Mozilla/5.0 (Macintosh; Intel Mac OS X 10_15_5) AppleWebKit/537.36 (KHTML, like Gecko) Chrome/99.0.4844.74 Safari/537.36",1280,800,1280,651,"main",2445171,8,12,16,13,"HE","Extreme","Harder than Reference","F","j","riskyDeck","safeDeck",28,0,14,"right",0,0,46,"present","safeDeck",1594,1813,1,1
"hy8mfnecik7_pilot",1447.38461538462,616.10446465203,"test","22/03/2022@13:57:31","Mozilla/5.0 (Macintosh; Intel Mac OS X 10_15_5) AppleWebKit/537.36 (KHTML, like Gecko) Chrome/99.0.4844.74 Safari/537.36",1280,800,1280,651,"main",2445171,8,13,16,14,"HE","Extreme","Harder than Reference","F","j","riskyDeck","safeDeck",28,0,14,"right",0,0,46,"present","safeDeck",1594,1379,1,1
"hy8mfnecik7_pilot",1447.38461538462,616.10446465203,"test","22/03/2022@13:57:31","Mozilla/5.0 (Macintosh; Intel Mac OS X 10_15_5) AppleWebKit/537.36 (KHTML, like Gecko) Chrome/99.0.4844.74 Safari/537.36",1280,800,1280,651,"main",2445171,8,14,16,14,"HE","Extreme","Harder than Reference","F","k","riskyDeck","safeDeck",28,0,14,"right",0,0,46,"absent","safeDeck",1594,3289,1,1
"hy8mfnecik7_pilot",1447.38461538462,616.10446465203,"test","22/03/2022@13:57:31","Mozilla/5.0 (Macintosh; Intel Mac OS X 10_15_5) AppleWebKit/537.36 (KHTML, like Gecko) Chrome/99.0.4844.74 Safari/537.36",1280,800,1280,651,"main",2445171,8,15,16,14,"HE","Extreme","Harder than Reference","F","k","riskyDeck","safeDeck",28,0,14,"right",0,0,46,"absent","safeDeck",1594,4957,1,1
"hy8mfnecik7_pilot",1447.38461538462,616.10446465203,"test","22/03/2022@13:57:31","Mozilla/5.0 (Macintosh; Intel Mac OS X 10_15_5) AppleWebKit/537.36 (KHTML, like Gecko) Chrome/99.0.4844.74 Safari/537.36",1280,800,1280,651,"main",2445171,8,16,17,14,"HE","Extreme","Harder than Reference","F","k","riskyDeck","safeDeck",28,0,14,"right",0,0,46,"absent","safeDeck",1594,4391,1,1
"hy8mfnecik7_pilot",1447.38461538462,616.10446465203,"test","22/03/2022@13:57:31","Mozilla/5.0 (Macintosh; Intel Mac OS X 10_15_5) AppleWebKit/537.36 (KHTML, like Gecko) Chrome/99.0.4844.74 Safari/537.36",1280,800,1280,651,"main",2445171,8,17,17,14,"HE","Extreme","Harder than Reference","F","k","riskyDeck","safeDeck",28,0,14,"right",0,0,46,"absent","safeDeck",1594,5689,1,1
"hy8mfnecik7_pilot",1447.38461538462,616.10446465203,"test","22/03/2022@13:57:31","Mozilla/5.0 (Macintosh; Intel Mac OS X 10_15_5) AppleWebKit/537.36 (KHTML, like Gecko) Chrome/99.0.4844.74 Safari/537.36",1280,800,1280,651,"main",2445171,9,1,17,14,"HE","Extreme","Harder than Reference","D","j","riskyDeck","safeDeck",0,28,14,"left",1,0,60,"present","riskyDeck",1481,1415,-1,0
"hy8mfnecik7_pilot",1447.38461538462,616.10446465203,"test","22/03/2022@13:57:31","Mozilla/5.0 (Macintosh; Intel Mac OS X 10_15_5) AppleWebKit/537.36 (KHTML, like Gecko) Chrome/99.0.4844.74 Safari/537.36",1280,800,1280,651,"main",2445171,9,2,17,14,"HE","Extreme","Harder than Reference","D","j","riskyDeck","safeDeck",0,28,14,"left",1,0,60,"present","riskyDeck",1481,1464,-1,0
"hy8mfnecik7_pilot",1447.38461538462,616.10446465203,"test","22/03/2022@13:57:31","Mozilla/5.0 (Macintosh; Intel Mac OS X 10_15_5) AppleWebKit/537.36 (KHTML, like Gecko) Chrome/99.0.4844.74 Safari/537.36",1280,800,1280,651,"main",2445171,9,3,17,14,"HE","Extreme","Harder than Reference","D","k","riskyDeck","safeDeck",0,28,14,"left",1,0,60,"absent","riskyDeck",1481,5230,-1,0
"hy8mfnecik7_pilot",1447.38461538462,616.10446465203,"test","22/03/2022@13:57:31","Mozilla/5.0 (Macintosh; Intel Mac OS X 10_15_5) AppleWebKit/537.36 (KHTML, like Gecko) Chrome/99.0.4844.74 Safari/537.36",1280,800,1280,651,"main",2445171,9,4,17,14,"HE","Extreme","Harder than Reference","D","k","riskyDeck","safeDeck",0,28,14,"left",1,0,60,"absent","riskyDeck",1481,5703,-1,0
"hy8mfnecik7_pilot",1447.38461538462,616.10446465203,"test","22/03/2022@13:57:31","Mozilla/5.0 (Macintosh; Intel Mac OS X 10_15_5) AppleWebKit/537.36 (KHTML, like Gecko) Chrome/99.0.4844.74 Safari/537.36",1280,800,1280,651,"main",2445171,9,5,17,14,"HE","Extreme","Harder than Reference","D","k","riskyDeck","safeDeck",0,28,14,"left",1,0,60,"absent","riskyDeck",1481,12173,-1,0
"hy8mfnecik7_pilot",1447.38461538462,616.10446465203,"test","22/03/2022@13:57:31","Mozilla/5.0 (Macintosh; Intel Mac OS X 10_15_5) AppleWebKit/537.36 (KHTML, like Gecko) Chrome/99.0.4844.74 Safari/537.36",1280,800,1280,651,"main",2445171,9,6,17,14,"HE","Extreme","Harder than Reference","D","j","riskyDeck","safeDeck",0,28,14,"left",1,0,60,"present","riskyDeck",1481,1413,-1,0
"hy8mfnecik7_pilot",1447.38461538462,616.10446465203,"test","22/03/2022@13:57:31","Mozilla/5.0 (Macintosh; Intel Mac OS X 10_15_5) AppleWebKit/537.36 (KHTML, like Gecko) Chrome/99.0.4844.74 Safari/537.36",1280,800,1280,651,"main",2445171,9,7,17,14,"HE","Extreme","Harder than Reference","D","j","riskyDeck","safeDeck",0,28,14,"left",1,0,60,"present","riskyDeck",1481,2491,-1,0
"hy8mfnecik7_pilot",1447.38461538462,616.10446465203,"test","22/03/2022@13:57:31","Mozilla/5.0 (Macintosh; Intel Mac OS X 10_15_5) AppleWebKit/537.36 (KHTML, like Gecko) Chrome/99.0.4844.74 Safari/537.36",1280,800,1280,651,"main",2445171,9,8,17,14,"HE","Extreme","Harder than Reference","D","j","riskyDeck","safeDeck",0,28,14,"left",1,0,60,"present","riskyDeck",1481,1341,-1,0
"hy8mfnecik7_pilot",1447.38461538462,616.10446465203,"test","22/03/2022@13:57:31","Mozilla/5.0 (Macintosh; Intel Mac OS X 10_15_5) AppleWebKit/537.36 (KHTML, like Gecko) Chrome/99.0.4844.74 Safari/537.36",1280,800,1280,651,"main",2445171,9,9,17,15,"HE","Extreme","Harder than Reference","D","k","riskyDeck","safeDeck",0,28,14,"left",1,0,60,"absent","riskyDeck",1481,4471,-1,0
"hy8mfnecik7_pilot",1447.38461538462,616.10446465203,"test","22/03/2022@13:57:31","Mozilla/5.0 (Macintosh; Intel Mac OS X 10_15_5) AppleWebKit/537.36 (KHTML, like Gecko) Chrome/99.0.4844.74 Safari/537.36",1280,800,1280,651,"main",2445171,9,10,17,15,"HE","Extreme","Harder than Reference","D","j","riskyDeck","safeDeck",0,28,14,"left",1,0,60,"present","riskyDeck",1481,3416,-1,0
"hy8mfnecik7_pilot",1447.38461538462,616.10446465203,"test","22/03/2022@13:57:31","Mozilla/5.0 (Macintosh; Intel Mac OS X 10_15_5) AppleWebKit/537.36 (KHTML, like Gecko) Chrome/99.0.4844.74 Safari/537.36",1280,800,1280,651,"main",2445171,9,11,18,15,"HE","Extreme","Harder than Reference","D","k","riskyDeck","safeDeck",0,28,14,"left",1,0,60,"absent","riskyDeck",1481,6251,-1,0
"hy8mfnecik7_pilot",1447.38461538462,616.10446465203,"test","22/03/2022@13:57:31","Mozilla/5.0 (Macintosh; Intel Mac OS X 10_15_5) AppleWebKit/537.36 (KHTML, like Gecko) Chrome/99.0.4844.74 Safari/537.36",1280,800,1280,651,"main",2445171,9,12,18,15,"HE","Extreme","Harder than Reference","D","j","riskyDeck","safeDeck",0,28,14,"left",1,0,60,"present","riskyDeck",1481,2687,-1,0
"hy8mfnecik7_pilot",1447.38461538462,616.10446465203,"test","22/03/2022@13:57:31","Mozilla/5.0 (Macintosh; Intel Mac OS X 10_15_5) AppleWebKit/537.36 (KHTML, like Gecko) Chrome/99.0.4844.74 Safari/537.36",1280,800,1280,651,"main",2445171,9,13,18,15,"HE","Extreme","Harder than Reference","D","k","riskyDeck","safeDeck",0,28,14,"left",1,1,60,"present","riskyDeck",1481,5524,-1,0
"hy8mfnecik7_pilot",1447.38461538462,616.10446465203,"test","22/03/2022@13:57:31","Mozilla/5.0 (Macintosh; Intel Mac OS X 10_15_5) AppleWebKit/537.36 (KHTML, like Gecko) Chrome/99.0.4844.74 Safari/537.36",1280,800,1280,651,"main",2445171,9,14,18,15,"HE","Extreme","Harder than Reference","D","j","riskyDeck","safeDeck",0,28,14,"left",1,0,60,"present","riskyDeck",1481,2170,-1,0
"hy8mfnecik7_pilot",1447.38461538462,616.10446465203,"test","22/03/2022@13:57:31","Mozilla/5.0 (Macintosh; Intel Mac OS X 10_15_5) AppleWebKit/537.36 (KHTML, like Gecko) Chrome/99.0.4844.74 Safari/537.36",1280,800,1280,651,"main",2445171,9,15,18,15,"HE","Extreme","Harder than Reference","D","j","riskyDeck","safeDeck",0,28,14,"left",1,0,60,"present","riskyDeck",1481,2590,-1,0
"hy8mfnecik7_pilot",1447.38461538462,616.10446465203,"test","22/03/2022@13:57:31","Mozilla/5.0 (Macintosh; Intel Mac OS X 10_15_5) AppleWebKit/537.36 (KHTML, like Gecko) Chrome/99.0.4844.74 Safari/537.36",1280,800,1280,651,"main",2445171,9,16,18,15,"HE","Extreme","Harder than Reference","D","k","riskyDeck","safeDeck",0,28,14,"left",1,0,60,"absent","riskyDeck",1481,7460,-1,0
"hy8mfnecik7_pilot",1447.38461538462,616.10446465203,"test","22/03/2022@13:57:31","Mozilla/5.0 (Macintosh; Intel Mac OS X 10_15_5) AppleWebKit/537.36 (KHTML, like Gecko) Chrome/99.0.4844.74 Safari/537.36",1280,800,1280,651,"main",2445171,9,17,18,15,"HE","Extreme","Harder than Reference","D","k","riskyDeck","safeDeck",0,28,14,"left",1,0,60,"absent","riskyDeck",1481,4697,-1,0
"hy8mfnecik7_pilot",1447.38461538462,616.10446465203,"test","22/03/2022@13:57:31","Mozilla/5.0 (Macintosh; Intel Mac OS X 10_15_5) AppleWebKit/537.36 (KHTML, like Gecko) Chrome/99.0.4844.74 Safari/537.36",1280,800,1280,651,"main",2445171,10,1,18,15,"EM","Moderate","Easier than Reference","D","k","riskyDeck","safeDeck",0,-28,-14,"left",1,0,32,"absent","riskyDeck",1335,2481,-1,0
"hy8mfnecik7_pilot",1447.38461538462,616.10446465203,"test","22/03/2022@13:57:31","Mozilla/5.0 (Macintosh; Intel Mac OS X 10_15_5) AppleWebKit/537.36 (KHTML, like Gecko) Chrome/99.0.4844.74 Safari/537.36",1280,800,1280,651,"main",2445171,10,2,18,15,"EM","Moderate","Easier than Reference","D","j","riskyDeck","safeDeck",0,-28,-14,"left",1,0,32,"present","riskyDeck",1335,1289,-1,0
"hy8mfnecik7_pilot",1447.38461538462,616.10446465203,"test","22/03/2022@13:57:31","Mozilla/5.0 (Macintosh; Intel Mac OS X 10_15_5) AppleWebKit/537.36 (KHTML, like Gecko) Chrome/99.0.4844.74 Safari/537.36",1280,800,1280,651,"main",2445171,10,3,18,15,"EM","Moderate","Easier than Reference","D","k","riskyDeck","safeDeck",0,-28,-14,"left",1,0,32,"absent","riskyDeck",1335,2796,-1,0
"hy8mfnecik7_pilot",1447.38461538462,616.10446465203,"test","22/03/2022@13:57:31","Mozilla/5.0 (Macintosh; Intel Mac OS X 10_15_5) AppleWebKit/537.36 (KHTML, like Gecko) Chrome/99.0.4844.74 Safari/537.36",1280,800,1280,651,"main",2445171,10,4,18,15,"EM","Moderate","Easier than Reference","D","j","riskyDeck","safeDeck",0,-28,-14,"left",1,0,32,"present","riskyDeck",1335,1185,-1,0
"hy8mfnecik7_pilot",1447.38461538462,616.10446465203,"test","22/03/2022@13:57:31","Mozilla/5.0 (Macintosh; Intel Mac OS X 10_15_5) AppleWebKit/537.36 (KHTML, like Gecko) Chrome/99.0.4844.74 Safari/537.36",1280,800,1280,651,"main",2445171,10,5,18,15,"EM","Moderate","Easier than Reference","D","j","riskyDeck","safeDeck",0,-28,-14,"left",1,0,32,"present","riskyDeck",1335,1477,-1,0
"hy8mfnecik7_pilot",1447.38461538462,616.10446465203,"test","22/03/2022@13:57:31","Mozilla/5.0 (Macintosh; Intel Mac OS X 10_15_5) AppleWebKit/537.36 (KHTML, like Gecko) Chrome/99.0.4844.74 Safari/537.36",1280,800,1280,651,"main",2445171,10,6,18,15,"EM","Moderate","Easier than Reference","D","k","riskyDeck","safeDeck",0,-28,-14,"left",1,0,32,"absent","riskyDeck",1335,3696,-1,0
"hy8mfnecik7_pilot",1447.38461538462,616.10446465203,"test","22/03/2022@13:57:31","Mozilla/5.0 (Macintosh; Intel Mac OS X 10_15_5) AppleWebKit/537.36 (KHTML, like Gecko) Chrome/99.0.4844.74 Safari/537.36",1280,800,1280,651,"main",2445171,10,7,18,16,"EM","Moderate","Easier than Reference","D","k","riskyDeck","safeDeck",0,-28,-14,"left",1,0,32,"absent","riskyDeck",1335,5073,-1,0
"hy8mfnecik7_pilot",1447.38461538462,616.10446465203,"test","22/03/2022@13:57:31","Mozilla/5.0 (Macintosh; Intel Mac OS X 10_15_5) AppleWebKit/537.36 (KHTML, like Gecko) Chrome/99.0.4844.74 Safari/537.36",1280,800,1280,651,"main",2445171,10,8,18,16,"EM","Moderate","Easier than Reference","D","k","riskyDeck","safeDeck",0,-28,-14,"left",1,0,32,"absent","riskyDeck",1335,3036,-1,0
"hy8mfnecik7_pilot",1447.38461538462,616.10446465203,"test","22/03/2022@13:57:31","Mozilla/5.0 (Macintosh; Intel Mac OS X 10_15_5) AppleWebKit/537.36 (KHTML, like Gecko) Chrome/99.0.4844.74 Safari/537.36",1280,800,1280,651,"main",2445171,10,9,18,16,"EM","Moderate","Easier than Reference","D","j","riskyDeck","safeDeck",0,-28,-14,"left",1,0,32,"present","riskyDeck",1335,665,-1,0
"hy8mfnecik7_pilot",1447.38461538462,616.10446465203,"test","22/03/2022@13:57:31","Mozilla/5.0 (Macintosh; Intel Mac OS X 10_15_5) AppleWebKit/537.36 (KHTML, like Gecko) Chrome/99.0.4844.74 Safari/537.36",1280,800,1280,651,"main",2445171,10,10,19,16,"EM","Moderate","Easier than Reference","D","j","riskyDeck","safeDeck",0,-28,-14,"left",1,0,32,"present","riskyDeck",1335,3787,-1,0
"hy8mfnecik7_pilot",1447.38461538462,616.10446465203,"test","22/03/2022@13:57:31","Mozilla/5.0 (Macintosh; Intel Mac OS X 10_15_5) AppleWebKit/537.36 (KHTML, like Gecko) Chrome/99.0.4844.74 Safari/537.36",1280,800,1280,651,"main",2445171,10,11,19,16,"EM","Moderate","Easier than Reference","D","k","riskyDeck","safeDeck",0,-28,-14,"left",1,0,32,"absent","riskyDeck",1335,7684,-1,0
"hy8mfnecik7_pilot",1447.38461538462,616.10446465203,"test","22/03/2022@13:57:31","Mozilla/5.0 (Macintosh; Intel Mac OS X 10_15_5) AppleWebKit/537.36 (KHTML, like Gecko) Chrome/99.0.4844.74 Safari/537.36",1280,800,1280,651,"main",2445171,10,12,19,16,"EM","Moderate","Easier than Reference","D","k","riskyDeck","safeDeck",0,-28,-14,"left",1,0,32,"absent","riskyDeck",1335,3172,-1,0
"hy8mfnecik7_pilot",1447.38461538462,616.10446465203,"test","22/03/2022@13:57:31","Mozilla/5.0 (Macintosh; Intel Mac OS X 10_15_5) AppleWebKit/537.36 (KHTML, like Gecko) Chrome/99.0.4844.74 Safari/537.36",1280,800,1280,651,"main",2445171,10,13,19,16,"EM","Moderate","Easier than Reference","D","k","riskyDeck","safeDeck",0,-28,-14,"left",1,0,32,"absent","riskyDeck",1335,4809,-1,0
"hy8mfnecik7_pilot",1447.38461538462,616.10446465203,"test","22/03/2022@13:57:31","Mozilla/5.0 (Macintosh; Intel Mac OS X 10_15_5) AppleWebKit/537.36 (KHTML, like Gecko) Chrome/99.0.4844.74 Safari/537.36",1280,800,1280,651,"main",2445171,10,14,19,16,"EM","Moderate","Easier than Reference","D","j","riskyDeck","safeDeck",0,-28,-14,"left",1,0,32,"present","riskyDeck",1335,1396,-1,0
"hy8mfnecik7_pilot",1447.38461538462,616.10446465203,"test","22/03/2022@13:57:31","Mozilla/5.0 (Macintosh; Intel Mac OS X 10_15_5) AppleWebKit/537.36 (KHTML, like Gecko) Chrome/99.0.4844.74 Safari/537.36",1280,800,1280,651,"main",2445171,10,15,19,16,"EM","Moderate","Easier than Reference","D","k","riskyDeck","safeDeck",0,-28,-14,"left",1,0,32,"absent","riskyDeck",1335,4125,-1,0
"hy8mfnecik7_pilot",1447.38461538462,616.10446465203,"test","22/03/2022@13:57:31","Mozilla/5.0 (Macintosh; Intel Mac OS X 10_15_5) AppleWebKit/537.36 (KHTML, like Gecko) Chrome/99.0.4844.74 Safari/537.36",1280,800,1280,651,"main",2445171,10,16,19,16,"EM","Moderate","Easier than Reference","D","j","riskyDeck","safeDeck",0,-28,-14,"left",1,0,32,"present","riskyDeck",1335,1577,-1,0
"hy8mfnecik7_pilot",1447.38461538462,616.10446465203,"test","22/03/2022@13:57:31","Mozilla/5.0 (Macintosh; Intel Mac OS X 10_15_5) AppleWebKit/537.36 (KHTML, like Gecko) Chrome/99.0.4844.74 Safari/537.36",1280,800,1280,651,"main",2445171,10,17,19,16,"EM","Moderate","Easier than Reference","D","k","riskyDeck","safeDeck",0,-28,-14,"left",1,0,32,"absent","riskyDeck",1335,3760,-1,0
"hy8mfnecik7_pilot",1447.38461538462,616.10446465203,"test","22/03/2022@13:57:31","Mozilla/5.0 (Macintosh; Intel Mac OS X 10_15_5) AppleWebKit/537.36 (KHTML, like Gecko) Chrome/99.0.4844.74 Safari/537.36",1280,800,1280,651,"main",2445171,11,1,19,16,"HM","Moderate","Harder than Reference","F","j","riskyDeck","safeDeck",14,0,7,"right",0,0,39,"present","safeDeck",1023,1437,1,1
"hy8mfnecik7_pilot",1447.38461538462,616.10446465203,"test","22/03/2022@13:57:31","Mozilla/5.0 (Macintosh; Intel Mac OS X 10_15_5) AppleWebKit/537.36 (KHTML, like Gecko) Chrome/99.0.4844.74 Safari/537.36",1280,800,1280,651,"main",2445171,11,2,19,16,"HM","Moderate","Harder than Reference","F","k","riskyDeck","safeDeck",14,0,7,"right",0,0,39,"absent","safeDeck",1023,6055,1,1
"hy8mfnecik7_pilot",1447.38461538462,616.10446465203,"test","22/03/2022@13:57:31","Mozilla/5.0 (Macintosh; Intel Mac OS X 10_15_5) AppleWebKit/537.36 (KHTML, like Gecko) Chrome/99.0.4844.74 Safari/537.36",1280,800,1280,651,"main",2445171,11,3,19,16,"HM","Moderate","Harder than Reference","F","j","riskyDeck","safeDeck",14,0,7,"right",0,0,39,"present","safeDeck",1023,1865,1,1
"hy8mfnecik7_pilot",1447.38461538462,616.10446465203,"test","22/03/2022@13:57:31","Mozilla/5.0 (Macintosh; Intel Mac OS X 10_15_5) AppleWebKit/537.36 (KHTML, like Gecko) Chrome/99.0.4844.74 Safari/537.36",1280,800,1280,651,"main",2445171,11,4,19,17,"HM","Moderate","Harder than Reference","F","j","riskyDeck","safeDeck",14,0,7,"right",0,0,39,"present","safeDeck",1023,1854,1,1
"hy8mfnecik7_pilot",1447.38461538462,616.10446465203,"test","22/03/2022@13:57:31","Mozilla/5.0 (Macintosh; Intel Mac OS X 10_15_5) AppleWebKit/537.36 (KHTML, like Gecko) Chrome/99.0.4844.74 Safari/537.36",1280,800,1280,651,"main",2445171,11,5,19,17,"HM","Moderate","Harder than Reference","F","j","riskyDeck","safeDeck",14,0,7,"right",0,0,39,"present","safeDeck",1023,2142,1,1
"hy8mfnecik7_pilot",1447.38461538462,616.10446465203,"test","22/03/2022@13:57:31","Mozilla/5.0 (Macintosh; Intel Mac OS X 10_15_5) AppleWebKit/537.36 (KHTML, like Gecko) Chrome/99.0.4844.74 Safari/537.36",1280,800,1280,651,"main",2445171,11,6,19,17,"HM","Moderate","Harder than Reference","F","k","riskyDeck","safeDeck",14,0,7,"right",0,0,39,"absent","safeDeck",1023,5091,1,1
"hy8mfnecik7_pilot",1447.38461538462,616.10446465203,"test","22/03/2022@13:57:31","Mozilla/5.0 (Macintosh; Intel Mac OS X 10_15_5) AppleWebKit/537.36 (KHTML, like Gecko) Chrome/99.0.4844.74 Safari/537.36",1280,800,1280,651,"main",2445171,11,7,20,17,"HM","Moderate","Harder than Reference","F","k","riskyDeck","safeDeck",14,0,7,"right",0,0,39,"absent","safeDeck",1023,5061,1,1
"hy8mfnecik7_pilot",1447.38461538462,616.10446465203,"test","22/03/2022@13:57:31","Mozilla/5.0 (Macintosh; Intel Mac OS X 10_15_5) AppleWebKit/537.36 (KHTML, like Gecko) Chrome/99.0.4844.74 Safari/537.36",1280,800,1280,651,"main",2445171,11,8,20,17,"HM","Moderate","Harder than Reference","F","j","riskyDeck","safeDeck",14,0,7,"right",0,0,39,"present","safeDeck",1023,1214,1,1
"hy8mfnecik7_pilot",1447.38461538462,616.10446465203,"test","22/03/2022@13:57:31","Mozilla/5.0 (Macintosh; Intel Mac OS X 10_15_5) AppleWebKit/537.36 (KHTML, like Gecko) Chrome/99.0.4844.74 Safari/537.36",1280,800,1280,651,"main",2445171,11,9,20,17,"HM","Moderate","Harder than Reference","F","j","riskyDeck","safeDeck",14,0,7,"right",0,0,39,"present","safeDeck",1023,2338,1,1
"hy8mfnecik7_pilot",1447.38461538462,616.10446465203,"test","22/03/2022@13:57:31","Mozilla/5.0 (Macintosh; Intel Mac OS X 10_15_5) AppleWebKit/537.36 (KHTML, like Gecko) Chrome/99.0.4844.74 Safari/537.36",1280,800,1280,651,"main",2445171,11,10,20,17,"HM","Moderate","Harder than Reference","F","k","riskyDeck","safeDeck",14,0,7,"right",0,0,39,"absent","safeDeck",1023,6637,1,1
"hy8mfnecik7_pilot",1447.38461538462,616.10446465203,"test","22/03/2022@13:57:31","Mozilla/5.0 (Macintosh; Intel Mac OS X 10_15_5) AppleWebKit/537.36 (KHTML, like Gecko) Chrome/99.0.4844.74 Safari/537.36",1280,800,1280,651,"main",2445171,11,11,20,17,"HM","Moderate","Harder than Reference","F","k","riskyDeck","safeDeck",14,0,7,"right",0,0,39,"absent","safeDeck",1023,5989,1,1
"hy8mfnecik7_pilot",1447.38461538462,616.10446465203,"test","22/03/2022@13:57:31","Mozilla/5.0 (Macintosh; Intel Mac OS X 10_15_5) AppleWebKit/537.36 (KHTML, like Gecko) Chrome/99.0.4844.74 Safari/537.36",1280,800,1280,651,"main",2445171,11,12,20,17,"HM","Moderate","Harder than Reference","F","k","riskyDeck","safeDeck",14,0,7,"right",0,0,39,"absent","safeDeck",1023,4647,1,1
"hy8mfnecik7_pilot",1447.38461538462,616.10446465203,"test","22/03/2022@13:57:31","Mozilla/5.0 (Macintosh; Intel Mac OS X 10_15_5) AppleWebKit/537.36 (KHTML, like Gecko) Chrome/99.0.4844.74 Safari/537.36",1280,800,1280,651,"main",2445171,11,13,20,17,"HM","Moderate","Harder than Reference","F","k","riskyDeck","safeDeck",14,0,7,"right",0,0,39,"absent","safeDeck",1023,4672,1,1
"hy8mfnecik7_pilot",1447.38461538462,616.10446465203,"test","22/03/2022@13:57:31","Mozilla/5.0 (Macintosh; Intel Mac OS X 10_15_5) AppleWebKit/537.36 (KHTML, like Gecko) Chrome/99.0.4844.74 Safari/537.36",1280,800,1280,651,"main",2445171,11,14,20,17,"HM","Moderate","Harder than Reference","F","j","riskyDeck","safeDeck",14,0,7,"right",0,0,39,"present","safeDeck",1023,3425,1,1
"hy8mfnecik7_pilot",1447.38461538462,616.10446465203,"test","22/03/2022@13:57:31","Mozilla/5.0 (Macintosh; Intel Mac OS X 10_15_5) AppleWebKit/537.36 (KHTML, like Gecko) Chrome/99.0.4844.74 Safari/537.36",1280,800,1280,651,"main",2445171,11,15,20,17,"HM","Moderate","Harder than Reference","F","j","riskyDeck","safeDeck",14,0,7,"right",0,0,39,"present","safeDeck",1023,1778,1,1
"hy8mfnecik7_pilot",1447.38461538462,616.10446465203,"test","22/03/2022@13:57:31","Mozilla/5.0 (Macintosh; Intel Mac OS X 10_15_5) AppleWebKit/537.36 (KHTML, like Gecko) Chrome/99.0.4844.74 Safari/537.36",1280,800,1280,651,"main",2445171,11,16,20,17,"HM","Moderate","Harder than Reference","F","j","riskyDeck","safeDeck",14,0,7,"right",0,0,39,"present","safeDeck",1023,957,1,1
"hy8mfnecik7_pilot",1447.38461538462,616.10446465203,"test","22/03/2022@13:57:31","Mozilla/5.0 (Macintosh; Intel Mac OS X 10_15_5) AppleWebKit/537.36 (KHTML, like Gecko) Chrome/99.0.4844.74 Safari/537.36",1280,800,1280,651,"main",2445171,11,17,20,17,"HM","Moderate","Harder than Reference","F","k","riskyDeck","safeDeck",14,0,7,"right",0,0,39,"absent","safeDeck",1023,4333,1,1
"hy8mfnecik7_pilot",1447.38461538462,616.10446465203,"test","22/03/2022@13:57:31","Mozilla/5.0 (Macintosh; Intel Mac OS X 10_15_5) AppleWebKit/537.36 (KHTML, like Gecko) Chrome/99.0.4844.74 Safari/537.36",1280,800,1280,651,"main",2445171,12,1,20,17,"EE","Extreme","Easier than Reference","D","j","riskyDeck","safeDeck",0,-14,-7,"left",1,0,32,"present","riskyDeck",1423,823,-1,0
"hy8mfnecik7_pilot",1447.38461538462,616.10446465203,"test","22/03/2022@13:57:31","Mozilla/5.0 (Macintosh; Intel Mac OS X 10_15_5) AppleWebKit/537.36 (KHTML, like Gecko) Chrome/99.0.4844.74 Safari/537.36",1280,800,1280,651,"main",2445171,12,2,20,18,"EE","Extreme","Easier than Reference","D","k","riskyDeck","safeDeck",0,-14,-7,"left",1,0,32,"absent","riskyDeck",1423,3503,-1,0
"hy8mfnecik7_pilot",1447.38461538462,616.10446465203,"test","22/03/2022@13:57:31","Mozilla/5.0 (Macintosh; Intel Mac OS X 10_15_5) AppleWebKit/537.36 (KHTML, like Gecko) Chrome/99.0.4844.74 Safari/537.36",1280,800,1280,651,"main",2445171,12,3,20,18,"EE","Extreme","Easier than Reference","D","k","riskyDeck","safeDeck",0,-14,-7,"left",1,0,32,"absent","riskyDeck",1423,3361,-1,0
"hy8mfnecik7_pilot",1447.38461538462,616.10446465203,"test","22/03/2022@13:57:31","Mozilla/5.0 (Macintosh; Intel Mac OS X 10_15_5) AppleWebKit/537.36 (KHTML, like Gecko) Chrome/99.0.4844.74 Safari/537.36",1280,800,1280,651,"main",2445171,12,4,20,18,"EE","Extreme","Easier than Reference","D","k","riskyDeck","safeDeck",0,-14,-7,"left",1,0,32,"absent","riskyDeck",1423,4149,-1,0
"hy8mfnecik7_pilot",1447.38461538462,616.10446465203,"test","22/03/2022@13:57:31","Mozilla/5.0 (Macintosh; Intel Mac OS X 10_15_5) AppleWebKit/537.36 (KHTML, like Gecko) Chrome/99.0.4844.74 Safari/537.36",1280,800,1280,651,"main",2445171,12,5,21,18,"EE","Extreme","Easier than Reference","D","k","riskyDeck","safeDeck",0,-14,-7,"left",1,0,32,"absent","riskyDeck",1423,3431,-1,0
"hy8mfnecik7_pilot",1447.38461538462,616.10446465203,"test","22/03/2022@13:57:31","Mozilla/5.0 (Macintosh; Intel Mac OS X 10_15_5) AppleWebKit/537.36 (KHTML, like Gecko) Chrome/99.0.4844.74 Safari/537.36",1280,800,1280,651,"main",2445171,12,6,21,18,"EE","Extreme","Easier than Reference","D","j","riskyDeck","safeDeck",0,-14,-7,"left",1,0,32,"present","riskyDeck",1423,2668,-1,0
"hy8mfnecik7_pilot",1447.38461538462,616.10446465203,"test","22/03/2022@13:57:31","Mozilla/5.0 (Macintosh; Intel Mac OS X 10_15_5) AppleWebKit/537.36 (KHTML, like Gecko) Chrome/99.0.4844.74 Safari/537.36",1280,800,1280,651,"main",2445171,12,7,21,18,"EE","Extreme","Easier than Reference","D","k","riskyDeck","safeDeck",0,-14,-7,"left",1,0,32,"absent","riskyDeck",1423,3879,-1,0
"hy8mfnecik7_pilot",1447.38461538462,616.10446465203,"test","22/03/2022@13:57:31","Mozilla/5.0 (Macintosh; Intel Mac OS X 10_15_5) AppleWebKit/537.36 (KHTML, like Gecko) Chrome/99.0.4844.74 Safari/537.36",1280,800,1280,651,"main",2445171,12,8,21,18,"EE","Extreme","Easier than Reference","D","j","riskyDeck","safeDeck",0,-14,-7,"left",1,0,32,"present","riskyDeck",1423,4141,-1,0
"hy8mfnecik7_pilot",1447.38461538462,616.10446465203,"test","22/03/2022@13:57:31","Mozilla/5.0 (Macintosh; Intel Mac OS X 10_15_5) AppleWebKit/537.36 (KHTML, like Gecko) Chrome/99.0.4844.74 Safari/537.36",1280,800,1280,651,"main",2445171,12,9,21,18,"EE","Extreme","Easier than Reference","D","k","riskyDeck","safeDeck",0,-14,-7,"left",1,0,32,"absent","riskyDeck",1423,4722,-1,0
"hy8mfnecik7_pilot",1447.38461538462,616.10446465203,"test","22/03/2022@13:57:31","Mozilla/5.0 (Macintosh; Intel Mac OS X 10_15_5) AppleWebKit/537.36 (KHTML, like Gecko) Chrome/99.0.4844.74 Safari/537.36",1280,800,1280,651,"main",2445171,12,10,21,18,"EE","Extreme","Easier than Reference","D","k","riskyDeck","safeDeck",0,-14,-7,"left",1,0,32,"absent","riskyDeck",1423,4146,-1,0
"hy8mfnecik7_pilot",1447.38461538462,616.10446465203,"test","22/03/2022@13:57:31","Mozilla/5.0 (Macintosh; Intel Mac OS X 10_15_5) AppleWebKit/537.36 (KHTML, like Gecko) Chrome/99.0.4844.74 Safari/537.36",1280,800,1280,651,"main",2445171,12,11,21,18,"EE","Extreme","Easier than Reference","D","j","riskyDeck","safeDeck",0,-14,-7,"left",1,0,32,"present","riskyDeck",1423,2377,-1,0
"hy8mfnecik7_pilot",1447.38461538462,616.10446465203,"test","22/03/2022@13:57:31","Mozilla/5.0 (Macintosh; Intel Mac OS X 10_15_5) AppleWebKit/537.36 (KHTML, like Gecko) Chrome/99.0.4844.74 Safari/537.36",1280,800,1280,651,"main",2445171,12,12,21,18,"EE","Extreme","Easier than Reference","D","j","riskyDeck","safeDeck",0,-14,-7,"left",1,0,32,"present","riskyDeck",1423,1070,-1,0
"hy8mfnecik7_pilot",1447.38461538462,616.10446465203,"test","22/03/2022@13:57:31","Mozilla/5.0 (Macintosh; Intel Mac OS X 10_15_5) AppleWebKit/537.36 (KHTML, like Gecko) Chrome/99.0.4844.74 Safari/537.36",1280,800,1280,651,"main",2445171,12,13,21,18,"EE","Extreme","Easier than Reference","D","j","riskyDeck","safeDeck",0,-14,-7,"left",1,0,32,"present","riskyDeck",1423,2045,-1,0
"hy8mfnecik7_pilot",1447.38461538462,616.10446465203,"test","22/03/2022@13:57:31","Mozilla/5.0 (Macintosh; Intel Mac OS X 10_15_5) AppleWebKit/537.36 (KHTML, like Gecko) Chrome/99.0.4844.74 Safari/537.36",1280,800,1280,651,"main",2445171,12,14,21,18,"EE","Extreme","Easier than Reference","D","j","riskyDeck","safeDeck",0,-14,-7,"left",1,0,32,"present","riskyDeck",1423,2225,-1,0
"hy8mfnecik7_pilot",1447.38461538462,616.10446465203,"test","22/03/2022@13:57:31","Mozilla/5.0 (Macintosh; Intel Mac OS X 10_15_5) AppleWebKit/537.36 (KHTML, like Gecko) Chrome/99.0.4844.74 Safari/537.36",1280,800,1280,651,"main",2445171,12,15,21,18,"EE","Extreme","Easier than Reference","D","k","riskyDeck","safeDeck",0,-14,-7,"left",1,0,32,"absent","riskyDeck",1423,5709,-1,0
"hy8mfnecik7_pilot",1447.38461538462,616.10446465203,"test","22/03/2022@13:57:31","Mozilla/5.0 (Macintosh; Intel Mac OS X 10_15_5) AppleWebKit/537.36 (KHTML, like Gecko) Chrome/99.0.4844.74 Safari/537.36",1280,800,1280,651,"main",2445171,12,16,21,18,"EE","Extreme","Easier than Reference","D","k","riskyDeck","safeDeck",0,-14,-7,"left",1,0,32,"absent","riskyDeck",1423,4554,-1,0
"hy8mfnecik7_pilot",1447.38461538462,616.10446465203,"test","22/03/2022@13:57:31","Mozilla/5.0 (Macintosh; Intel Mac OS X 10_15_5) AppleWebKit/537.36 (KHTML, like Gecko) Chrome/99.0.4844.74 Safari/537.36",1280,800,1280,651,"main",2445171,12,17,21,18,"EE","Extreme","Easier than Reference","D","k","riskyDeck","safeDeck",0,-14,-7,"left",1,0,32,"absent","riskyDeck",1423,3205,-1,0
"hy8mfnecik7_pilot",1447.38461538462,616.10446465203,"test","22/03/2022@13:57:31","Mozilla/5.0 (Macintosh; Intel Mac OS X 10_15_5) AppleWebKit/537.36 (KHTML, like Gecko) Chrome/99.0.4844.74 Safari/537.36",1280,800,1280,651,"main",2445171,13,1,21,19,"EE","Extreme","Easier than Reference","D","j","riskyDeck","safeDeck",-14,0,-7,"left",1,0,32,"present","riskyDeck",1134,1015,-1,0
"hy8mfnecik7_pilot",1447.38461538462,616.10446465203,"test","22/03/2022@13:57:31","Mozilla/5.0 (Macintosh; Intel Mac OS X 10_15_5) AppleWebKit/537.36 (KHTML, like Gecko) Chrome/99.0.4844.74 Safari/537.36",1280,800,1280,651,"main",2445171,13,2,21,19,"EE","Extreme","Easier than Reference","D","j","riskyDeck","safeDeck",-14,0,-7,"left",1,0,32,"present","riskyDeck",1134,1452,-1,0
"hy8mfnecik7_pilot",1447.38461538462,616.10446465203,"test","22/03/2022@13:57:31","Mozilla/5.0 (Macintosh; Intel Mac OS X 10_15_5) AppleWebKit/537.36 (KHTML, like Gecko) Chrome/99.0.4844.74 Safari/537.36",1280,800,1280,651,"main",2445171,13,3,21,19,"EE","Extreme","Easier than Reference","D","k","riskyDeck","safeDeck",-14,0,-7,"left",1,0,32,"absent","riskyDeck",1134,5371,-1,0
"hy8mfnecik7_pilot",1447.38461538462,616.10446465203,"test","22/03/2022@13:57:31","Mozilla/5.0 (Macintosh; Intel Mac OS X 10_15_5) AppleWebKit/537.36 (KHTML, like Gecko) Chrome/99.0.4844.74 Safari/537.36",1280,800,1280,651,"main",2445171,13,4,22,19,"EE","Extreme","Easier than Reference","D","k","riskyDeck","safeDeck",-14,0,-7,"left",1,0,32,"absent","riskyDeck",1134,6063,-1,0
"hy8mfnecik7_pilot",1447.38461538462,616.10446465203,"test","22/03/2022@13:57:31","Mozilla/5.0 (Macintosh; Intel Mac OS X 10_15_5) AppleWebKit/537.36 (KHTML, like Gecko) Chrome/99.0.4844.74 Safari/537.36",1280,800,1280,651,"main",2445171,13,5,22,19,"EE","Extreme","Easier than Reference","D","j","riskyDeck","safeDeck",-14,0,-7,"left",1,0,32,"present","riskyDeck",1134,1680,-1,0
"hy8mfnecik7_pilot",1447.38461538462,616.10446465203,"test","22/03/2022@13:57:31","Mozilla/5.0 (Macintosh; Intel Mac OS X 10_15_5) AppleWebKit/537.36 (KHTML, like Gecko) Chrome/99.0.4844.74 Safari/537.36",1280,800,1280,651,"main",2445171,13,6,22,19,"EE","Extreme","Easier than Reference","D","j","riskyDeck","safeDeck",-14,0,-7,"left",1,0,32,"present","riskyDeck",1134,822,-1,0
"hy8mfnecik7_pilot",1447.38461538462,616.10446465203,"test","22/03/2022@13:57:31","Mozilla/5.0 (Macintosh; Intel Mac OS X 10_15_5) AppleWebKit/537.36 (KHTML, like Gecko) Chrome/99.0.4844.74 Safari/537.36",1280,800,1280,651,"main",2445171,13,7,22,19,"EE","Extreme","Easier than Reference","D","j","riskyDeck","safeDeck",-14,0,-7,"left",1,0,32,"present","riskyDeck",1134,1406,-1,0
"hy8mfnecik7_pilot",1447.38461538462,616.10446465203,"test","22/03/2022@13:57:31","Mozilla/5.0 (Macintosh; Intel Mac OS X 10_15_5) AppleWebKit/537.36 (KHTML, like Gecko) Chrome/99.0.4844.74 Safari/537.36",1280,800,1280,651,"main",2445171,13,8,22,19,"EE","Extreme","Easier than Reference","D","j","riskyDeck","safeDeck",-14,0,-7,"left",1,0,32,"present","riskyDeck",1134,2199,-1,0
"hy8mfnecik7_pilot",1447.38461538462,616.10446465203,"test","22/03/2022@13:57:31","Mozilla/5.0 (Macintosh; Intel Mac OS X 10_15_5) AppleWebKit/537.36 (KHTML, like Gecko) Chrome/99.0.4844.74 Safari/537.36",1280,800,1280,651,"main",2445171,13,9,22,19,"EE","Extreme","Easier than Reference","D","j","riskyDeck","safeDeck",-14,0,-7,"left",1,0,32,"present","riskyDeck",1134,1558,-1,0
"hy8mfnecik7_pilot",1447.38461538462,616.10446465203,"test","22/03/2022@13:57:31","Mozilla/5.0 (Macintosh; Intel Mac OS X 10_15_5) AppleWebKit/537.36 (KHTML, like Gecko) Chrome/99.0.4844.74 Safari/537.36",1280,800,1280,651,"main",2445171,13,10,22,19,"EE","Extreme","Easier than Reference","D","k","riskyDeck","safeDeck",-14,0,-7,"left",1,0,32,"absent","riskyDeck",1134,7335,-1,0
"hy8mfnecik7_pilot",1447.38461538462,616.10446465203,"test","22/03/2022@13:57:31","Mozilla/5.0 (Macintosh; Intel Mac OS X 10_15_5) AppleWebKit/537.36 (KHTML, like Gecko) Chrome/99.0.4844.74 Safari/537.36",1280,800,1280,651,"main",2445171,13,11,22,19,"EE","Extreme","Easier than Reference","D","k","riskyDeck","safeDeck",-14,0,-7,"left",1,0,32,"absent","riskyDeck",1134,4504,-1,0
"hy8mfnecik7_pilot",1447.38461538462,616.10446465203,"test","22/03/2022@13:57:31","Mozilla/5.0 (Macintosh; Intel Mac OS X 10_15_5) AppleWebKit/537.36 (KHTML, like Gecko) Chrome/99.0.4844.74 Safari/537.36",1280,800,1280,651,"main",2445171,13,12,22,19,"EE","Extreme","Easier than Reference","D","k","riskyDeck","safeDeck",-14,0,-7,"left",1,0,32,"absent","riskyDeck",1134,3812,-1,0
"hy8mfnecik7_pilot",1447.38461538462,616.10446465203,"test","22/03/2022@13:57:31","Mozilla/5.0 (Macintosh; Intel Mac OS X 10_15_5) AppleWebKit/537.36 (KHTML, like Gecko) Chrome/99.0.4844.74 Safari/537.36",1280,800,1280,651,"main",2445171,13,13,22,19,"EE","Extreme","Easier than Reference","D","j","riskyDeck","safeDeck",-14,0,-7,"left",1,0,32,"present","riskyDeck",1134,986,-1,0
"hy8mfnecik7_pilot",1447.38461538462,616.10446465203,"test","22/03/2022@13:57:31","Mozilla/5.0 (Macintosh; Intel Mac OS X 10_15_5) AppleWebKit/537.36 (KHTML, like Gecko) Chrome/99.0.4844.74 Safari/537.36",1280,800,1280,651,"main",2445171,13,14,22,19,"EE","Extreme","Easier than Reference","D","j","riskyDeck","safeDeck",-14,0,-7,"left",1,0,32,"present","riskyDeck",1134,890,-1,0
"hy8mfnecik7_pilot",1447.38461538462,616.10446465203,"test","22/03/2022@13:57:31","Mozilla/5.0 (Macintosh; Intel Mac OS X 10_15_5) AppleWebKit/537.36 (KHTML, like Gecko) Chrome/99.0.4844.74 Safari/537.36",1280,800,1280,651,"main",2445171,13,15,22,19,"EE","Extreme","Easier than Reference","D","k","riskyDeck","safeDeck",-14,0,-7,"left",1,0,32,"absent","riskyDeck",1134,4592,-1,0
"hy8mfnecik7_pilot",1447.38461538462,616.10446465203,"test","22/03/2022@13:57:31","Mozilla/5.0 (Macintosh; Intel Mac OS X 10_15_5) AppleWebKit/537.36 (KHTML, like Gecko) Chrome/99.0.4844.74 Safari/537.36",1280,800,1280,651,"main",2445171,13,16,22,19,"EE","Extreme","Easier than Reference","D","j","riskyDeck","safeDeck",-14,0,-7,"left",1,0,32,"present","riskyDeck",1134,2632,-1,0
"hy8mfnecik7_pilot",1447.38461538462,616.10446465203,"test","22/03/2022@13:57:31","Mozilla/5.0 (Macintosh; Intel Mac OS X 10_15_5) AppleWebKit/537.36 (KHTML, like Gecko) Chrome/99.0.4844.74 Safari/537.36",1280,800,1280,651,"main",2445171,13,17,22,19,"EE","Extreme","Easier than Reference","D","k","riskyDeck","safeDeck",-14,0,-7,"left",1,0,32,"absent","riskyDeck",1134,6042,-1,0
"hy8mfnecik7_pilot",1447.38461538462,616.10446465203,"test","22/03/2022@13:57:31","Mozilla/5.0 (Macintosh; Intel Mac OS X 10_15_5) AppleWebKit/537.36 (KHTML, like Gecko) Chrome/99.0.4844.74 Safari/537.36",1280,800,1280,651,"main",2445171,14,1,22,20,"HE","Extreme","Harder than Reference","F","j","safeDeck","riskyDeck",0,28,14,"right",1,0,60,"present","riskyDeck",1922,3657,1,0
"hy8mfnecik7_pilot",1447.38461538462,616.10446465203,"test","22/03/2022@13:57:31","Mozilla/5.0 (Macintosh; Intel Mac OS X 10_15_5) AppleWebKit/537.36 (KHTML, like Gecko) Chrome/99.0.4844.74 Safari/537.36",1280,800,1280,651,"main",2445171,14,2,22,20,"HE","Extreme","Harder than Reference","F","j","safeDeck","riskyDeck",0,28,14,"right",1,0,60,"present","riskyDeck",1922,2212,1,0
"hy8mfnecik7_pilot",1447.38461538462,616.10446465203,"test","22/03/2022@13:57:31","Mozilla/5.0 (Macintosh; Intel Mac OS X 10_15_5) AppleWebKit/537.36 (KHTML, like Gecko) Chrome/99.0.4844.74 Safari/537.36",1280,800,1280,651,"main",2445171,14,3,23,20,"HE","Extreme","Harder than Reference","F","j","safeDeck","riskyDeck",0,28,14,"right",1,0,60,"present","riskyDeck",1922,2369,1,0
"hy8mfnecik7_pilot",1447.38461538462,616.10446465203,"test","22/03/2022@13:57:31","Mozilla/5.0 (Macintosh; Intel Mac OS X 10_15_5) AppleWebKit/537.36 (KHTML, like Gecko) Chrome/99.0.4844.74 Safari/537.36",1280,800,1280,651,"main",2445171,14,4,23,20,"HE","Extreme","Harder than Reference","F","k","safeDeck","riskyDeck",0,28,14,"right",1,0,60,"absent","riskyDeck",1922,6139,1,0
"hy8mfnecik7_pilot",1447.38461538462,616.10446465203,"test","22/03/2022@13:57:31","Mozilla/5.0 (Macintosh; Intel Mac OS X 10_15_5) AppleWebKit/537.36 (KHTML, like Gecko) Chrome/99.0.4844.74 Safari/537.36",1280,800,1280,651,"main",2445171,14,5,23,20,"HE","Extreme","Harder than Reference","F","k","safeDeck","riskyDeck",0,28,14,"right",1,0,60,"absent","riskyDeck",1922,4147,1,0
"hy8mfnecik7_pilot",1447.38461538462,616.10446465203,"test","22/03/2022@13:57:31","Mozilla/5.0 (Macintosh; Intel Mac OS X 10_15_5) AppleWebKit/537.36 (KHTML, like Gecko) Chrome/99.0.4844.74 Safari/537.36",1280,800,1280,651,"main",2445171,14,6,23,20,"HE","Extreme","Harder than Reference","F","j","safeDeck","riskyDeck",0,28,14,"right",1,0,60,"present","riskyDeck",1922,2097,1,0
"hy8mfnecik7_pilot",1447.38461538462,616.10446465203,"test","22/03/2022@13:57:31","Mozilla/5.0 (Macintosh; Intel Mac OS X 10_15_5) AppleWebKit/537.36 (KHTML, like Gecko) Chrome/99.0.4844.74 Safari/537.36",1280,800,1280,651,"main",2445171,14,7,23,20,"HE","Extreme","Harder than Reference","F","j","safeDeck","riskyDeck",0,28,14,"right",1,0,60,"present","riskyDeck",1922,1742,1,0
"hy8mfnecik7_pilot",1447.38461538462,616.10446465203,"test","22/03/2022@13:57:31","Mozilla/5.0 (Macintosh; Intel Mac OS X 10_15_5) AppleWebKit/537.36 (KHTML, like Gecko) Chrome/99.0.4844.74 Safari/537.36",1280,800,1280,651,"main",2445171,14,8,23,20,"HE","Extreme","Harder than Reference","F","j","safeDeck","riskyDeck",0,28,14,"right",1,0,60,"present","riskyDeck",1922,4496,1,0
"hy8mfnecik7_pilot",1447.38461538462,616.10446465203,"test","22/03/2022@13:57:31","Mozilla/5.0 (Macintosh; Intel Mac OS X 10_15_5) AppleWebKit/537.36 (KHTML, like Gecko) Chrome/99.0.4844.74 Safari/537.36",1280,800,1280,651,"main",2445171,14,9,23,20,"HE","Extreme","Harder than Reference","F","k","safeDeck","riskyDeck",0,28,14,"right",1,0,60,"absent","riskyDeck",1922,8058,1,0
"hy8mfnecik7_pilot",1447.38461538462,616.10446465203,"test","22/03/2022@13:57:31","Mozilla/5.0 (Macintosh; Intel Mac OS X 10_15_5) AppleWebKit/537.36 (KHTML, like Gecko) Chrome/99.0.4844.74 Safari/537.36",1280,800,1280,651,"main",2445171,14,10,23,20,"HE","Extreme","Harder than Reference","F","k","safeDeck","riskyDeck",0,28,14,"right",1,0,60,"absent","riskyDeck",1922,6612,1,0
"hy8mfnecik7_pilot",1447.38461538462,616.10446465203,"test","22/03/2022@13:57:31","Mozilla/5.0 (Macintosh; Intel Mac OS X 10_15_5) AppleWebKit/537.36 (KHTML, like Gecko) Chrome/99.0.4844.74 Safari/537.36",1280,800,1280,651,"main",2445171,14,11,23,20,"HE","Extreme","Harder than Reference","F","k","safeDeck","riskyDeck",0,28,14,"right",1,0,60,"absent","riskyDeck",1922,5266,1,0
"hy8mfnecik7_pilot",1447.38461538462,616.10446465203,"test","22/03/2022@13:57:31","Mozilla/5.0 (Macintosh; Intel Mac OS X 10_15_5) AppleWebKit/537.36 (KHTML, like Gecko) Chrome/99.0.4844.74 Safari/537.36",1280,800,1280,651,"main",2445171,14,12,23,20,"HE","Extreme","Harder than Reference","F","k","safeDeck","riskyDeck",0,28,14,"right",1,0,60,"absent","riskyDeck",1922,4744,1,0
"hy8mfnecik7_pilot",1447.38461538462,616.10446465203,"test","22/03/2022@13:57:31","Mozilla/5.0 (Macintosh; Intel Mac OS X 10_15_5) AppleWebKit/537.36 (KHTML, like Gecko) Chrome/99.0.4844.74 Safari/537.36",1280,800,1280,651,"main",2445171,14,13,23,20,"HE","Extreme","Harder than Reference","F","j","safeDeck","riskyDeck",0,28,14,"right",1,0,60,"present","riskyDeck",1922,1428,1,0
"hy8mfnecik7_pilot",1447.38461538462,616.10446465203,"test","22/03/2022@13:57:31","Mozilla/5.0 (Macintosh; Intel Mac OS X 10_15_5) AppleWebKit/537.36 (KHTML, like Gecko) Chrome/99.0.4844.74 Safari/537.36",1280,800,1280,651,"main",2445171,14,14,23,21,"HE","Extreme","Harder than Reference","F","k","safeDeck","riskyDeck",0,28,14,"right",1,0,60,"absent","riskyDeck",1922,6324,1,0
"hy8mfnecik7_pilot",1447.38461538462,616.10446465203,"test","22/03/2022@13:57:31","Mozilla/5.0 (Macintosh; Intel Mac OS X 10_15_5) AppleWebKit/537.36 (KHTML, like Gecko) Chrome/99.0.4844.74 Safari/537.36",1280,800,1280,651,"main",2445171,14,15,24,21,"HE","Extreme","Harder than Reference","F","k","safeDeck","riskyDeck",0,28,14,"right",1,0,60,"absent","riskyDeck",1922,4886,1,0
"hy8mfnecik7_pilot",1447.38461538462,616.10446465203,"test","22/03/2022@13:57:31","Mozilla/5.0 (Macintosh; Intel Mac OS X 10_15_5) AppleWebKit/537.36 (KHTML, like Gecko) Chrome/99.0.4844.74 Safari/537.36",1280,800,1280,651,"main",2445171,14,16,24,21,"HE","Extreme","Harder than Reference","F","k","safeDeck","riskyDeck",0,28,14,"right",1,0,60,"absent","riskyDeck",1922,4351,1,0
"hy8mfnecik7_pilot",1447.38461538462,616.10446465203,"test","22/03/2022@13:57:31","Mozilla/5.0 (Macintosh; Intel Mac OS X 10_15_5) AppleWebKit/537.36 (KHTML, like Gecko) Chrome/99.0.4844.74 Safari/537.36",1280,800,1280,651,"main",2445171,14,17,24,21,"HE","Extreme","Harder than Reference","F","k","safeDeck","riskyDeck",0,28,14,"right",1,1,60,"present","riskyDeck",1922,5228,1,0
"hy8mfnecik7_pilot",1447.38461538462,616.10446465203,"test","22/03/2022@13:57:31","Mozilla/5.0 (Macintosh; Intel Mac OS X 10_15_5) AppleWebKit/537.36 (KHTML, like Gecko) Chrome/99.0.4844.74 Safari/537.36",1280,800,1280,651,"main",2445171,15,1,24,21,"EM","Moderate","Easier than Reference","D","k","safeDeck","riskyDeck",-28,0,-14,"left",0,0,18,"absent","safeDeck",1074,2275,-1,1
"hy8mfnecik7_pilot",1447.38461538462,616.10446465203,"test","22/03/2022@13:57:31","Mozilla/5.0 (Macintosh; Intel Mac OS X 10_15_5) AppleWebKit/537.36 (KHTML, like Gecko) Chrome/99.0.4844.74 Safari/537.36",1280,800,1280,651,"main",2445171,15,2,24,21,"EM","Moderate","Easier than Reference","D","j","safeDeck","riskyDeck",-28,0,-14,"left",0,0,18,"present","safeDeck",1074,966,-1,1
"hy8mfnecik7_pilot",1447.38461538462,616.10446465203,"test","22/03/2022@13:57:31","Mozilla/5.0 (Macintosh; Intel Mac OS X 10_15_5) AppleWebKit/537.36 (KHTML, like Gecko) Chrome/99.0.4844.74 Safari/537.36",1280,800,1280,651,"main",2445171,15,3,24,21,"EM","Moderate","Easier than Reference","D","j","safeDeck","riskyDeck",-28,0,-14,"left",0,0,18,"present","safeDeck",1074,958,-1,1
"hy8mfnecik7_pilot",1447.38461538462,616.10446465203,"test","22/03/2022@13:57:31","Mozilla/5.0 (Macintosh; Intel Mac OS X 10_15_5) AppleWebKit/537.36 (KHTML, like Gecko) Chrome/99.0.4844.74 Safari/537.36",1280,800,1280,651,"main",2445171,15,4,24,21,"EM","Moderate","Easier than Reference","D","j","safeDeck","riskyDeck",-28,0,-14,"left",0,0,18,"present","safeDeck",1074,823,-1,1
"hy8mfnecik7_pilot",1447.38461538462,616.10446465203,"test","22/03/2022@13:57:31","Mozilla/5.0 (Macintosh; Intel Mac OS X 10_15_5) AppleWebKit/537.36 (KHTML, like Gecko) Chrome/99.0.4844.74 Safari/537.36",1280,800,1280,651,"main",2445171,15,5,24,21,"EM","Moderate","Easier than Reference","D","k","safeDeck","riskyDeck",-28,0,-14,"left",0,0,18,"absent","safeDeck",1074,2647,-1,1
"hy8mfnecik7_pilot",1447.38461538462,616.10446465203,"test","22/03/2022@13:57:31","Mozilla/5.0 (Macintosh; Intel Mac OS X 10_15_5) AppleWebKit/537.36 (KHTML, like Gecko) Chrome/99.0.4844.74 Safari/537.36",1280,800,1280,651,"main",2445171,15,6,24,21,"EM","Moderate","Easier than Reference","D","k","safeDeck","riskyDeck",-28,0,-14,"left",0,0,18,"absent","safeDeck",1074,2723,-1,1
"hy8mfnecik7_pilot",1447.38461538462,616.10446465203,"test","22/03/2022@13:57:31","Mozilla/5.0 (Macintosh; Intel Mac OS X 10_15_5) AppleWebKit/537.36 (KHTML, like Gecko) Chrome/99.0.4844.74 Safari/537.36",1280,800,1280,651,"main",2445171,15,7,24,21,"EM","Moderate","Easier than Reference","D","j","safeDeck","riskyDeck",-28,0,-14,"left",0,0,18,"present","safeDeck",1074,867,-1,1
"hy8mfnecik7_pilot",1447.38461538462,616.10446465203,"test","22/03/2022@13:57:31","Mozilla/5.0 (Macintosh; Intel Mac OS X 10_15_5) AppleWebKit/537.36 (KHTML, like Gecko) Chrome/99.0.4844.74 Safari/537.36",1280,800,1280,651,"main",2445171,15,8,24,21,"EM","Moderate","Easier than Reference","D","k","safeDeck","riskyDeck",-28,0,-14,"left",0,0,18,"absent","safeDeck",1074,2108,-1,1
"hy8mfnecik7_pilot",1447.38461538462,616.10446465203,"test","22/03/2022@13:57:31","Mozilla/5.0 (Macintosh; Intel Mac OS X 10_15_5) AppleWebKit/537.36 (KHTML, like Gecko) Chrome/99.0.4844.74 Safari/537.36",1280,800,1280,651,"main",2445171,15,9,24,21,"EM","Moderate","Easier than Reference","D","k","safeDeck","riskyDeck",-28,0,-14,"left",0,0,18,"absent","safeDeck",1074,995,-1,1
"hy8mfnecik7_pilot",1447.38461538462,616.10446465203,"test","22/03/2022@13:57:31","Mozilla/5.0 (Macintosh; Intel Mac OS X 10_15_5) AppleWebKit/537.36 (KHTML, like Gecko) Chrome/99.0.4844.74 Safari/537.36",1280,800,1280,651,"main",2445171,15,10,24,21,"EM","Moderate","Easier than Reference","D","j","safeDeck","riskyDeck",-28,0,-14,"left",0,0,18,"present","safeDeck",1074,809,-1,1
"hy8mfnecik7_pilot",1447.38461538462,616.10446465203,"test","22/03/2022@13:57:31","Mozilla/5.0 (Macintosh; Intel Mac OS X 10_15_5) AppleWebKit/537.36 (KHTML, like Gecko) Chrome/99.0.4844.74 Safari/537.36",1280,800,1280,651,"main",2445171,15,11,24,21,"EM","Moderate","Easier than Reference","D","k","safeDeck","riskyDeck",-28,0,-14,"left",0,0,18,"absent","safeDeck",1074,2268,-1,1
"hy8mfnecik7_pilot",1447.38461538462,616.10446465203,"test","22/03/2022@13:57:31","Mozilla/5.0 (Macintosh; Intel Mac OS X 10_15_5) AppleWebKit/537.36 (KHTML, like Gecko) Chrome/99.0.4844.74 Safari/537.36",1280,800,1280,651,"main",2445171,15,12,24,21,"EM","Moderate","Easier than Reference","D","j","safeDeck","riskyDeck",-28,0,-14,"left",0,0,18,"present","safeDeck",1074,839,-1,1
"hy8mfnecik7_pilot",1447.38461538462,616.10446465203,"test","22/03/2022@13:57:31","Mozilla/5.0 (Macintosh; Intel Mac OS X 10_15_5) AppleWebKit/537.36 (KHTML, like Gecko) Chrome/99.0.4844.74 Safari/537.36",1280,800,1280,651,"main",2445171,15,13,24,21,"EM","Moderate","Easier than Reference","D","k","safeDeck","riskyDeck",-28,0,-14,"left",0,0,18,"absent","safeDeck",1074,2424,-1,1
"hy8mfnecik7_pilot",1447.38461538462,616.10446465203,"test","22/03/2022@13:57:31","Mozilla/5.0 (Macintosh; Intel Mac OS X 10_15_5) AppleWebKit/537.36 (KHTML, like Gecko) Chrome/99.0.4844.74 Safari/537.36",1280,800,1280,651,"main",2445171,15,14,24,21,"EM","Moderate","Easier than Reference","D","j","safeDeck","riskyDeck",-28,0,-14,"left",0,0,18,"present","safeDeck",1074,1071,-1,1
"hy8mfnecik7_pilot",1447.38461538462,616.10446465203,"test","22/03/2022@13:57:31","Mozilla/5.0 (Macintosh; Intel Mac OS X 10_15_5) AppleWebKit/537.36 (KHTML, like Gecko) Chrome/99.0.4844.74 Safari/537.36",1280,800,1280,651,"main",2445171,15,15,24,21,"EM","Moderate","Easier than Reference","D","k","safeDeck","riskyDeck",-28,0,-14,"left",0,0,18,"absent","safeDeck",1074,2422,-1,1
"hy8mfnecik7_pilot",1447.38461538462,616.10446465203,"test","22/03/2022@13:57:31","Mozilla/5.0 (Macintosh; Intel Mac OS X 10_15_5) AppleWebKit/537.36 (KHTML, like Gecko) Chrome/99.0.4844.74 Safari/537.36",1280,800,1280,651,"main",2445171,15,16,24,21,"EM","Moderate","Easier than Reference","D","j","safeDeck","riskyDeck",-28,0,-14,"left",0,0,18,"present","safeDeck",1074,1233,-1,1
"hy8mfnecik7_pilot",1447.38461538462,616.10446465203,"test","22/03/2022@13:57:31","Mozilla/5.0 (Macintosh; Intel Mac OS X 10_15_5) AppleWebKit/537.36 (KHTML, like Gecko) Chrome/99.0.4844.74 Safari/537.36",1280,800,1280,651,"main",2445171,15,17,24,21,"EM","Moderate","Easier than Reference","D","k","safeDeck","riskyDeck",-28,0,-14,"left",0,0,18,"absent","safeDeck",1074,2882,-1,1
"hy8mfnecik7_pilot",1447.38461538462,616.10446465203,"test","22/03/2022@13:57:31","Mozilla/5.0 (Macintosh; Intel Mac OS X 10_15_5) AppleWebKit/537.36 (KHTML, like Gecko) Chrome/99.0.4844.74 Safari/537.36",1280,800,1280,651,"main",2445171,16,1,24,22,"HM","Moderate","Harder than Reference","F","j","safeDeck","riskyDeck",14,0,7,"right",1,0,32,"present","riskyDeck",1605,1269,1,0
"hy8mfnecik7_pilot",1447.38461538462,616.10446465203,"test","22/03/2022@13:57:31","Mozilla/5.0 (Macintosh; Intel Mac OS X 10_15_5) AppleWebKit/537.36 (KHTML, like Gecko) Chrome/99.0.4844.74 Safari/537.36",1280,800,1280,651,"main",2445171,16,2,24,22,"HM","Moderate","Harder than Reference","F","k","safeDeck","riskyDeck",14,0,7,"right",1,0,32,"absent","riskyDeck",1605,3773,1,0
"hy8mfnecik7_pilot",1447.38461538462,616.10446465203,"test","22/03/2022@13:57:31","Mozilla/5.0 (Macintosh; Intel Mac OS X 10_15_5) AppleWebKit/537.36 (KHTML, like Gecko) Chrome/99.0.4844.74 Safari/537.36",1280,800,1280,651,"main",2445171,16,3,24,22,"HM","Moderate","Harder than Reference","F","j","safeDeck","riskyDeck",14,0,7,"right",1,0,32,"present","riskyDeck",1605,725,1,0
"hy8mfnecik7_pilot",1447.38461538462,616.10446465203,"test","22/03/2022@13:57:31","Mozilla/5.0 (Macintosh; Intel Mac OS X 10_15_5) AppleWebKit/537.36 (KHTML, like Gecko) Chrome/99.0.4844.74 Safari/537.36",1280,800,1280,651,"main",2445171,16,4,25,22,"HM","Moderate","Harder than Reference","F","k","safeDeck","riskyDeck",14,0,7,"right",1,0,32,"absent","riskyDeck",1605,3415,1,0
"hy8mfnecik7_pilot",1447.38461538462,616.10446465203,"test","22/03/2022@13:57:31","Mozilla/5.0 (Macintosh; Intel Mac OS X 10_15_5) AppleWebKit/537.36 (KHTML, like Gecko) Chrome/99.0.4844.74 Safari/537.36",1280,800,1280,651,"main",2445171,16,5,25,22,"HM","Moderate","Harder than Reference","F","j","safeDeck","riskyDeck",14,0,7,"right",1,0,32,"present","riskyDeck",1605,812,1,0
"hy8mfnecik7_pilot",1447.38461538462,616.10446465203,"test","22/03/2022@13:57:31","Mozilla/5.0 (Macintosh; Intel Mac OS X 10_15_5) AppleWebKit/537.36 (KHTML, like Gecko) Chrome/99.0.4844.74 Safari/537.36",1280,800,1280,651,"main",2445171,16,6,25,22,"HM","Moderate","Harder than Reference","F","j","safeDeck","riskyDeck",14,0,7,"right",1,0,32,"present","riskyDeck",1605,2221,1,0
"hy8mfnecik7_pilot",1447.38461538462,616.10446465203,"test","22/03/2022@13:57:31","Mozilla/5.0 (Macintosh; Intel Mac OS X 10_15_5) AppleWebKit/537.36 (KHTML, like Gecko) Chrome/99.0.4844.74 Safari/537.36",1280,800,1280,651,"main",2445171,16,7,25,22,"HM","Moderate","Harder than Reference","F","j","safeDeck","riskyDeck",14,0,7,"right",1,0,32,"present","riskyDeck",1605,913,1,0
"hy8mfnecik7_pilot",1447.38461538462,616.10446465203,"test","22/03/2022@13:57:31","Mozilla/5.0 (Macintosh; Intel Mac OS X 10_15_5) AppleWebKit/537.36 (KHTML, like Gecko) Chrome/99.0.4844.74 Safari/537.36",1280,800,1280,651,"main",2445171,16,8,25,22,"HM","Moderate","Harder than Reference","F","j","safeDeck","riskyDeck",14,0,7,"right",1,0,32,"present","riskyDeck",1605,1390,1,0
"hy8mfnecik7_pilot",1447.38461538462,616.10446465203,"test","22/03/2022@13:57:31","Mozilla/5.0 (Macintosh; Intel Mac OS X 10_15_5) AppleWebKit/537.36 (KHTML, like Gecko) Chrome/99.0.4844.74 Safari/537.36",1280,800,1280,651,"main",2445171,16,9,25,22,"HM","Moderate","Harder than Reference","F","k","safeDeck","riskyDeck",14,0,7,"right",1,0,32,"absent","riskyDeck",1605,4317,1,0
"hy8mfnecik7_pilot",1447.38461538462,616.10446465203,"test","22/03/2022@13:57:31","Mozilla/5.0 (Macintosh; Intel Mac OS X 10_15_5) AppleWebKit/537.36 (KHTML, like Gecko) Chrome/99.0.4844.74 Safari/537.36",1280,800,1280,651,"main",2445171,16,10,25,22,"HM","Moderate","Harder than Reference","F","k","safeDeck","riskyDeck",14,0,7,"right",1,0,32,"absent","riskyDeck",1605,3017,1,0
"hy8mfnecik7_pilot",1447.38461538462,616.10446465203,"test","22/03/2022@13:57:31","Mozilla/5.0 (Macintosh; Intel Mac OS X 10_15_5) AppleWebKit/537.36 (KHTML, like Gecko) Chrome/99.0.4844.74 Safari/537.36",1280,800,1280,651,"main",2445171,16,11,25,22,"HM","Moderate","Harder than Reference","F","k","safeDeck","riskyDeck",14,0,7,"right",1,0,32,"absent","riskyDeck",1605,1615,1,0
"hy8mfnecik7_pilot",1447.38461538462,616.10446465203,"test","22/03/2022@13:57:31","Mozilla/5.0 (Macintosh; Intel Mac OS X 10_15_5) AppleWebKit/537.36 (KHTML, like Gecko) Chrome/99.0.4844.74 Safari/537.36",1280,800,1280,651,"main",2445171,16,12,25,22,"HM","Moderate","Harder than Reference","F","k","safeDeck","riskyDeck",14,0,7,"right",1,0,32,"absent","riskyDeck",1605,2990,1,0
"hy8mfnecik7_pilot",1447.38461538462,616.10446465203,"test","22/03/2022@13:57:31","Mozilla/5.0 (Macintosh; Intel Mac OS X 10_15_5) AppleWebKit/537.36 (KHTML, like Gecko) Chrome/99.0.4844.74 Safari/537.36",1280,800,1280,651,"main",2445171,16,13,25,22,"HM","Moderate","Harder than Reference","F","k","safeDeck","riskyDeck",14,0,7,"right",1,0,32,"absent","riskyDeck",1605,2822,1,0
"hy8mfnecik7_pilot",1447.38461538462,616.10446465203,"test","22/03/2022@13:57:31","Mozilla/5.0 (Macintosh; Intel Mac OS X 10_15_5) AppleWebKit/537.36 (KHTML, like Gecko) Chrome/99.0.4844.74 Safari/537.36",1280,800,1280,651,"main",2445171,16,14,25,22,"HM","Moderate","Harder than Reference","F","k","safeDeck","riskyDeck",14,0,7,"right",1,0,32,"absent","riskyDeck",1605,2143,1,0
"hy8mfnecik7_pilot",1447.38461538462,616.10446465203,"test","22/03/2022@13:57:31","Mozilla/5.0 (Macintosh; Intel Mac OS X 10_15_5) AppleWebKit/537.36 (KHTML, like Gecko) Chrome/99.0.4844.74 Safari/537.36",1280,800,1280,651,"main",2445171,16,15,25,22,"HM","Moderate","Harder than Reference","F","k","safeDeck","riskyDeck",14,0,7,"right",1,0,32,"absent","riskyDeck",1605,3201,1,0
"hy8mfnecik7_pilot",1447.38461538462,616.10446465203,"test","22/03/2022@13:57:31","Mozilla/5.0 (Macintosh; Intel Mac OS X 10_15_5) AppleWebKit/537.36 (KHTML, like Gecko) Chrome/99.0.4844.74 Safari/537.36",1280,800,1280,651,"main",2445171,16,16,25,22,"HM","Moderate","Harder than Reference","F","k","safeDeck","riskyDeck",14,0,7,"right",1,0,32,"absent","riskyDeck",1605,3048,1,0
"hy8mfnecik7_pilot",1447.38461538462,616.10446465203,"test","22/03/2022@13:57:31","Mozilla/5.0 (Macintosh; Intel Mac OS X 10_15_5) AppleWebKit/537.36 (KHTML, like Gecko) Chrome/99.0.4844.74 Safari/537.36",1280,800,1280,651,"main",2445171,16,17,25,22,"HM","Moderate","Harder than Reference","F","k","safeDeck","riskyDeck",14,0,7,"right",1,0,32,"absent","riskyDeck",1605,2885,1,0
"hy8mfnecik7_pilot",1447.38461538462,616.10446465203,"test","22/03/2022@13:57:31","Mozilla/5.0 (Macintosh; Intel Mac OS X 10_15_5) AppleWebKit/537.36 (KHTML, like Gecko) Chrome/99.0.4844.74 Safari/537.36",1280,800,1280,651,"main",2445171,17,1,25,22,"EM","Moderate","Easier than Reference","F","j","safeDeck","riskyDeck",-28,0,-14,"right",1,0,32,"present","riskyDeck",1506,906,1,0
"hy8mfnecik7_pilot",1447.38461538462,616.10446465203,"test","22/03/2022@13:57:31","Mozilla/5.0 (Macintosh; Intel Mac OS X 10_15_5) AppleWebKit/537.36 (KHTML, like Gecko) Chrome/99.0.4844.74 Safari/537.36",1280,800,1280,651,"main",2445171,17,2,25,22,"EM","Moderate","Easier than Reference","F","k","safeDeck","riskyDeck",-28,0,-14,"right",1,0,32,"absent","riskyDeck",1506,3346,1,0
"hy8mfnecik7_pilot",1447.38461538462,616.10446465203,"test","22/03/2022@13:57:31","Mozilla/5.0 (Macintosh; Intel Mac OS X 10_15_5) AppleWebKit/537.36 (KHTML, like Gecko) Chrome/99.0.4844.74 Safari/537.36",1280,800,1280,651,"main",2445171,17,3,25,22,"EM","Moderate","Easier than Reference","F","j","safeDeck","riskyDeck",-28,0,-14,"right",1,0,32,"present","riskyDeck",1506,1096,1,0
"hy8mfnecik7_pilot",1447.38461538462,616.10446465203,"test","22/03/2022@13:57:31","Mozilla/5.0 (Macintosh; Intel Mac OS X 10_15_5) AppleWebKit/537.36 (KHTML, like Gecko) Chrome/99.0.4844.74 Safari/537.36",1280,800,1280,651,"main",2445171,17,4,25,22,"EM","Moderate","Easier than Reference","F","k","safeDeck","riskyDeck",-28,0,-14,"right",1,0,32,"absent","riskyDeck",1506,2892,1,0
"hy8mfnecik7_pilot",1447.38461538462,616.10446465203,"test","22/03/2022@13:57:31","Mozilla/5.0 (Macintosh; Intel Mac OS X 10_15_5) AppleWebKit/537.36 (KHTML, like Gecko) Chrome/99.0.4844.74 Safari/537.36",1280,800,1280,651,"main",2445171,17,5,25,23,"EM","Moderate","Easier than Reference","F","k","safeDeck","riskyDeck",-28,0,-14,"right",1,0,32,"absent","riskyDeck",1506,2577,1,0
"hy8mfnecik7_pilot",1447.38461538462,616.10446465203,"test","22/03/2022@13:57:31","Mozilla/5.0 (Macintosh; Intel Mac OS X 10_15_5) AppleWebKit/537.36 (KHTML, like Gecko) Chrome/99.0.4844.74 Safari/537.36",1280,800,1280,651,"main",2445171,17,6,25,23,"EM","Moderate","Easier than Reference","F","j","safeDeck","riskyDeck",-28,0,-14,"right",1,0,32,"present","riskyDeck",1506,935,1,0
"hy8mfnecik7_pilot",1447.38461538462,616.10446465203,"test","22/03/2022@13:57:31","Mozilla/5.0 (Macintosh; Intel Mac OS X 10_15_5) AppleWebKit/537.36 (KHTML, like Gecko) Chrome/99.0.4844.74 Safari/537.36",1280,800,1280,651,"main",2445171,17,7,25,23,"EM","Moderate","Easier than Reference","F","k","safeDeck","riskyDeck",-28,0,-14,"right",1,0,32,"absent","riskyDeck",1506,3111,1,0
"hy8mfnecik7_pilot",1447.38461538462,616.10446465203,"test","22/03/2022@13:57:31","Mozilla/5.0 (Macintosh; Intel Mac OS X 10_15_5) AppleWebKit/537.36 (KHTML, like Gecko) Chrome/99.0.4844.74 Safari/537.36",1280,800,1280,651,"main",2445171,17,8,25,23,"EM","Moderate","Easier than Reference","F","j","safeDeck","riskyDeck",-28,0,-14,"right",1,0,32,"present","riskyDeck",1506,874,1,0
"hy8mfnecik7_pilot",1447.38461538462,616.10446465203,"test","22/03/2022@13:57:31","Mozilla/5.0 (Macintosh; Intel Mac OS X 10_15_5) AppleWebKit/537.36 (KHTML, like Gecko) Chrome/99.0.4844.74 Safari/537.36",1280,800,1280,651,"main",2445171,17,9,26,23,"EM","Moderate","Easier than Reference","F","k","safeDeck","riskyDeck",-28,0,-14,"right",1,0,32,"absent","riskyDeck",1506,4107,1,0
"hy8mfnecik7_pilot",1447.38461538462,616.10446465203,"test","22/03/2022@13:57:31","Mozilla/5.0 (Macintosh; Intel Mac OS X 10_15_5) AppleWebKit/537.36 (KHTML, like Gecko) Chrome/99.0.4844.74 Safari/537.36",1280,800,1280,651,"main",2445171,17,10,26,23,"EM","Moderate","Easier than Reference","F","j","safeDeck","riskyDeck",-28,0,-14,"right",1,0,32,"present","riskyDeck",1506,2252,1,0
"hy8mfnecik7_pilot",1447.38461538462,616.10446465203,"test","22/03/2022@13:57:31","Mozilla/5.0 (Macintosh; Intel Mac OS X 10_15_5) AppleWebKit/537.36 (KHTML, like Gecko) Chrome/99.0.4844.74 Safari/537.36",1280,800,1280,651,"main",2445171,17,11,26,23,"EM","Moderate","Easier than Reference","F","k","safeDeck","riskyDeck",-28,0,-14,"right",1,0,32,"absent","riskyDeck",1506,4423,1,0
"hy8mfnecik7_pilot",1447.38461538462,616.10446465203,"test","22/03/2022@13:57:31","Mozilla/5.0 (Macintosh; Intel Mac OS X 10_15_5) AppleWebKit/537.36 (KHTML, like Gecko) Chrome/99.0.4844.74 Safari/537.36",1280,800,1280,651,"main",2445171,17,12,26,23,"EM","Moderate","Easier than Reference","F","k","safeDeck","riskyDeck",-28,0,-14,"right",1,0,32,"absent","riskyDeck",1506,2688,1,0
"hy8mfnecik7_pilot",1447.38461538462,616.10446465203,"test","22/03/2022@13:57:31","Mozilla/5.0 (Macintosh; Intel Mac OS X 10_15_5) AppleWebKit/537.36 (KHTML, like Gecko) Chrome/99.0.4844.74 Safari/537.36",1280,800,1280,651,"main",2445171,17,13,26,23,"EM","Moderate","Easier than Reference","F","j","safeDeck","riskyDeck",-28,0,-14,"right",1,0,32,"present","riskyDeck",1506,700,1,0
"hy8mfnecik7_pilot",1447.38461538462,616.10446465203,"test","22/03/2022@13:57:31","Mozilla/5.0 (Macintosh; Intel Mac OS X 10_15_5) AppleWebKit/537.36 (KHTML, like Gecko) Chrome/99.0.4844.74 Safari/537.36",1280,800,1280,651,"main",2445171,17,14,26,23,"EM","Moderate","Easier than Reference","F","j","safeDeck","riskyDeck",-28,0,-14,"right",1,0,32,"present","riskyDeck",1506,837,1,0
"hy8mfnecik7_pilot",1447.38461538462,616.10446465203,"test","22/03/2022@13:57:31","Mozilla/5.0 (Macintosh; Intel Mac OS X 10_15_5) AppleWebKit/537.36 (KHTML, like Gecko) Chrome/99.0.4844.74 Safari/537.36",1280,800,1280,651,"main",2445171,17,15,26,23,"EM","Moderate","Easier than Reference","F","j","safeDeck","riskyDeck",-28,0,-14,"right",1,0,32,"present","riskyDeck",1506,729,1,0
"hy8mfnecik7_pilot",1447.38461538462,616.10446465203,"test","22/03/2022@13:57:31","Mozilla/5.0 (Macintosh; Intel Mac OS X 10_15_5) AppleWebKit/537.36 (KHTML, like Gecko) Chrome/99.0.4844.74 Safari/537.36",1280,800,1280,651,"main",2445171,17,16,26,23,"EM","Moderate","Easier than Reference","F","k","safeDeck","riskyDeck",-28,0,-14,"right",1,0,32,"absent","riskyDeck",1506,4388,1,0
"hy8mfnecik7_pilot",1447.38461538462,616.10446465203,"test","22/03/2022@13:57:31","Mozilla/5.0 (Macintosh; Intel Mac OS X 10_15_5) AppleWebKit/537.36 (KHTML, like Gecko) Chrome/99.0.4844.74 Safari/537.36",1280,800,1280,651,"main",2445171,17,17,26,23,"EM","Moderate","Easier than Reference","F","k","safeDeck","riskyDeck",-28,0,-14,"right",1,0,32,"absent","riskyDeck",1506,1715,1,0
"hy8mfnecik7_pilot",1447.38461538462,616.10446465203,"test","22/03/2022@13:57:31","Mozilla/5.0 (Macintosh; Intel Mac OS X 10_15_5) AppleWebKit/537.36 (KHTML, like Gecko) Chrome/99.0.4844.74 Safari/537.36",1280,800,1280,651,"main",2445171,18,1,26,23,"HE","Extreme","Harder than Reference","D","k","riskyDeck","safeDeck",0,28,14,"left",1,0,32,"absent","riskyDeck",1919,1520,-1,0
"hy8mfnecik7_pilot",1447.38461538462,616.10446465203,"test","22/03/2022@13:57:31","Mozilla/5.0 (Macintosh; Intel Mac OS X 10_15_5) AppleWebKit/537.36 (KHTML, like Gecko) Chrome/99.0.4844.74 Safari/537.36",1280,800,1280,651,"main",2445171,18,2,26,23,"HE","Extreme","Harder than Reference","D","k","riskyDeck","safeDeck",0,28,14,"left",1,0,32,"absent","riskyDeck",1919,2678,-1,0
"hy8mfnecik7_pilot",1447.38461538462,616.10446465203,"test","22/03/2022@13:57:31","Mozilla/5.0 (Macintosh; Intel Mac OS X 10_15_5) AppleWebKit/537.36 (KHTML, like Gecko) Chrome/99.0.4844.74 Safari/537.36",1280,800,1280,651,"main",2445171,18,3,26,23,"HE","Extreme","Harder than Reference","D","k","riskyDeck","safeDeck",0,28,14,"left",1,0,32,"absent","riskyDeck",1919,2450,-1,0
"hy8mfnecik7_pilot",1447.38461538462,616.10446465203,"test","22/03/2022@13:57:31","Mozilla/5.0 (Macintosh; Intel Mac OS X 10_15_5) AppleWebKit/537.36 (KHTML, like Gecko) Chrome/99.0.4844.74 Safari/537.36",1280,800,1280,651,"main",2445171,18,4,26,23,"HE","Extreme","Harder than Reference","D","k","riskyDeck","safeDeck",0,28,14,"left",1,0,32,"absent","riskyDeck",1919,2299,-1,0
"hy8mfnecik7_pilot",1447.38461538462,616.10446465203,"test","22/03/2022@13:57:31","Mozilla/5.0 (Macintosh; Intel Mac OS X 10_15_5) AppleWebKit/537.36 (KHTML, like Gecko) Chrome/99.0.4844.74 Safari/537.36",1280,800,1280,651,"main",2445171,18,5,26,23,"HE","Extreme","Harder than Reference","D","j","riskyDeck","safeDeck",0,28,14,"left",1,0,32,"present","riskyDeck",1919,1629,-1,0
"hy8mfnecik7_pilot",1447.38461538462,616.10446465203,"test","22/03/2022@13:57:31","Mozilla/5.0 (Macintosh; Intel Mac OS X 10_15_5) AppleWebKit/537.36 (KHTML, like Gecko) Chrome/99.0.4844.74 Safari/537.36",1280,800,1280,651,"main",2445171,18,6,26,23,"HE","Extreme","Harder than Reference","D","k","riskyDeck","safeDeck",0,28,14,"left",1,0,32,"absent","riskyDeck",1919,3895,-1,0
"hy8mfnecik7_pilot",1447.38461538462,616.10446465203,"test","22/03/2022@13:57:31","Mozilla/5.0 (Macintosh; Intel Mac OS X 10_15_5) AppleWebKit/537.36 (KHTML, like Gecko) Chrome/99.0.4844.74 Safari/537.36",1280,800,1280,651,"main",2445171,18,7,26,23,"HE","Extreme","Harder than Reference","D","j","riskyDeck","safeDeck",0,28,14,"left",1,0,32,"present","riskyDeck",1919,1088,-1,0
"hy8mfnecik7_pilot",1447.38461538462,616.10446465203,"test","22/03/2022@13:57:31","Mozilla/5.0 (Macintosh; Intel Mac OS X 10_15_5) AppleWebKit/537.36 (KHTML, like Gecko) Chrome/99.0.4844.74 Safari/537.36",1280,800,1280,651,"main",2445171,18,8,26,23,"HE","Extreme","Harder than Reference","D","k","riskyDeck","safeDeck",0,28,14,"left",1,0,32,"absent","riskyDeck",1919,3415,-1,0
"hy8mfnecik7_pilot",1447.38461538462,616.10446465203,"test","22/03/2022@13:57:31","Mozilla/5.0 (Macintosh; Intel Mac OS X 10_15_5) AppleWebKit/537.36 (KHTML, like Gecko) Chrome/99.0.4844.74 Safari/537.36",1280,800,1280,651,"main",2445171,18,9,26,23,"HE","Extreme","Harder than Reference","D","k","riskyDeck","safeDeck",0,28,14,"left",1,0,32,"absent","riskyDeck",1919,1616,-1,0
"hy8mfnecik7_pilot",1447.38461538462,616.10446465203,"test","22/03/2022@13:57:31","Mozilla/5.0 (Macintosh; Intel Mac OS X 10_15_5) AppleWebKit/537.36 (KHTML, like Gecko) Chrome/99.0.4844.74 Safari/537.36",1280,800,1280,651,"main",2445171,18,10,26,24,"HE","Extreme","Harder than Reference","D","k","riskyDeck","safeDeck",0,28,14,"left",1,0,32,"absent","riskyDeck",1919,3319,-1,0
"hy8mfnecik7_pilot",1447.38461538462,616.10446465203,"test","22/03/2022@13:57:31","Mozilla/5.0 (Macintosh; Intel Mac OS X 10_15_5) AppleWebKit/537.36 (KHTML, like Gecko) Chrome/99.0.4844.74 Safari/537.36",1280,800,1280,651,"main",2445171,18,11,26,24,"HE","Extreme","Harder than Reference","D","j","riskyDeck","safeDeck",0,28,14,"left",1,0,32,"present","riskyDeck",1919,924,-1,0
"hy8mfnecik7_pilot",1447.38461538462,616.10446465203,"test","22/03/2022@13:57:31","Mozilla/5.0 (Macintosh; Intel Mac OS X 10_15_5) AppleWebKit/537.36 (KHTML, like Gecko) Chrome/99.0.4844.74 Safari/537.36",1280,800,1280,651,"main",2445171,18,12,26,24,"HE","Extreme","Harder than Reference","D","j","riskyDeck","safeDeck",0,28,14,"left",1,0,32,"present","riskyDeck",1919,1280,-1,0
"hy8mfnecik7_pilot",1447.38461538462,616.10446465203,"test","22/03/2022@13:57:31","Mozilla/5.0 (Macintosh; Intel Mac OS X 10_15_5) AppleWebKit/537.36 (KHTML, like Gecko) Chrome/99.0.4844.74 Safari/537.36",1280,800,1280,651,"main",2445171,18,13,26,24,"HE","Extreme","Harder than Reference","D","j","riskyDeck","safeDeck",0,28,14,"left",1,0,32,"present","riskyDeck",1919,1249,-1,0
"hy8mfnecik7_pilot",1447.38461538462,616.10446465203,"test","22/03/2022@13:57:31","Mozilla/5.0 (Macintosh; Intel Mac OS X 10_15_5) AppleWebKit/537.36 (KHTML, like Gecko) Chrome/99.0.4844.74 Safari/537.36",1280,800,1280,651,"main",2445171,18,14,26,24,"HE","Extreme","Harder than Reference","D","j","riskyDeck","safeDeck",0,28,14,"left",1,0,32,"present","riskyDeck",1919,1223,-1,0
"hy8mfnecik7_pilot",1447.38461538462,616.10446465203,"test","22/03/2022@13:57:31","Mozilla/5.0 (Macintosh; Intel Mac OS X 10_15_5) AppleWebKit/537.36 (KHTML, like Gecko) Chrome/99.0.4844.74 Safari/537.36",1280,800,1280,651,"main",2445171,18,15,27,24,"HE","Extreme","Harder than Reference","D","k","riskyDeck","safeDeck",0,28,14,"left",1,0,32,"absent","riskyDeck",1919,3924,-1,0
"hy8mfnecik7_pilot",1447.38461538462,616.10446465203,"test","22/03/2022@13:57:31","Mozilla/5.0 (Macintosh; Intel Mac OS X 10_15_5) AppleWebKit/537.36 (KHTML, like Gecko) Chrome/99.0.4844.74 Safari/537.36",1280,800,1280,651,"main",2445171,18,16,27,24,"HE","Extreme","Harder than Reference","D","j","riskyDeck","safeDeck",0,28,14,"left",1,0,32,"present","riskyDeck",1919,1019,-1,0
"hy8mfnecik7_pilot",1447.38461538462,616.10446465203,"test","22/03/2022@13:57:31","Mozilla/5.0 (Macintosh; Intel Mac OS X 10_15_5) AppleWebKit/537.36 (KHTML, like Gecko) Chrome/99.0.4844.74 Safari/537.36",1280,800,1280,651,"main",2445171,18,17,27,24,"HE","Extreme","Harder than Reference","D","k","riskyDeck","safeDeck",0,28,14,"left",1,0,32,"absent","riskyDeck",1919,3573,-1,0
"hy8mfnecik7_pilot",1447.38461538462,616.10446465203,"test","22/03/2022@13:57:31","Mozilla/5.0 (Macintosh; Intel Mac OS X 10_15_5) AppleWebKit/537.36 (KHTML, like Gecko) Chrome/99.0.4844.74 Safari/537.36",1280,800,1280,651,"main",2445171,19,1,27,24,"HM","Moderate","Harder than Reference","F","k","riskyDeck","safeDeck",14,0,7,"right",0,0,39,"absent","safeDeck",1582,2959,1,1
"hy8mfnecik7_pilot",1447.38461538462,616.10446465203,"test","22/03/2022@13:57:31","Mozilla/5.0 (Macintosh; Intel Mac OS X 10_15_5) AppleWebKit/537.36 (KHTML, like Gecko) Chrome/99.0.4844.74 Safari/537.36",1280,800,1280,651,"main",2445171,19,2,27,24,"HM","Moderate","Harder than Reference","F","k","riskyDeck","safeDeck",14,0,7,"right",0,0,39,"absent","safeDeck",1582,2086,1,1
"hy8mfnecik7_pilot",1447.38461538462,616.10446465203,"test","22/03/2022@13:57:31","Mozilla/5.0 (Macintosh; Intel Mac OS X 10_15_5) AppleWebKit/537.36 (KHTML, like Gecko) Chrome/99.0.4844.74 Safari/537.36",1280,800,1280,651,"main",2445171,19,3,27,24,"HM","Moderate","Harder than Reference","F","j","riskyDeck","safeDeck",14,0,7,"right",0,0,39,"present","safeDeck",1582,959,1,1
"hy8mfnecik7_pilot",1447.38461538462,616.10446465203,"test","22/03/2022@13:57:31","Mozilla/5.0 (Macintosh; Intel Mac OS X 10_15_5) AppleWebKit/537.36 (KHTML, like Gecko) Chrome/99.0.4844.74 Safari/537.36",1280,800,1280,651,"main",2445171,19,4,27,24,"HM","Moderate","Harder than Reference","F","j","riskyDeck","safeDeck",14,0,7,"right",0,0,39,"present","safeDeck",1582,3248,1,1
"hy8mfnecik7_pilot",1447.38461538462,616.10446465203,"test","22/03/2022@13:57:31","Mozilla/5.0 (Macintosh; Intel Mac OS X 10_15_5) AppleWebKit/537.36 (KHTML, like Gecko) Chrome/99.0.4844.74 Safari/537.36",1280,800,1280,651,"main",2445171,19,5,27,24,"HM","Moderate","Harder than Reference","F","j","riskyDeck","safeDeck",14,0,7,"right",0,0,39,"present","safeDeck",1582,1118,1,1
"hy8mfnecik7_pilot",1447.38461538462,616.10446465203,"test","22/03/2022@13:57:31","Mozilla/5.0 (Macintosh; Intel Mac OS X 10_15_5) AppleWebKit/537.36 (KHTML, like Gecko) Chrome/99.0.4844.74 Safari/537.36",1280,800,1280,651,"main",2445171,19,6,27,24,"HM","Moderate","Harder than Reference","F","k","riskyDeck","safeDeck",14,0,7,"right",0,0,39,"absent","safeDeck",1582,2542,1,1
"hy8mfnecik7_pilot",1447.38461538462,616.10446465203,"test","22/03/2022@13:57:31","Mozilla/5.0 (Macintosh; Intel Mac OS X 10_15_5) AppleWebKit/537.36 (KHTML, like Gecko) Chrome/99.0.4844.74 Safari/537.36",1280,800,1280,651,"main",2445171,19,7,27,24,"HM","Moderate","Harder than Reference","F","j","riskyDeck","safeDeck",14,0,7,"right",0,0,39,"present","safeDeck",1582,1703,1,1
"hy8mfnecik7_pilot",1447.38461538462,616.10446465203,"test","22/03/2022@13:57:31","Mozilla/5.0 (Macintosh; Intel Mac OS X 10_15_5) AppleWebKit/537.36 (KHTML, like Gecko) Chrome/99.0.4844.74 Safari/537.36",1280,800,1280,651,"main",2445171,19,8,27,24,"HM","Moderate","Harder than Reference","F","j","riskyDeck","safeDeck",14,0,7,"right",0,0,39,"present","safeDeck",1582,833,1,1
