subject,sona_id,curTime,userAgent,screenWidth,screenHeight,windowWidth,windowHeight,phase,phase_run_time,choice_trial,search_trial,exp_runtime_mins,phase_runtime_mins,condition,magnitude,direction,choice_response_key,search_response_key,left_deck_id,right_deck_id,risky_deck_outcome_top,risky_deck_outcome_bottom,safe_deck_outcome,selected_deck_location,selectedRiskyDeck,error,n_stimuli,present_or_absent,chosenDeckId,choice_rt,search_rt
u6792nlm4u8,13431,28/03/2022@09:59:30,"Mozilla/5.0 (Macintosh; Intel Mac OS X 10_15_7) AppleWebKit/537.36 (KHTML, like Gecko) Chrome/98.0.4758.102 Safari/537.36",1440,900,1440,738,main,1703328,1,1,2,1,EE,Extreme,Easier than Reference,D,j,riskyDeck,safeDeck,0,-14,-7,left,1,1,18,absent,riskyDeck,16456,1227
u6792nlm4u8,13431,28/03/2022@09:59:30,"Mozilla/5.0 (Macintosh; Intel Mac OS X 10_15_7) AppleWebKit/537.36 (KHTML, like Gecko) Chrome/98.0.4758.102 Safari/537.36",1440,900,1440,738,main,1703328,1,2,2,1,EE,Extreme,Easier than Reference,D,j,riskyDeck,safeDeck,0,-14,-7,left,1,0,18,present,riskyDeck,16456,1020
u6792nlm4u8,13431,28/03/2022@09:59:30,"Mozilla/5.0 (Macintosh; Intel Mac OS X 10_15_7) AppleWebKit/537.36 (KHTML, like Gecko) Chrome/98.0.4758.102 Safari/537.36",1440,900,1440,738,main,1703328,1,3,2,1,EE,Extreme,Easier than Reference,D,k,riskyDeck,safeDeck,0,-14,-7,left,1,0,18,absent,riskyDeck,16456,501
u6792nlm4u8,13431,28/03/2022@09:59:30,"Mozilla/5.0 (Macintosh; Intel Mac OS X 10_15_7) AppleWebKit/537.36 (KHTML, like Gecko) Chrome/98.0.4758.102 Safari/537.36",1440,900,1440,738,main,1703328,1,4,2,1,EE,Extreme,Easier than Reference,D,j,riskyDeck,safeDeck,0,-14,-7,left,1,0,18,present,riskyDeck,16456,704
u6792nlm4u8,13431,28/03/2022@09:59:30,"Mozilla/5.0 (Macintosh; Intel Mac OS X 10_15_7) AppleWebKit/537.36 (KHTML, like Gecko) Chrome/98.0.4758.102 Safari/537.36",1440,900,1440,738,main,1703328,1,5,2,1,EE,Extreme,Easier than Reference,D,j,riskyDeck,safeDeck,0,-14,-7,left,1,0,18,present,riskyDeck,16456,532
u6792nlm4u8,13431,28/03/2022@09:59:30,"Mozilla/5.0 (Macintosh; Intel Mac OS X 10_15_7) AppleWebKit/537.36 (KHTML, like Gecko) Chrome/98.0.4758.102 Safari/537.36",1440,900,1440,738,main,1703328,1,6,2,1,EE,Extreme,Easier than Reference,D,k,riskyDeck,safeDeck,0,-14,-7,left,1,1,18,present,riskyDeck,16456,780
u6792nlm4u8,13431,28/03/2022@09:59:30,"Mozilla/5.0 (Macintosh; Intel Mac OS X 10_15_7) AppleWebKit/537.36 (KHTML, like Gecko) Chrome/98.0.4758.102 Safari/537.36",1440,900,1440,738,main,1703328,1,7,2,1,EE,Extreme,Easier than Reference,D,j,riskyDeck,safeDeck,0,-14,-7,left,1,1,18,absent,riskyDeck,16456,777
u6792nlm4u8,13431,28/03/2022@09:59:30,"Mozilla/5.0 (Macintosh; Intel Mac OS X 10_15_7) AppleWebKit/537.36 (KHTML, like Gecko) Chrome/98.0.4758.102 Safari/537.36",1440,900,1440,738,main,1703328,1,8,2,1,EE,Extreme,Easier than Reference,D,j,riskyDeck,safeDeck,0,-14,-7,left,1,0,18,present,riskyDeck,16456,78
u6792nlm4u8,13431,28/03/2022@09:59:30,"Mozilla/5.0 (Macintosh; Intel Mac OS X 10_15_7) AppleWebKit/537.36 (KHTML, like Gecko) Chrome/98.0.4758.102 Safari/537.36",1440,900,1440,738,main,1703328,1,9,2,1,EE,Extreme,Easier than Reference,D,j,riskyDeck,safeDeck,0,-14,-7,left,1,0,18,present,riskyDeck,16456,84
u6792nlm4u8,13431,28/03/2022@09:59:30,"Mozilla/5.0 (Macintosh; Intel Mac OS X 10_15_7) AppleWebKit/537.36 (KHTML, like Gecko) Chrome/98.0.4758.102 Safari/537.36",1440,900,1440,738,main,1703328,1,10,2,1,EE,Extreme,Easier than Reference,D,j,riskyDeck,safeDeck,0,-14,-7,left,1,0,18,present,riskyDeck,16456,43
u6792nlm4u8,13431,28/03/2022@09:59:30,"Mozilla/5.0 (Macintosh; Intel Mac OS X 10_15_7) AppleWebKit/537.36 (KHTML, like Gecko) Chrome/98.0.4758.102 Safari/537.36",1440,900,1440,738,main,1703328,1,11,2,1,EE,Extreme,Easier than Reference,D,j,riskyDeck,safeDeck,0,-14,-7,left,1,0,18,present,riskyDeck,16456,66
u6792nlm4u8,13431,28/03/2022@09:59:30,"Mozilla/5.0 (Macintosh; Intel Mac OS X 10_15_7) AppleWebKit/537.36 (KHTML, like Gecko) Chrome/98.0.4758.102 Safari/537.36",1440,900,1440,738,main,1703328,1,12,2,1,EE,Extreme,Easier than Reference,D,j,riskyDeck,safeDeck,0,-14,-7,left,1,1,18,absent,riskyDeck,16456,293
u6792nlm4u8,13431,28/03/2022@09:59:30,"Mozilla/5.0 (Macintosh; Intel Mac OS X 10_15_7) AppleWebKit/537.36 (KHTML, like Gecko) Chrome/98.0.4758.102 Safari/537.36",1440,900,1440,738,main,1703328,1,13,2,1,EE,Extreme,Easier than Reference,D,k,riskyDeck,safeDeck,0,-14,-7,left,1,1,18,present,riskyDeck,16456,58
u6792nlm4u8,13431,28/03/2022@09:59:30,"Mozilla/5.0 (Macintosh; Intel Mac OS X 10_15_7) AppleWebKit/537.36 (KHTML, like Gecko) Chrome/98.0.4758.102 Safari/537.36",1440,900,1440,738,main,1703328,1,14,2,2,EE,Extreme,Easier than Reference,D,j,riskyDeck,safeDeck,0,-14,-7,left,1,1,18,absent,riskyDeck,16456,149
u6792nlm4u8,13431,28/03/2022@09:59:30,"Mozilla/5.0 (Macintosh; Intel Mac OS X 10_15_7) AppleWebKit/537.36 (KHTML, like Gecko) Chrome/98.0.4758.102 Safari/537.36",1440,900,1440,738,main,1703328,1,15,2,2,EE,Extreme,Easier than Reference,D,k,riskyDeck,safeDeck,0,-14,-7,left,1,0,18,absent,riskyDeck,16456,518
u6792nlm4u8,13431,28/03/2022@09:59:30,"Mozilla/5.0 (Macintosh; Intel Mac OS X 10_15_7) AppleWebKit/537.36 (KHTML, like Gecko) Chrome/98.0.4758.102 Safari/537.36",1440,900,1440,738,main,1703328,1,16,3,2,EE,Extreme,Easier than Reference,D,j,riskyDeck,safeDeck,0,-14,-7,left,1,1,18,absent,riskyDeck,16456,515
u6792nlm4u8,13431,28/03/2022@09:59:30,"Mozilla/5.0 (Macintosh; Intel Mac OS X 10_15_7) AppleWebKit/537.36 (KHTML, like Gecko) Chrome/98.0.4758.102 Safari/537.36",1440,900,1440,738,main,1703328,1,17,3,2,EE,Extreme,Easier than Reference,D,k,riskyDeck,safeDeck,0,-14,-7,left,1,1,18,present,riskyDeck,16456,96
u6792nlm4u8,13431,28/03/2022@09:59:30,"Mozilla/5.0 (Macintosh; Intel Mac OS X 10_15_7) AppleWebKit/537.36 (KHTML, like Gecko) Chrome/98.0.4758.102 Safari/537.36",1440,900,1440,738,main,1703328,2,1,3,2,HE,Extreme,Harder than Reference,D,j,safeDeck,riskyDeck,28,0,14,left,0,0,46,present,safeDeck,8534,1996
u6792nlm4u8,13431,28/03/2022@09:59:30,"Mozilla/5.0 (Macintosh; Intel Mac OS X 10_15_7) AppleWebKit/537.36 (KHTML, like Gecko) Chrome/98.0.4758.102 Safari/537.36",1440,900,1440,738,main,1703328,2,2,3,2,HE,Extreme,Harder than Reference,D,j,safeDeck,riskyDeck,28,0,14,left,0,1,46,absent,safeDeck,8534,2298
u6792nlm4u8,13431,28/03/2022@09:59:30,"Mozilla/5.0 (Macintosh; Intel Mac OS X 10_15_7) AppleWebKit/537.36 (KHTML, like Gecko) Chrome/98.0.4758.102 Safari/537.36",1440,900,1440,738,main,1703328,2,3,3,2,HE,Extreme,Harder than Reference,D,k,safeDeck,riskyDeck,28,0,14,left,0,1,46,present,safeDeck,8534,1558
u6792nlm4u8,13431,28/03/2022@09:59:30,"Mozilla/5.0 (Macintosh; Intel Mac OS X 10_15_7) AppleWebKit/537.36 (KHTML, like Gecko) Chrome/98.0.4758.102 Safari/537.36",1440,900,1440,738,main,1703328,2,4,3,2,HE,Extreme,Harder than Reference,D,j,safeDeck,riskyDeck,28,0,14,left,0,1,46,absent,safeDeck,8534,211
u6792nlm4u8,13431,28/03/2022@09:59:30,"Mozilla/5.0 (Macintosh; Intel Mac OS X 10_15_7) AppleWebKit/537.36 (KHTML, like Gecko) Chrome/98.0.4758.102 Safari/537.36",1440,900,1440,738,main,1703328,2,5,3,2,HE,Extreme,Harder than Reference,D,j,safeDeck,riskyDeck,28,0,14,left,0,1,46,absent,safeDeck,8534,217
u6792nlm4u8,13431,28/03/2022@09:59:30,"Mozilla/5.0 (Macintosh; Intel Mac OS X 10_15_7) AppleWebKit/537.36 (KHTML, like Gecko) Chrome/98.0.4758.102 Safari/537.36",1440,900,1440,738,main,1703328,2,6,3,2,HE,Extreme,Harder than Reference,D,j,safeDeck,riskyDeck,28,0,14,left,0,1,46,absent,safeDeck,8534,210
u6792nlm4u8,13431,28/03/2022@09:59:30,"Mozilla/5.0 (Macintosh; Intel Mac OS X 10_15_7) AppleWebKit/537.36 (KHTML, like Gecko) Chrome/98.0.4758.102 Safari/537.36",1440,900,1440,738,main,1703328,2,7,3,2,HE,Extreme,Harder than Reference,D,j,safeDeck,riskyDeck,28,0,14,left,0,0,46,present,safeDeck,8534,279
u6792nlm4u8,13431,28/03/2022@09:59:30,"Mozilla/5.0 (Macintosh; Intel Mac OS X 10_15_7) AppleWebKit/537.36 (KHTML, like Gecko) Chrome/98.0.4758.102 Safari/537.36",1440,900,1440,738,main,1703328,2,8,3,2,HE,Extreme,Harder than Reference,D,j,safeDeck,riskyDeck,28,0,14,left,0,1,46,absent,safeDeck,8534,18
u6792nlm4u8,13431,28/03/2022@09:59:30,"Mozilla/5.0 (Macintosh; Intel Mac OS X 10_15_7) AppleWebKit/537.36 (KHTML, like Gecko) Chrome/98.0.4758.102 Safari/537.36",1440,900,1440,738,main,1703328,2,9,3,2,HE,Extreme,Harder than Reference,D,j,safeDeck,riskyDeck,28,0,14,left,0,0,46,present,safeDeck,8534,28
u6792nlm4u8,13431,28/03/2022@09:59:30,"Mozilla/5.0 (Macintosh; Intel Mac OS X 10_15_7) AppleWebKit/537.36 (KHTML, like Gecko) Chrome/98.0.4758.102 Safari/537.36",1440,900,1440,738,main,1703328,2,10,3,2,HE,Extreme,Harder than Reference,D,j,safeDeck,riskyDeck,28,0,14,left,0,1,46,absent,safeDeck,8534,426
u6792nlm4u8,13431,28/03/2022@09:59:30,"Mozilla/5.0 (Macintosh; Intel Mac OS X 10_15_7) AppleWebKit/537.36 (KHTML, like Gecko) Chrome/98.0.4758.102 Safari/537.36",1440,900,1440,738,main,1703328,2,11,3,2,HE,Extreme,Harder than Reference,D,j,safeDeck,riskyDeck,28,0,14,left,0,1,46,absent,safeDeck,8534,88
u6792nlm4u8,13431,28/03/2022@09:59:30,"Mozilla/5.0 (Macintosh; Intel Mac OS X 10_15_7) AppleWebKit/537.36 (KHTML, like Gecko) Chrome/98.0.4758.102 Safari/537.36",1440,900,1440,738,main,1703328,2,12,3,2,HE,Extreme,Harder than Reference,D,j,safeDeck,riskyDeck,28,0,14,left,0,0,46,present,safeDeck,8534,66
u6792nlm4u8,13431,28/03/2022@09:59:30,"Mozilla/5.0 (Macintosh; Intel Mac OS X 10_15_7) AppleWebKit/537.36 (KHTML, like Gecko) Chrome/98.0.4758.102 Safari/537.36",1440,900,1440,738,main,1703328,2,13,3,2,HE,Extreme,Harder than Reference,D,k,safeDeck,riskyDeck,28,0,14,left,0,1,46,present,safeDeck,8534,231
u6792nlm4u8,13431,28/03/2022@09:59:30,"Mozilla/5.0 (Macintosh; Intel Mac OS X 10_15_7) AppleWebKit/537.36 (KHTML, like Gecko) Chrome/98.0.4758.102 Safari/537.36",1440,900,1440,738,main,1703328,2,14,3,2,HE,Extreme,Harder than Reference,D,k,safeDeck,riskyDeck,28,0,14,left,0,1,46,present,safeDeck,8534,68
u6792nlm4u8,13431,28/03/2022@09:59:30,"Mozilla/5.0 (Macintosh; Intel Mac OS X 10_15_7) AppleWebKit/537.36 (KHTML, like Gecko) Chrome/98.0.4758.102 Safari/537.36",1440,900,1440,738,main,1703328,2,15,3,2,HE,Extreme,Harder than Reference,D,j,safeDeck,riskyDeck,28,0,14,left,0,1,46,absent,safeDeck,8534,53
u6792nlm4u8,13431,28/03/2022@09:59:30,"Mozilla/5.0 (Macintosh; Intel Mac OS X 10_15_7) AppleWebKit/537.36 (KHTML, like Gecko) Chrome/98.0.4758.102 Safari/537.36",1440,900,1440,738,main,1703328,2,16,3,2,HE,Extreme,Harder than Reference,D,k,safeDeck,riskyDeck,28,0,14,left,0,1,46,present,safeDeck,8534,30
u6792nlm4u8,13431,28/03/2022@09:59:30,"Mozilla/5.0 (Macintosh; Intel Mac OS X 10_15_7) AppleWebKit/537.36 (KHTML, like Gecko) Chrome/98.0.4758.102 Safari/537.36",1440,900,1440,738,main,1703328,2,17,3,2,HE,Extreme,Harder than Reference,D,j,safeDeck,riskyDeck,28,0,14,left,0,1,46,absent,safeDeck,8534,411
u6792nlm4u8,13431,28/03/2022@09:59:30,"Mozilla/5.0 (Macintosh; Intel Mac OS X 10_15_7) AppleWebKit/537.36 (KHTML, like Gecko) Chrome/98.0.4758.102 Safari/537.36",1440,900,1440,738,main,1703328,3,1,3,3,HM,Moderate,Harder than Reference,D,j,safeDeck,riskyDeck,14,0,7,left,0,1,39,absent,safeDeck,2725,1136
u6792nlm4u8,13431,28/03/2022@09:59:30,"Mozilla/5.0 (Macintosh; Intel Mac OS X 10_15_7) AppleWebKit/537.36 (KHTML, like Gecko) Chrome/98.0.4758.102 Safari/537.36",1440,900,1440,738,main,1703328,3,2,4,3,HM,Moderate,Harder than Reference,D,k,safeDeck,riskyDeck,14,0,7,left,0,0,39,absent,safeDeck,2725,424
u6792nlm4u8,13431,28/03/2022@09:59:30,"Mozilla/5.0 (Macintosh; Intel Mac OS X 10_15_7) AppleWebKit/537.36 (KHTML, like Gecko) Chrome/98.0.4758.102 Safari/537.36",1440,900,1440,738,main,1703328,3,3,4,3,HM,Moderate,Harder than Reference,D,j,safeDeck,riskyDeck,14,0,7,left,0,1,39,absent,safeDeck,2725,652
u6792nlm4u8,13431,28/03/2022@09:59:30,"Mozilla/5.0 (Macintosh; Intel Mac OS X 10_15_7) AppleWebKit/537.36 (KHTML, like Gecko) Chrome/98.0.4758.102 Safari/537.36",1440,900,1440,738,main,1703328,3,4,4,3,HM,Moderate,Harder than Reference,D,k,safeDeck,riskyDeck,14,0,7,left,0,0,39,absent,safeDeck,2725,552
u6792nlm4u8,13431,28/03/2022@09:59:30,"Mozilla/5.0 (Macintosh; Intel Mac OS X 10_15_7) AppleWebKit/537.36 (KHTML, like Gecko) Chrome/98.0.4758.102 Safari/537.36",1440,900,1440,738,main,1703328,3,5,4,3,HM,Moderate,Harder than Reference,D,k,safeDeck,riskyDeck,14,0,7,left,0,1,39,present,safeDeck,2725,1538
u6792nlm4u8,13431,28/03/2022@09:59:30,"Mozilla/5.0 (Macintosh; Intel Mac OS X 10_15_7) AppleWebKit/537.36 (KHTML, like Gecko) Chrome/98.0.4758.102 Safari/537.36",1440,900,1440,738,main,1703328,3,6,4,3,HM,Moderate,Harder than Reference,D,j,safeDeck,riskyDeck,14,0,7,left,0,0,39,present,safeDeck,2725,396
u6792nlm4u8,13431,28/03/2022@09:59:30,"Mozilla/5.0 (Macintosh; Intel Mac OS X 10_15_7) AppleWebKit/537.36 (KHTML, like Gecko) Chrome/98.0.4758.102 Safari/537.36",1440,900,1440,738,main,1703328,3,7,4,3,HM,Moderate,Harder than Reference,D,j,safeDeck,riskyDeck,14,0,7,left,0,1,39,absent,safeDeck,2725,499
u6792nlm4u8,13431,28/03/2022@09:59:30,"Mozilla/5.0 (Macintosh; Intel Mac OS X 10_15_7) AppleWebKit/537.36 (KHTML, like Gecko) Chrome/98.0.4758.102 Safari/537.36",1440,900,1440,738,main,1703328,3,8,4,3,HM,Moderate,Harder than Reference,D,k,safeDeck,riskyDeck,14,0,7,left,0,0,39,absent,safeDeck,2725,444
u6792nlm4u8,13431,28/03/2022@09:59:30,"Mozilla/5.0 (Macintosh; Intel Mac OS X 10_15_7) AppleWebKit/537.36 (KHTML, like Gecko) Chrome/98.0.4758.102 Safari/537.36",1440,900,1440,738,main,1703328,3,9,4,3,HM,Moderate,Harder than Reference,D,k,safeDeck,riskyDeck,14,0,7,left,0,0,39,absent,safeDeck,2725,611
u6792nlm4u8,13431,28/03/2022@09:59:30,"Mozilla/5.0 (Macintosh; Intel Mac OS X 10_15_7) AppleWebKit/537.36 (KHTML, like Gecko) Chrome/98.0.4758.102 Safari/537.36",1440,900,1440,738,main,1703328,3,10,4,3,HM,Moderate,Harder than Reference,D,k,safeDeck,riskyDeck,14,0,7,left,0,0,39,absent,safeDeck,2725,575
u6792nlm4u8,13431,28/03/2022@09:59:30,"Mozilla/5.0 (Macintosh; Intel Mac OS X 10_15_7) AppleWebKit/537.36 (KHTML, like Gecko) Chrome/98.0.4758.102 Safari/537.36",1440,900,1440,738,main,1703328,3,11,4,3,HM,Moderate,Harder than Reference,D,j,safeDeck,riskyDeck,14,0,7,left,0,1,39,absent,safeDeck,2725,673
u6792nlm4u8,13431,28/03/2022@09:59:30,"Mozilla/5.0 (Macintosh; Intel Mac OS X 10_15_7) AppleWebKit/537.36 (KHTML, like Gecko) Chrome/98.0.4758.102 Safari/537.36",1440,900,1440,738,main,1703328,3,12,4,3,HM,Moderate,Harder than Reference,D,j,safeDeck,riskyDeck,14,0,7,left,0,1,39,absent,safeDeck,2725,684
u6792nlm4u8,13431,28/03/2022@09:59:30,"Mozilla/5.0 (Macintosh; Intel Mac OS X 10_15_7) AppleWebKit/537.36 (KHTML, like Gecko) Chrome/98.0.4758.102 Safari/537.36",1440,900,1440,738,main,1703328,3,13,4,3,HM,Moderate,Harder than Reference,D,k,safeDeck,riskyDeck,14,0,7,left,0,1,39,present,safeDeck,2725,570
u6792nlm4u8,13431,28/03/2022@09:59:30,"Mozilla/5.0 (Macintosh; Intel Mac OS X 10_15_7) AppleWebKit/537.36 (KHTML, like Gecko) Chrome/98.0.4758.102 Safari/537.36",1440,900,1440,738,main,1703328,3,14,4,3,HM,Moderate,Harder than Reference,D,j,safeDeck,riskyDeck,14,0,7,left,0,0,39,present,safeDeck,2725,537
u6792nlm4u8,13431,28/03/2022@09:59:30,"Mozilla/5.0 (Macintosh; Intel Mac OS X 10_15_7) AppleWebKit/537.36 (KHTML, like Gecko) Chrome/98.0.4758.102 Safari/537.36",1440,900,1440,738,main,1703328,3,15,4,3,HM,Moderate,Harder than Reference,D,j,safeDeck,riskyDeck,14,0,7,left,0,0,39,present,safeDeck,2725,698
u6792nlm4u8,13431,28/03/2022@09:59:30,"Mozilla/5.0 (Macintosh; Intel Mac OS X 10_15_7) AppleWebKit/537.36 (KHTML, like Gecko) Chrome/98.0.4758.102 Safari/537.36",1440,900,1440,738,main,1703328,3,16,4,3,HM,Moderate,Harder than Reference,D,j,safeDeck,riskyDeck,14,0,7,left,0,0,39,present,safeDeck,2725,469
u6792nlm4u8,13431,28/03/2022@09:59:30,"Mozilla/5.0 (Macintosh; Intel Mac OS X 10_15_7) AppleWebKit/537.36 (KHTML, like Gecko) Chrome/98.0.4758.102 Safari/537.36",1440,900,1440,738,main,1703328,3,17,4,3,HM,Moderate,Harder than Reference,D,j,safeDeck,riskyDeck,14,0,7,left,0,0,39,present,safeDeck,2725,374
u6792nlm4u8,13431,28/03/2022@09:59:30,"Mozilla/5.0 (Macintosh; Intel Mac OS X 10_15_7) AppleWebKit/537.36 (KHTML, like Gecko) Chrome/98.0.4758.102 Safari/537.36",1440,900,1440,738,main,1703328,4,1,4,3,EM,Moderate,Easier than Reference,D,k,safeDeck,riskyDeck,0,-28,-14,left,0,1,18,present,safeDeck,1250,485
u6792nlm4u8,13431,28/03/2022@09:59:30,"Mozilla/5.0 (Macintosh; Intel Mac OS X 10_15_7) AppleWebKit/537.36 (KHTML, like Gecko) Chrome/98.0.4758.102 Safari/537.36",1440,900,1440,738,main,1703328,4,2,4,3,EM,Moderate,Easier than Reference,D,k,safeDeck,riskyDeck,0,-28,-14,left,0,0,18,absent,safeDeck,1250,266
u6792nlm4u8,13431,28/03/2022@09:59:30,"Mozilla/5.0 (Macintosh; Intel Mac OS X 10_15_7) AppleWebKit/537.36 (KHTML, like Gecko) Chrome/98.0.4758.102 Safari/537.36",1440,900,1440,738,main,1703328,4,3,4,3,EM,Moderate,Easier than Reference,D,j,safeDeck,riskyDeck,0,-28,-14,left,0,1,18,absent,safeDeck,1250,245
u6792nlm4u8,13431,28/03/2022@09:59:30,"Mozilla/5.0 (Macintosh; Intel Mac OS X 10_15_7) AppleWebKit/537.36 (KHTML, like Gecko) Chrome/98.0.4758.102 Safari/537.36",1440,900,1440,738,main,1703328,4,4,4,3,EM,Moderate,Easier than Reference,D,j,safeDeck,riskyDeck,0,-28,-14,left,0,1,18,absent,safeDeck,1250,65
u6792nlm4u8,13431,28/03/2022@09:59:30,"Mozilla/5.0 (Macintosh; Intel Mac OS X 10_15_7) AppleWebKit/537.36 (KHTML, like Gecko) Chrome/98.0.4758.102 Safari/537.36",1440,900,1440,738,main,1703328,4,5,4,3,EM,Moderate,Easier than Reference,D,k,safeDeck,riskyDeck,0,-28,-14,left,0,1,18,present,safeDeck,1250,157
u6792nlm4u8,13431,28/03/2022@09:59:30,"Mozilla/5.0 (Macintosh; Intel Mac OS X 10_15_7) AppleWebKit/537.36 (KHTML, like Gecko) Chrome/98.0.4758.102 Safari/537.36",1440,900,1440,738,main,1703328,4,6,4,3,EM,Moderate,Easier than Reference,D,k,safeDeck,riskyDeck,0,-28,-14,left,0,1,18,present,safeDeck,1250,105
u6792nlm4u8,13431,28/03/2022@09:59:30,"Mozilla/5.0 (Macintosh; Intel Mac OS X 10_15_7) AppleWebKit/537.36 (KHTML, like Gecko) Chrome/98.0.4758.102 Safari/537.36",1440,900,1440,738,main,1703328,4,7,4,3,EM,Moderate,Easier than Reference,D,k,safeDeck,riskyDeck,0,-28,-14,left,0,1,18,present,safeDeck,1250,167
u6792nlm4u8,13431,28/03/2022@09:59:30,"Mozilla/5.0 (Macintosh; Intel Mac OS X 10_15_7) AppleWebKit/537.36 (KHTML, like Gecko) Chrome/98.0.4758.102 Safari/537.36",1440,900,1440,738,main,1703328,4,8,4,3,EM,Moderate,Easier than Reference,D,k,safeDeck,riskyDeck,0,-28,-14,left,0,1,18,present,safeDeck,1250,71
u6792nlm4u8,13431,28/03/2022@09:59:30,"Mozilla/5.0 (Macintosh; Intel Mac OS X 10_15_7) AppleWebKit/537.36 (KHTML, like Gecko) Chrome/98.0.4758.102 Safari/537.36",1440,900,1440,738,main,1703328,4,9,4,3,EM,Moderate,Easier than Reference,D,j,safeDeck,riskyDeck,0,-28,-14,left,0,0,18,present,safeDeck,1250,456
u6792nlm4u8,13431,28/03/2022@09:59:30,"Mozilla/5.0 (Macintosh; Intel Mac OS X 10_15_7) AppleWebKit/537.36 (KHTML, like Gecko) Chrome/98.0.4758.102 Safari/537.36",1440,900,1440,738,main,1703328,4,10,4,3,EM,Moderate,Easier than Reference,D,j,safeDeck,riskyDeck,0,-28,-14,left,0,1,18,absent,safeDeck,1250,658
u6792nlm4u8,13431,28/03/2022@09:59:30,"Mozilla/5.0 (Macintosh; Intel Mac OS X 10_15_7) AppleWebKit/537.36 (KHTML, like Gecko) Chrome/98.0.4758.102 Safari/537.36",1440,900,1440,738,main,1703328,4,11,4,3,EM,Moderate,Easier than Reference,D,j,safeDeck,riskyDeck,0,-28,-14,left,0,0,18,present,safeDeck,1250,648
u6792nlm4u8,13431,28/03/2022@09:59:30,"Mozilla/5.0 (Macintosh; Intel Mac OS X 10_15_7) AppleWebKit/537.36 (KHTML, like Gecko) Chrome/98.0.4758.102 Safari/537.36",1440,900,1440,738,main,1703328,4,12,4,3,EM,Moderate,Easier than Reference,D,j,safeDeck,riskyDeck,0,-28,-14,left,0,1,18,absent,safeDeck,1250,518
u6792nlm4u8,13431,28/03/2022@09:59:30,"Mozilla/5.0 (Macintosh; Intel Mac OS X 10_15_7) AppleWebKit/537.36 (KHTML, like Gecko) Chrome/98.0.4758.102 Safari/537.36",1440,900,1440,738,main,1703328,4,13,4,4,EM,Moderate,Easier than Reference,D,k,safeDeck,riskyDeck,0,-28,-14,left,0,0,18,absent,safeDeck,1250,4
u6792nlm4u8,13431,28/03/2022@09:59:30,"Mozilla/5.0 (Macintosh; Intel Mac OS X 10_15_7) AppleWebKit/537.36 (KHTML, like Gecko) Chrome/98.0.4758.102 Safari/537.36",1440,900,1440,738,main,1703328,4,14,4,4,EM,Moderate,Easier than Reference,D,k,safeDeck,riskyDeck,0,-28,-14,left,0,1,18,present,safeDeck,1250,376
u6792nlm4u8,13431,28/03/2022@09:59:30,"Mozilla/5.0 (Macintosh; Intel Mac OS X 10_15_7) AppleWebKit/537.36 (KHTML, like Gecko) Chrome/98.0.4758.102 Safari/537.36",1440,900,1440,738,main,1703328,4,15,5,4,EM,Moderate,Easier than Reference,D,j,safeDeck,riskyDeck,0,-28,-14,left,0,0,18,present,safeDeck,1250,156
u6792nlm4u8,13431,28/03/2022@09:59:30,"Mozilla/5.0 (Macintosh; Intel Mac OS X 10_15_7) AppleWebKit/537.36 (KHTML, like Gecko) Chrome/98.0.4758.102 Safari/537.36",1440,900,1440,738,main,1703328,4,16,5,4,EM,Moderate,Easier than Reference,D,j,safeDeck,riskyDeck,0,-28,-14,left,0,1,18,absent,safeDeck,1250,705
u6792nlm4u8,13431,28/03/2022@09:59:30,"Mozilla/5.0 (Macintosh; Intel Mac OS X 10_15_7) AppleWebKit/537.36 (KHTML, like Gecko) Chrome/98.0.4758.102 Safari/537.36",1440,900,1440,738,main,1703328,4,17,5,4,EM,Moderate,Easier than Reference,D,j,safeDeck,riskyDeck,0,-28,-14,left,0,1,18,absent,safeDeck,1250,227
u6792nlm4u8,13431,28/03/2022@09:59:30,"Mozilla/5.0 (Macintosh; Intel Mac OS X 10_15_7) AppleWebKit/537.36 (KHTML, like Gecko) Chrome/98.0.4758.102 Safari/537.36",1440,900,1440,738,main,1703328,5,1,5,4,EE,Extreme,Easier than Reference,F,k,riskyDeck,safeDeck,0,-14,-7,right,0,1,25,present,safeDeck,8204,770
u6792nlm4u8,13431,28/03/2022@09:59:30,"Mozilla/5.0 (Macintosh; Intel Mac OS X 10_15_7) AppleWebKit/537.36 (KHTML, like Gecko) Chrome/98.0.4758.102 Safari/537.36",1440,900,1440,738,main,1703328,5,2,5,4,EE,Extreme,Easier than Reference,F,k,riskyDeck,safeDeck,0,-14,-7,right,0,1,25,present,safeDeck,8204,441
u6792nlm4u8,13431,28/03/2022@09:59:30,"Mozilla/5.0 (Macintosh; Intel Mac OS X 10_15_7) AppleWebKit/537.36 (KHTML, like Gecko) Chrome/98.0.4758.102 Safari/537.36",1440,900,1440,738,main,1703328,5,3,5,4,EE,Extreme,Easier than Reference,F,j,riskyDeck,safeDeck,0,-14,-7,right,0,1,25,absent,safeDeck,8204,1276
u6792nlm4u8,13431,28/03/2022@09:59:30,"Mozilla/5.0 (Macintosh; Intel Mac OS X 10_15_7) AppleWebKit/537.36 (KHTML, like Gecko) Chrome/98.0.4758.102 Safari/537.36",1440,900,1440,738,main,1703328,5,4,5,4,EE,Extreme,Easier than Reference,F,k,riskyDeck,safeDeck,0,-14,-7,right,0,1,25,present,safeDeck,8204,758
u6792nlm4u8,13431,28/03/2022@09:59:30,"Mozilla/5.0 (Macintosh; Intel Mac OS X 10_15_7) AppleWebKit/537.36 (KHTML, like Gecko) Chrome/98.0.4758.102 Safari/537.36",1440,900,1440,738,main,1703328,5,5,5,4,EE,Extreme,Easier than Reference,F,j,riskyDeck,safeDeck,0,-14,-7,right,0,1,25,absent,safeDeck,8204,161
u6792nlm4u8,13431,28/03/2022@09:59:30,"Mozilla/5.0 (Macintosh; Intel Mac OS X 10_15_7) AppleWebKit/537.36 (KHTML, like Gecko) Chrome/98.0.4758.102 Safari/537.36",1440,900,1440,738,main,1703328,5,6,5,4,EE,Extreme,Easier than Reference,F,j,riskyDeck,safeDeck,0,-14,-7,right,0,0,25,present,safeDeck,8204,448
u6792nlm4u8,13431,28/03/2022@09:59:30,"Mozilla/5.0 (Macintosh; Intel Mac OS X 10_15_7) AppleWebKit/537.36 (KHTML, like Gecko) Chrome/98.0.4758.102 Safari/537.36",1440,900,1440,738,main,1703328,5,7,5,4,EE,Extreme,Easier than Reference,F,j,riskyDeck,safeDeck,0,-14,-7,right,0,1,25,absent,safeDeck,8204,916
u6792nlm4u8,13431,28/03/2022@09:59:30,"Mozilla/5.0 (Macintosh; Intel Mac OS X 10_15_7) AppleWebKit/537.36 (KHTML, like Gecko) Chrome/98.0.4758.102 Safari/537.36",1440,900,1440,738,main,1703328,5,8,5,4,EE,Extreme,Easier than Reference,F,k,riskyDeck,safeDeck,0,-14,-7,right,0,1,25,present,safeDeck,8204,37
u6792nlm4u8,13431,28/03/2022@09:59:30,"Mozilla/5.0 (Macintosh; Intel Mac OS X 10_15_7) AppleWebKit/537.36 (KHTML, like Gecko) Chrome/98.0.4758.102 Safari/537.36",1440,900,1440,738,main,1703328,5,9,5,4,EE,Extreme,Easier than Reference,F,j,riskyDeck,safeDeck,0,-14,-7,right,0,1,25,absent,safeDeck,8204,893
u6792nlm4u8,13431,28/03/2022@09:59:30,"Mozilla/5.0 (Macintosh; Intel Mac OS X 10_15_7) AppleWebKit/537.36 (KHTML, like Gecko) Chrome/98.0.4758.102 Safari/537.36",1440,900,1440,738,main,1703328,5,10,5,4,EE,Extreme,Easier than Reference,F,j,riskyDeck,safeDeck,0,-14,-7,right,0,0,25,present,safeDeck,8204,335
u6792nlm4u8,13431,28/03/2022@09:59:30,"Mozilla/5.0 (Macintosh; Intel Mac OS X 10_15_7) AppleWebKit/537.36 (KHTML, like Gecko) Chrome/98.0.4758.102 Safari/537.36",1440,900,1440,738,main,1703328,5,11,5,4,EE,Extreme,Easier than Reference,F,j,riskyDeck,safeDeck,0,-14,-7,right,0,1,25,absent,safeDeck,8204,3053
u6792nlm4u8,13431,28/03/2022@09:59:30,"Mozilla/5.0 (Macintosh; Intel Mac OS X 10_15_7) AppleWebKit/537.36 (KHTML, like Gecko) Chrome/98.0.4758.102 Safari/537.36",1440,900,1440,738,main,1703328,5,12,5,4,EE,Extreme,Easier than Reference,F,j,riskyDeck,safeDeck,0,-14,-7,right,0,0,25,present,safeDeck,8204,594
u6792nlm4u8,13431,28/03/2022@09:59:30,"Mozilla/5.0 (Macintosh; Intel Mac OS X 10_15_7) AppleWebKit/537.36 (KHTML, like Gecko) Chrome/98.0.4758.102 Safari/537.36",1440,900,1440,738,main,1703328,5,13,5,4,EE,Extreme,Easier than Reference,F,j,riskyDeck,safeDeck,0,-14,-7,right,0,1,25,absent,safeDeck,8204,491
u6792nlm4u8,13431,28/03/2022@09:59:30,"Mozilla/5.0 (Macintosh; Intel Mac OS X 10_15_7) AppleWebKit/537.36 (KHTML, like Gecko) Chrome/98.0.4758.102 Safari/537.36",1440,900,1440,738,main,1703328,5,14,5,4,EE,Extreme,Easier than Reference,F,j,riskyDeck,safeDeck,0,-14,-7,right,0,1,25,absent,safeDeck,8204,820
u6792nlm4u8,13431,28/03/2022@09:59:30,"Mozilla/5.0 (Macintosh; Intel Mac OS X 10_15_7) AppleWebKit/537.36 (KHTML, like Gecko) Chrome/98.0.4758.102 Safari/537.36",1440,900,1440,738,main,1703328,5,15,5,4,EE,Extreme,Easier than Reference,F,j,riskyDeck,safeDeck,0,-14,-7,right,0,1,25,absent,safeDeck,8204,458
u6792nlm4u8,13431,28/03/2022@09:59:30,"Mozilla/5.0 (Macintosh; Intel Mac OS X 10_15_7) AppleWebKit/537.36 (KHTML, like Gecko) Chrome/98.0.4758.102 Safari/537.36",1440,900,1440,738,main,1703328,5,16,5,4,EE,Extreme,Easier than Reference,F,k,riskyDeck,safeDeck,0,-14,-7,right,0,0,25,absent,safeDeck,8204,203
u6792nlm4u8,13431,28/03/2022@09:59:30,"Mozilla/5.0 (Macintosh; Intel Mac OS X 10_15_7) AppleWebKit/537.36 (KHTML, like Gecko) Chrome/98.0.4758.102 Safari/537.36",1440,900,1440,738,main,1703328,5,17,5,5,EE,Extreme,Easier than Reference,F,k,riskyDeck,safeDeck,0,-14,-7,right,0,1,25,present,safeDeck,8204,641
u6792nlm4u8,13431,28/03/2022@09:59:30,"Mozilla/5.0 (Macintosh; Intel Mac OS X 10_15_7) AppleWebKit/537.36 (KHTML, like Gecko) Chrome/98.0.4758.102 Safari/537.36",1440,900,1440,738,main,1703328,6,1,6,5,HE,Extreme,Harder than Reference,D,j,riskyDeck,safeDeck,0,28,14,left,1,1,32,absent,riskyDeck,6793,1467
u6792nlm4u8,13431,28/03/2022@09:59:30,"Mozilla/5.0 (Macintosh; Intel Mac OS X 10_15_7) AppleWebKit/537.36 (KHTML, like Gecko) Chrome/98.0.4758.102 Safari/537.36",1440,900,1440,738,main,1703328,6,2,6,5,HE,Extreme,Harder than Reference,D,k,riskyDeck,safeDeck,0,28,14,left,1,1,32,present,riskyDeck,6793,1545
u6792nlm4u8,13431,28/03/2022@09:59:30,"Mozilla/5.0 (Macintosh; Intel Mac OS X 10_15_7) AppleWebKit/537.36 (KHTML, like Gecko) Chrome/98.0.4758.102 Safari/537.36",1440,900,1440,738,main,1703328,6,3,6,5,HE,Extreme,Harder than Reference,D,j,riskyDeck,safeDeck,0,28,14,left,1,0,32,present,riskyDeck,6793,2055
u6792nlm4u8,13431,28/03/2022@09:59:30,"Mozilla/5.0 (Macintosh; Intel Mac OS X 10_15_7) AppleWebKit/537.36 (KHTML, like Gecko) Chrome/98.0.4758.102 Safari/537.36",1440,900,1440,738,main,1703328,6,4,6,5,HE,Extreme,Harder than Reference,D,k,riskyDeck,safeDeck,0,28,14,left,1,0,32,absent,riskyDeck,6793,3586
u6792nlm4u8,13431,28/03/2022@09:59:30,"Mozilla/5.0 (Macintosh; Intel Mac OS X 10_15_7) AppleWebKit/537.36 (KHTML, like Gecko) Chrome/98.0.4758.102 Safari/537.36",1440,900,1440,738,main,1703328,6,5,6,5,HE,Extreme,Harder than Reference,D,k,riskyDeck,safeDeck,0,28,14,left,1,0,32,absent,riskyDeck,6793,1154
u6792nlm4u8,13431,28/03/2022@09:59:30,"Mozilla/5.0 (Macintosh; Intel Mac OS X 10_15_7) AppleWebKit/537.36 (KHTML, like Gecko) Chrome/98.0.4758.102 Safari/537.36",1440,900,1440,738,main,1703328,6,6,6,5,HE,Extreme,Harder than Reference,D,k,riskyDeck,safeDeck,0,28,14,left,1,0,32,absent,riskyDeck,6793,1816
u6792nlm4u8,13431,28/03/2022@09:59:30,"Mozilla/5.0 (Macintosh; Intel Mac OS X 10_15_7) AppleWebKit/537.36 (KHTML, like Gecko) Chrome/98.0.4758.102 Safari/537.36",1440,900,1440,738,main,1703328,6,7,6,5,HE,Extreme,Harder than Reference,D,k,riskyDeck,safeDeck,0,28,14,left,1,1,32,present,riskyDeck,6793,1475
u6792nlm4u8,13431,28/03/2022@09:59:30,"Mozilla/5.0 (Macintosh; Intel Mac OS X 10_15_7) AppleWebKit/537.36 (KHTML, like Gecko) Chrome/98.0.4758.102 Safari/537.36",1440,900,1440,738,main,1703328,6,8,6,5,HE,Extreme,Harder than Reference,D,k,riskyDeck,safeDeck,0,28,14,left,1,1,32,present,riskyDeck,6793,2022
u6792nlm4u8,13431,28/03/2022@09:59:30,"Mozilla/5.0 (Macintosh; Intel Mac OS X 10_15_7) AppleWebKit/537.36 (KHTML, like Gecko) Chrome/98.0.4758.102 Safari/537.36",1440,900,1440,738,main,1703328,6,9,6,5,HE,Extreme,Harder than Reference,D,k,riskyDeck,safeDeck,0,28,14,left,1,0,32,absent,riskyDeck,6793,2548
u6792nlm4u8,13431,28/03/2022@09:59:30,"Mozilla/5.0 (Macintosh; Intel Mac OS X 10_15_7) AppleWebKit/537.36 (KHTML, like Gecko) Chrome/98.0.4758.102 Safari/537.36",1440,900,1440,738,main,1703328,6,10,6,5,HE,Extreme,Harder than Reference,D,k,riskyDeck,safeDeck,0,28,14,left,1,0,32,absent,riskyDeck,6793,2165
u6792nlm4u8,13431,28/03/2022@09:59:30,"Mozilla/5.0 (Macintosh; Intel Mac OS X 10_15_7) AppleWebKit/537.36 (KHTML, like Gecko) Chrome/98.0.4758.102 Safari/537.36",1440,900,1440,738,main,1703328,6,11,6,5,HE,Extreme,Harder than Reference,D,k,riskyDeck,safeDeck,0,28,14,left,1,0,32,absent,riskyDeck,6793,2413
u6792nlm4u8,13431,28/03/2022@09:59:30,"Mozilla/5.0 (Macintosh; Intel Mac OS X 10_15_7) AppleWebKit/537.36 (KHTML, like Gecko) Chrome/98.0.4758.102 Safari/537.36",1440,900,1440,738,main,1703328,6,12,6,5,HE,Extreme,Harder than Reference,D,k,riskyDeck,safeDeck,0,28,14,left,1,0,32,absent,riskyDeck,6793,2405
u6792nlm4u8,13431,28/03/2022@09:59:30,"Mozilla/5.0 (Macintosh; Intel Mac OS X 10_15_7) AppleWebKit/537.36 (KHTML, like Gecko) Chrome/98.0.4758.102 Safari/537.36",1440,900,1440,738,main,1703328,6,13,6,5,HE,Extreme,Harder than Reference,D,k,riskyDeck,safeDeck,0,28,14,left,1,1,32,present,riskyDeck,6793,2342
u6792nlm4u8,13431,28/03/2022@09:59:30,"Mozilla/5.0 (Macintosh; Intel Mac OS X 10_15_7) AppleWebKit/537.36 (KHTML, like Gecko) Chrome/98.0.4758.102 Safari/537.36",1440,900,1440,738,main,1703328,6,14,6,5,HE,Extreme,Harder than Reference,D,k,riskyDeck,safeDeck,0,28,14,left,1,0,32,absent,riskyDeck,6793,3326
u6792nlm4u8,13431,28/03/2022@09:59:30,"Mozilla/5.0 (Macintosh; Intel Mac OS X 10_15_7) AppleWebKit/537.36 (KHTML, like Gecko) Chrome/98.0.4758.102 Safari/537.36",1440,900,1440,738,main,1703328,6,15,6,5,HE,Extreme,Harder than Reference,D,k,riskyDeck,safeDeck,0,28,14,left,1,0,32,absent,riskyDeck,6793,2292
u6792nlm4u8,13431,28/03/2022@09:59:30,"Mozilla/5.0 (Macintosh; Intel Mac OS X 10_15_7) AppleWebKit/537.36 (KHTML, like Gecko) Chrome/98.0.4758.102 Safari/537.36",1440,900,1440,738,main,1703328,6,16,6,6,HE,Extreme,Harder than Reference,D,k,riskyDeck,safeDeck,0,28,14,left,1,0,32,absent,riskyDeck,6793,2064
u6792nlm4u8,13431,28/03/2022@09:59:30,"Mozilla/5.0 (Macintosh; Intel Mac OS X 10_15_7) AppleWebKit/537.36 (KHTML, like Gecko) Chrome/98.0.4758.102 Safari/537.36",1440,900,1440,738,main,1703328,6,17,6,6,HE,Extreme,Harder than Reference,D,j,riskyDeck,safeDeck,0,28,14,left,1,0,32,present,riskyDeck,6793,1755
u6792nlm4u8,13431,28/03/2022@09:59:30,"Mozilla/5.0 (Macintosh; Intel Mac OS X 10_15_7) AppleWebKit/537.36 (KHTML, like Gecko) Chrome/98.0.4758.102 Safari/537.36",1440,900,1440,738,main,1703328,7,1,7,6,HM,Moderate,Harder than Reference,F,k,safeDeck,riskyDeck,0,14,7,right,1,0,46,absent,riskyDeck,4539,670
u6792nlm4u8,13431,28/03/2022@09:59:30,"Mozilla/5.0 (Macintosh; Intel Mac OS X 10_15_7) AppleWebKit/537.36 (KHTML, like Gecko) Chrome/98.0.4758.102 Safari/537.36",1440,900,1440,738,main,1703328,7,2,7,6,HM,Moderate,Harder than Reference,F,k,safeDeck,riskyDeck,0,14,7,right,1,1,46,present,riskyDeck,4539,3290
u6792nlm4u8,13431,28/03/2022@09:59:30,"Mozilla/5.0 (Macintosh; Intel Mac OS X 10_15_7) AppleWebKit/537.36 (KHTML, like Gecko) Chrome/98.0.4758.102 Safari/537.36",1440,900,1440,738,main,1703328,7,3,7,6,HM,Moderate,Harder than Reference,F,j,safeDeck,riskyDeck,0,14,7,right,1,1,46,absent,riskyDeck,4539,2994
u6792nlm4u8,13431,28/03/2022@09:59:30,"Mozilla/5.0 (Macintosh; Intel Mac OS X 10_15_7) AppleWebKit/537.36 (KHTML, like Gecko) Chrome/98.0.4758.102 Safari/537.36",1440,900,1440,738,main,1703328,7,4,7,6,HM,Moderate,Harder than Reference,F,k,safeDeck,riskyDeck,0,14,7,right,1,0,46,absent,riskyDeck,4539,2453
u6792nlm4u8,13431,28/03/2022@09:59:30,"Mozilla/5.0 (Macintosh; Intel Mac OS X 10_15_7) AppleWebKit/537.36 (KHTML, like Gecko) Chrome/98.0.4758.102 Safari/537.36",1440,900,1440,738,main,1703328,7,5,7,6,HM,Moderate,Harder than Reference,F,j,safeDeck,riskyDeck,0,14,7,right,1,0,46,present,riskyDeck,4539,3698
u6792nlm4u8,13431,28/03/2022@09:59:30,"Mozilla/5.0 (Macintosh; Intel Mac OS X 10_15_7) AppleWebKit/537.36 (KHTML, like Gecko) Chrome/98.0.4758.102 Safari/537.36",1440,900,1440,738,main,1703328,7,6,7,6,HM,Moderate,Harder than Reference,F,k,safeDeck,riskyDeck,0,14,7,right,1,0,46,absent,riskyDeck,4539,3079
u6792nlm4u8,13431,28/03/2022@09:59:30,"Mozilla/5.0 (Macintosh; Intel Mac OS X 10_15_7) AppleWebKit/537.36 (KHTML, like Gecko) Chrome/98.0.4758.102 Safari/537.36",1440,900,1440,738,main,1703328,7,7,7,6,HM,Moderate,Harder than Reference,F,k,safeDeck,riskyDeck,0,14,7,right,1,0,46,absent,riskyDeck,4539,2379
u6792nlm4u8,13431,28/03/2022@09:59:30,"Mozilla/5.0 (Macintosh; Intel Mac OS X 10_15_7) AppleWebKit/537.36 (KHTML, like Gecko) Chrome/98.0.4758.102 Safari/537.36",1440,900,1440,738,main,1703328,7,8,7,6,HM,Moderate,Harder than Reference,F,j,safeDeck,riskyDeck,0,14,7,right,1,0,46,present,riskyDeck,4539,1398
u6792nlm4u8,13431,28/03/2022@09:59:30,"Mozilla/5.0 (Macintosh; Intel Mac OS X 10_15_7) AppleWebKit/537.36 (KHTML, like Gecko) Chrome/98.0.4758.102 Safari/537.36",1440,900,1440,738,main,1703328,7,9,7,6,HM,Moderate,Harder than Reference,F,k,safeDeck,riskyDeck,0,14,7,right,1,1,46,present,riskyDeck,4539,2598
u6792nlm4u8,13431,28/03/2022@09:59:30,"Mozilla/5.0 (Macintosh; Intel Mac OS X 10_15_7) AppleWebKit/537.36 (KHTML, like Gecko) Chrome/98.0.4758.102 Safari/537.36",1440,900,1440,738,main,1703328,7,10,7,6,HM,Moderate,Harder than Reference,F,k,safeDeck,riskyDeck,0,14,7,right,1,0,46,absent,riskyDeck,4539,2724
u6792nlm4u8,13431,28/03/2022@09:59:30,"Mozilla/5.0 (Macintosh; Intel Mac OS X 10_15_7) AppleWebKit/537.36 (KHTML, like Gecko) Chrome/98.0.4758.102 Safari/537.36",1440,900,1440,738,main,1703328,7,11,7,6,HM,Moderate,Harder than Reference,F,k,safeDeck,riskyDeck,0,14,7,right,1,0,46,absent,riskyDeck,4539,3991
u6792nlm4u8,13431,28/03/2022@09:59:30,"Mozilla/5.0 (Macintosh; Intel Mac OS X 10_15_7) AppleWebKit/537.36 (KHTML, like Gecko) Chrome/98.0.4758.102 Safari/537.36",1440,900,1440,738,main,1703328,7,12,7,6,HM,Moderate,Harder than Reference,F,k,safeDeck,riskyDeck,0,14,7,right,1,0,46,absent,riskyDeck,4539,2759
u6792nlm4u8,13431,28/03/2022@09:59:30,"Mozilla/5.0 (Macintosh; Intel Mac OS X 10_15_7) AppleWebKit/537.36 (KHTML, like Gecko) Chrome/98.0.4758.102 Safari/537.36",1440,900,1440,738,main,1703328,7,13,7,6,HM,Moderate,Harder than Reference,F,j,safeDeck,riskyDeck,0,14,7,right,1,0,46,present,riskyDeck,4539,1596
u6792nlm4u8,13431,28/03/2022@09:59:30,"Mozilla/5.0 (Macintosh; Intel Mac OS X 10_15_7) AppleWebKit/537.36 (KHTML, like Gecko) Chrome/98.0.4758.102 Safari/537.36",1440,900,1440,738,main,1703328,7,14,7,6,HM,Moderate,Harder than Reference,F,k,safeDeck,riskyDeck,0,14,7,right,1,0,46,absent,riskyDeck,4539,2977
u6792nlm4u8,13431,28/03/2022@09:59:30,"Mozilla/5.0 (Macintosh; Intel Mac OS X 10_15_7) AppleWebKit/537.36 (KHTML, like Gecko) Chrome/98.0.4758.102 Safari/537.36",1440,900,1440,738,main,1703328,7,15,7,6,HM,Moderate,Harder than Reference,F,j,safeDeck,riskyDeck,0,14,7,right,1,0,46,present,riskyDeck,4539,1204
u6792nlm4u8,13431,28/03/2022@09:59:30,"Mozilla/5.0 (Macintosh; Intel Mac OS X 10_15_7) AppleWebKit/537.36 (KHTML, like Gecko) Chrome/98.0.4758.102 Safari/537.36",1440,900,1440,738,main,1703328,7,16,7,6,HM,Moderate,Harder than Reference,F,j,safeDeck,riskyDeck,0,14,7,right,1,0,46,present,riskyDeck,4539,1234
u6792nlm4u8,13431,28/03/2022@09:59:30,"Mozilla/5.0 (Macintosh; Intel Mac OS X 10_15_7) AppleWebKit/537.36 (KHTML, like Gecko) Chrome/98.0.4758.102 Safari/537.36",1440,900,1440,738,main,1703328,7,17,7,7,HM,Moderate,Harder than Reference,F,k,safeDeck,riskyDeck,0,14,7,right,1,0,46,absent,riskyDeck,4539,4282
u6792nlm4u8,13431,28/03/2022@09:59:30,"Mozilla/5.0 (Macintosh; Intel Mac OS X 10_15_7) AppleWebKit/537.36 (KHTML, like Gecko) Chrome/98.0.4758.102 Safari/537.36",1440,900,1440,738,main,1703328,8,1,8,7,EM,Moderate,Easier than Reference,D,k,riskyDeck,safeDeck,-28,0,-14,left,1,0,32,absent,riskyDeck,2124,5927
u6792nlm4u8,13431,28/03/2022@09:59:30,"Mozilla/5.0 (Macintosh; Intel Mac OS X 10_15_7) AppleWebKit/537.36 (KHTML, like Gecko) Chrome/98.0.4758.102 Safari/537.36",1440,900,1440,738,main,1703328,8,2,8,7,EM,Moderate,Easier than Reference,D,k,riskyDeck,safeDeck,-28,0,-14,left,1,1,32,present,riskyDeck,2124,2119
u6792nlm4u8,13431,28/03/2022@09:59:30,"Mozilla/5.0 (Macintosh; Intel Mac OS X 10_15_7) AppleWebKit/537.36 (KHTML, like Gecko) Chrome/98.0.4758.102 Safari/537.36",1440,900,1440,738,main,1703328,8,3,8,7,EM,Moderate,Easier than Reference,D,j,riskyDeck,safeDeck,-28,0,-14,left,1,1,32,absent,riskyDeck,2124,1345
u6792nlm4u8,13431,28/03/2022@09:59:30,"Mozilla/5.0 (Macintosh; Intel Mac OS X 10_15_7) AppleWebKit/537.36 (KHTML, like Gecko) Chrome/98.0.4758.102 Safari/537.36",1440,900,1440,738,main,1703328,8,4,8,7,EM,Moderate,Easier than Reference,D,k,riskyDeck,safeDeck,-28,0,-14,left,1,0,32,absent,riskyDeck,2124,150
u6792nlm4u8,13431,28/03/2022@09:59:30,"Mozilla/5.0 (Macintosh; Intel Mac OS X 10_15_7) AppleWebKit/537.36 (KHTML, like Gecko) Chrome/98.0.4758.102 Safari/537.36",1440,900,1440,738,main,1703328,8,5,8,7,EM,Moderate,Easier than Reference,D,k,riskyDeck,safeDeck,-28,0,-14,left,1,0,32,absent,riskyDeck,2124,737
u6792nlm4u8,13431,28/03/2022@09:59:30,"Mozilla/5.0 (Macintosh; Intel Mac OS X 10_15_7) AppleWebKit/537.36 (KHTML, like Gecko) Chrome/98.0.4758.102 Safari/537.36",1440,900,1440,738,main,1703328,8,6,8,7,EM,Moderate,Easier than Reference,D,k,riskyDeck,safeDeck,-28,0,-14,left,1,0,32,absent,riskyDeck,2124,1569
u6792nlm4u8,13431,28/03/2022@09:59:30,"Mozilla/5.0 (Macintosh; Intel Mac OS X 10_15_7) AppleWebKit/537.36 (KHTML, like Gecko) Chrome/98.0.4758.102 Safari/537.36",1440,900,1440,738,main,1703328,8,7,8,7,EM,Moderate,Easier than Reference,D,k,riskyDeck,safeDeck,-28,0,-14,left,1,0,32,absent,riskyDeck,2124,2674
u6792nlm4u8,13431,28/03/2022@09:59:30,"Mozilla/5.0 (Macintosh; Intel Mac OS X 10_15_7) AppleWebKit/537.36 (KHTML, like Gecko) Chrome/98.0.4758.102 Safari/537.36",1440,900,1440,738,main,1703328,8,8,8,7,EM,Moderate,Easier than Reference,D,j,riskyDeck,safeDeck,-28,0,-14,left,1,0,32,present,riskyDeck,2124,1967
u6792nlm4u8,13431,28/03/2022@09:59:30,"Mozilla/5.0 (Macintosh; Intel Mac OS X 10_15_7) AppleWebKit/537.36 (KHTML, like Gecko) Chrome/98.0.4758.102 Safari/537.36",1440,900,1440,738,main,1703328,8,9,8,7,EM,Moderate,Easier than Reference,D,j,riskyDeck,safeDeck,-28,0,-14,left,1,0,32,present,riskyDeck,2124,1012
u6792nlm4u8,13431,28/03/2022@09:59:30,"Mozilla/5.0 (Macintosh; Intel Mac OS X 10_15_7) AppleWebKit/537.36 (KHTML, like Gecko) Chrome/98.0.4758.102 Safari/537.36",1440,900,1440,738,main,1703328,8,10,8,7,EM,Moderate,Easier than Reference,D,k,riskyDeck,safeDeck,-28,0,-14,left,1,0,32,absent,riskyDeck,2124,2001
u6792nlm4u8,13431,28/03/2022@09:59:30,"Mozilla/5.0 (Macintosh; Intel Mac OS X 10_15_7) AppleWebKit/537.36 (KHTML, like Gecko) Chrome/98.0.4758.102 Safari/537.36",1440,900,1440,738,main,1703328,8,11,8,7,EM,Moderate,Easier than Reference,D,j,riskyDeck,safeDeck,-28,0,-14,left,1,0,32,present,riskyDeck,2124,1188
u6792nlm4u8,13431,28/03/2022@09:59:30,"Mozilla/5.0 (Macintosh; Intel Mac OS X 10_15_7) AppleWebKit/537.36 (KHTML, like Gecko) Chrome/98.0.4758.102 Safari/537.36",1440,900,1440,738,main,1703328,8,12,8,7,EM,Moderate,Easier than Reference,D,j,riskyDeck,safeDeck,-28,0,-14,left,1,0,32,present,riskyDeck,2124,1067
u6792nlm4u8,13431,28/03/2022@09:59:30,"Mozilla/5.0 (Macintosh; Intel Mac OS X 10_15_7) AppleWebKit/537.36 (KHTML, like Gecko) Chrome/98.0.4758.102 Safari/537.36",1440,900,1440,738,main,1703328,8,13,8,7,EM,Moderate,Easier than Reference,D,j,riskyDeck,safeDeck,-28,0,-14,left,1,0,32,present,riskyDeck,2124,1616
u6792nlm4u8,13431,28/03/2022@09:59:30,"Mozilla/5.0 (Macintosh; Intel Mac OS X 10_15_7) AppleWebKit/537.36 (KHTML, like Gecko) Chrome/98.0.4758.102 Safari/537.36",1440,900,1440,738,main,1703328,8,14,8,7,EM,Moderate,Easier than Reference,D,k,riskyDeck,safeDeck,-28,0,-14,left,1,1,32,present,riskyDeck,2124,1330
u6792nlm4u8,13431,28/03/2022@09:59:30,"Mozilla/5.0 (Macintosh; Intel Mac OS X 10_15_7) AppleWebKit/537.36 (KHTML, like Gecko) Chrome/98.0.4758.102 Safari/537.36",1440,900,1440,738,main,1703328,8,15,8,7,EM,Moderate,Easier than Reference,D,k,riskyDeck,safeDeck,-28,0,-14,left,1,0,32,absent,riskyDeck,2124,2479
u6792nlm4u8,13431,28/03/2022@09:59:30,"Mozilla/5.0 (Macintosh; Intel Mac OS X 10_15_7) AppleWebKit/537.36 (KHTML, like Gecko) Chrome/98.0.4758.102 Safari/537.36",1440,900,1440,738,main,1703328,8,16,8,7,EM,Moderate,Easier than Reference,D,k,riskyDeck,safeDeck,-28,0,-14,left,1,0,32,absent,riskyDeck,2124,1916
u6792nlm4u8,13431,28/03/2022@09:59:30,"Mozilla/5.0 (Macintosh; Intel Mac OS X 10_15_7) AppleWebKit/537.36 (KHTML, like Gecko) Chrome/98.0.4758.102 Safari/537.36",1440,900,1440,738,main,1703328,8,17,8,7,EM,Moderate,Easier than Reference,D,k,riskyDeck,safeDeck,-28,0,-14,left,1,0,32,absent,riskyDeck,2124,2177
u6792nlm4u8,13431,28/03/2022@09:59:30,"Mozilla/5.0 (Macintosh; Intel Mac OS X 10_15_7) AppleWebKit/537.36 (KHTML, like Gecko) Chrome/98.0.4758.102 Safari/537.36",1440,900,1440,738,main,1703328,9,1,8,7,EE,Extreme,Easier than Reference,D,j,safeDeck,riskyDeck,-14,0,-7,left,0,1,25,absent,safeDeck,1899,1351
u6792nlm4u8,13431,28/03/2022@09:59:30,"Mozilla/5.0 (Macintosh; Intel Mac OS X 10_15_7) AppleWebKit/537.36 (KHTML, like Gecko) Chrome/98.0.4758.102 Safari/537.36",1440,900,1440,738,main,1703328,9,2,8,7,EE,Extreme,Easier than Reference,D,k,safeDeck,riskyDeck,-14,0,-7,left,0,0,25,absent,safeDeck,1899,1780
u6792nlm4u8,13431,28/03/2022@09:59:30,"Mozilla/5.0 (Macintosh; Intel Mac OS X 10_15_7) AppleWebKit/537.36 (KHTML, like Gecko) Chrome/98.0.4758.102 Safari/537.36",1440,900,1440,738,main,1703328,9,3,8,8,EE,Extreme,Easier than Reference,D,k,safeDeck,riskyDeck,-14,0,-7,left,0,0,25,absent,safeDeck,1899,1918
u6792nlm4u8,13431,28/03/2022@09:59:30,"Mozilla/5.0 (Macintosh; Intel Mac OS X 10_15_7) AppleWebKit/537.36 (KHTML, like Gecko) Chrome/98.0.4758.102 Safari/537.36",1440,900,1440,738,main,1703328,9,4,8,8,EE,Extreme,Easier than Reference,D,k,safeDeck,riskyDeck,-14,0,-7,left,0,0,25,absent,safeDeck,1899,2159
u6792nlm4u8,13431,28/03/2022@09:59:30,"Mozilla/5.0 (Macintosh; Intel Mac OS X 10_15_7) AppleWebKit/537.36 (KHTML, like Gecko) Chrome/98.0.4758.102 Safari/537.36",1440,900,1440,738,main,1703328,9,5,9,8,EE,Extreme,Easier than Reference,D,k,safeDeck,riskyDeck,-14,0,-7,left,0,0,25,absent,safeDeck,1899,2266
u6792nlm4u8,13431,28/03/2022@09:59:30,"Mozilla/5.0 (Macintosh; Intel Mac OS X 10_15_7) AppleWebKit/537.36 (KHTML, like Gecko) Chrome/98.0.4758.102 Safari/537.36",1440,900,1440,738,main,1703328,9,6,9,8,EE,Extreme,Easier than Reference,D,j,safeDeck,riskyDeck,-14,0,-7,left,0,0,25,present,safeDeck,1899,1026
u6792nlm4u8,13431,28/03/2022@09:59:30,"Mozilla/5.0 (Macintosh; Intel Mac OS X 10_15_7) AppleWebKit/537.36 (KHTML, like Gecko) Chrome/98.0.4758.102 Safari/537.36",1440,900,1440,738,main,1703328,9,7,9,8,EE,Extreme,Easier than Reference,D,k,safeDeck,riskyDeck,-14,0,-7,left,0,0,25,absent,safeDeck,1899,1405
u6792nlm4u8,13431,28/03/2022@09:59:30,"Mozilla/5.0 (Macintosh; Intel Mac OS X 10_15_7) AppleWebKit/537.36 (KHTML, like Gecko) Chrome/98.0.4758.102 Safari/537.36",1440,900,1440,738,main,1703328,9,8,9,8,EE,Extreme,Easier than Reference,D,j,safeDeck,riskyDeck,-14,0,-7,left,0,0,25,present,safeDeck,1899,1212
u6792nlm4u8,13431,28/03/2022@09:59:30,"Mozilla/5.0 (Macintosh; Intel Mac OS X 10_15_7) AppleWebKit/537.36 (KHTML, like Gecko) Chrome/98.0.4758.102 Safari/537.36",1440,900,1440,738,main,1703328,9,9,9,8,EE,Extreme,Easier than Reference,D,k,safeDeck,riskyDeck,-14,0,-7,left,0,0,25,absent,safeDeck,1899,2151
u6792nlm4u8,13431,28/03/2022@09:59:30,"Mozilla/5.0 (Macintosh; Intel Mac OS X 10_15_7) AppleWebKit/537.36 (KHTML, like Gecko) Chrome/98.0.4758.102 Safari/537.36",1440,900,1440,738,main,1703328,9,10,9,8,EE,Extreme,Easier than Reference,D,k,safeDeck,riskyDeck,-14,0,-7,left,0,1,25,present,safeDeck,1899,2175
u6792nlm4u8,13431,28/03/2022@09:59:30,"Mozilla/5.0 (Macintosh; Intel Mac OS X 10_15_7) AppleWebKit/537.36 (KHTML, like Gecko) Chrome/98.0.4758.102 Safari/537.36",1440,900,1440,738,main,1703328,9,11,9,8,EE,Extreme,Easier than Reference,D,k,safeDeck,riskyDeck,-14,0,-7,left,0,1,25,present,safeDeck,1899,1829
u6792nlm4u8,13431,28/03/2022@09:59:30,"Mozilla/5.0 (Macintosh; Intel Mac OS X 10_15_7) AppleWebKit/537.36 (KHTML, like Gecko) Chrome/98.0.4758.102 Safari/537.36",1440,900,1440,738,main,1703328,9,12,9,8,EE,Extreme,Easier than Reference,D,j,safeDeck,riskyDeck,-14,0,-7,left,0,1,25,absent,safeDeck,1899,1519
u6792nlm4u8,13431,28/03/2022@09:59:30,"Mozilla/5.0 (Macintosh; Intel Mac OS X 10_15_7) AppleWebKit/537.36 (KHTML, like Gecko) Chrome/98.0.4758.102 Safari/537.36",1440,900,1440,738,main,1703328,9,13,9,8,EE,Extreme,Easier than Reference,D,j,safeDeck,riskyDeck,-14,0,-7,left,0,1,25,absent,safeDeck,1899,1986
u6792nlm4u8,13431,28/03/2022@09:59:30,"Mozilla/5.0 (Macintosh; Intel Mac OS X 10_15_7) AppleWebKit/537.36 (KHTML, like Gecko) Chrome/98.0.4758.102 Safari/537.36",1440,900,1440,738,main,1703328,9,14,9,8,EE,Extreme,Easier than Reference,D,j,safeDeck,riskyDeck,-14,0,-7,left,0,0,25,present,safeDeck,1899,1388
u6792nlm4u8,13431,28/03/2022@09:59:30,"Mozilla/5.0 (Macintosh; Intel Mac OS X 10_15_7) AppleWebKit/537.36 (KHTML, like Gecko) Chrome/98.0.4758.102 Safari/537.36",1440,900,1440,738,main,1703328,9,15,9,8,EE,Extreme,Easier than Reference,D,j,safeDeck,riskyDeck,-14,0,-7,left,0,0,25,present,safeDeck,1899,1120
u6792nlm4u8,13431,28/03/2022@09:59:30,"Mozilla/5.0 (Macintosh; Intel Mac OS X 10_15_7) AppleWebKit/537.36 (KHTML, like Gecko) Chrome/98.0.4758.102 Safari/537.36",1440,900,1440,738,main,1703328,9,16,9,8,EE,Extreme,Easier than Reference,D,j,safeDeck,riskyDeck,-14,0,-7,left,0,0,25,present,safeDeck,1899,907
u6792nlm4u8,13431,28/03/2022@09:59:30,"Mozilla/5.0 (Macintosh; Intel Mac OS X 10_15_7) AppleWebKit/537.36 (KHTML, like Gecko) Chrome/98.0.4758.102 Safari/537.36",1440,900,1440,738,main,1703328,9,17,9,8,EE,Extreme,Easier than Reference,D,k,safeDeck,riskyDeck,-14,0,-7,left,0,0,25,absent,safeDeck,1899,2075
u6792nlm4u8,13431,28/03/2022@09:59:30,"Mozilla/5.0 (Macintosh; Intel Mac OS X 10_15_7) AppleWebKit/537.36 (KHTML, like Gecko) Chrome/98.0.4758.102 Safari/537.36",1440,900,1440,738,main,1703328,10,1,9,8,EM,Moderate,Easier than Reference,F,k,safeDeck,riskyDeck,0,-28,-14,right,1,0,4,absent,riskyDeck,2335,3762
u6792nlm4u8,13431,28/03/2022@09:59:30,"Mozilla/5.0 (Macintosh; Intel Mac OS X 10_15_7) AppleWebKit/537.36 (KHTML, like Gecko) Chrome/98.0.4758.102 Safari/537.36",1440,900,1440,738,main,1703328,10,2,9,8,EM,Moderate,Easier than Reference,F,j,safeDeck,riskyDeck,0,-28,-14,right,1,0,4,present,riskyDeck,2335,768
u6792nlm4u8,13431,28/03/2022@09:59:30,"Mozilla/5.0 (Macintosh; Intel Mac OS X 10_15_7) AppleWebKit/537.36 (KHTML, like Gecko) Chrome/98.0.4758.102 Safari/537.36",1440,900,1440,738,main,1703328,10,3,9,8,EM,Moderate,Easier than Reference,F,k,safeDeck,riskyDeck,0,-28,-14,right,1,0,4,absent,riskyDeck,2335,710
u6792nlm4u8,13431,28/03/2022@09:59:30,"Mozilla/5.0 (Macintosh; Intel Mac OS X 10_15_7) AppleWebKit/537.36 (KHTML, like Gecko) Chrome/98.0.4758.102 Safari/537.36",1440,900,1440,738,main,1703328,10,4,9,8,EM,Moderate,Easier than Reference,F,j,safeDeck,riskyDeck,0,-28,-14,right,1,0,4,present,riskyDeck,2335,703
u6792nlm4u8,13431,28/03/2022@09:59:30,"Mozilla/5.0 (Macintosh; Intel Mac OS X 10_15_7) AppleWebKit/537.36 (KHTML, like Gecko) Chrome/98.0.4758.102 Safari/537.36",1440,900,1440,738,main,1703328,10,5,9,8,EM,Moderate,Easier than Reference,F,j,safeDeck,riskyDeck,0,-28,-14,right,1,0,4,present,riskyDeck,2335,661
u6792nlm4u8,13431,28/03/2022@09:59:30,"Mozilla/5.0 (Macintosh; Intel Mac OS X 10_15_7) AppleWebKit/537.36 (KHTML, like Gecko) Chrome/98.0.4758.102 Safari/537.36",1440,900,1440,738,main,1703328,10,6,9,8,EM,Moderate,Easier than Reference,F,j,safeDeck,riskyDeck,0,-28,-14,right,1,0,4,present,riskyDeck,2335,775
u6792nlm4u8,13431,28/03/2022@09:59:30,"Mozilla/5.0 (Macintosh; Intel Mac OS X 10_15_7) AppleWebKit/537.36 (KHTML, like Gecko) Chrome/98.0.4758.102 Safari/537.36",1440,900,1440,738,main,1703328,10,7,9,8,EM,Moderate,Easier than Reference,F,k,safeDeck,riskyDeck,0,-28,-14,right,1,0,4,absent,riskyDeck,2335,948
u6792nlm4u8,13431,28/03/2022@09:59:30,"Mozilla/5.0 (Macintosh; Intel Mac OS X 10_15_7) AppleWebKit/537.36 (KHTML, like Gecko) Chrome/98.0.4758.102 Safari/537.36",1440,900,1440,738,main,1703328,10,8,9,8,EM,Moderate,Easier than Reference,F,k,safeDeck,riskyDeck,0,-28,-14,right,1,0,4,absent,riskyDeck,2335,1309
u6792nlm4u8,13431,28/03/2022@09:59:30,"Mozilla/5.0 (Macintosh; Intel Mac OS X 10_15_7) AppleWebKit/537.36 (KHTML, like Gecko) Chrome/98.0.4758.102 Safari/537.36",1440,900,1440,738,main,1703328,10,9,9,8,EM,Moderate,Easier than Reference,F,k,safeDeck,riskyDeck,0,-28,-14,right,1,0,4,absent,riskyDeck,2335,779
u6792nlm4u8,13431,28/03/2022@09:59:30,"Mozilla/5.0 (Macintosh; Intel Mac OS X 10_15_7) AppleWebKit/537.36 (KHTML, like Gecko) Chrome/98.0.4758.102 Safari/537.36",1440,900,1440,738,main,1703328,10,10,9,8,EM,Moderate,Easier than Reference,F,j,safeDeck,riskyDeck,0,-28,-14,right,1,0,4,present,riskyDeck,2335,682
u6792nlm4u8,13431,28/03/2022@09:59:30,"Mozilla/5.0 (Macintosh; Intel Mac OS X 10_15_7) AppleWebKit/537.36 (KHTML, like Gecko) Chrome/98.0.4758.102 Safari/537.36",1440,900,1440,738,main,1703328,10,11,9,8,EM,Moderate,Easier than Reference,F,k,safeDeck,riskyDeck,0,-28,-14,right,1,0,4,absent,riskyDeck,2335,659
u6792nlm4u8,13431,28/03/2022@09:59:30,"Mozilla/5.0 (Macintosh; Intel Mac OS X 10_15_7) AppleWebKit/537.36 (KHTML, like Gecko) Chrome/98.0.4758.102 Safari/537.36",1440,900,1440,738,main,1703328,10,12,9,8,EM,Moderate,Easier than Reference,F,k,safeDeck,riskyDeck,0,-28,-14,right,1,0,4,absent,riskyDeck,2335,848
u6792nlm4u8,13431,28/03/2022@09:59:30,"Mozilla/5.0 (Macintosh; Intel Mac OS X 10_15_7) AppleWebKit/537.36 (KHTML, like Gecko) Chrome/98.0.4758.102 Safari/537.36",1440,900,1440,738,main,1703328,10,13,9,8,EM,Moderate,Easier than Reference,F,j,safeDeck,riskyDeck,0,-28,-14,right,1,0,4,present,riskyDeck,2335,1059
u6792nlm4u8,13431,28/03/2022@09:59:30,"Mozilla/5.0 (Macintosh; Intel Mac OS X 10_15_7) AppleWebKit/537.36 (KHTML, like Gecko) Chrome/98.0.4758.102 Safari/537.36",1440,900,1440,738,main,1703328,10,14,9,8,EM,Moderate,Easier than Reference,F,k,safeDeck,riskyDeck,0,-28,-14,right,1,0,4,absent,riskyDeck,2335,948
u6792nlm4u8,13431,28/03/2022@09:59:30,"Mozilla/5.0 (Macintosh; Intel Mac OS X 10_15_7) AppleWebKit/537.36 (KHTML, like Gecko) Chrome/98.0.4758.102 Safari/537.36",1440,900,1440,738,main,1703328,10,15,9,9,EM,Moderate,Easier than Reference,F,j,safeDeck,riskyDeck,0,-28,-14,right,1,0,4,present,riskyDeck,2335,681
u6792nlm4u8,13431,28/03/2022@09:59:30,"Mozilla/5.0 (Macintosh; Intel Mac OS X 10_15_7) AppleWebKit/537.36 (KHTML, like Gecko) Chrome/98.0.4758.102 Safari/537.36",1440,900,1440,738,main,1703328,10,16,9,9,EM,Moderate,Easier than Reference,F,k,safeDeck,riskyDeck,0,-28,-14,right,1,0,4,absent,riskyDeck,2335,664
u6792nlm4u8,13431,28/03/2022@09:59:30,"Mozilla/5.0 (Macintosh; Intel Mac OS X 10_15_7) AppleWebKit/537.36 (KHTML, like Gecko) Chrome/98.0.4758.102 Safari/537.36",1440,900,1440,738,main,1703328,10,17,9,9,EM,Moderate,Easier than Reference,F,k,safeDeck,riskyDeck,0,-28,-14,right,1,0,4,absent,riskyDeck,2335,1198
u6792nlm4u8,13431,28/03/2022@09:59:30,"Mozilla/5.0 (Macintosh; Intel Mac OS X 10_15_7) AppleWebKit/537.36 (KHTML, like Gecko) Chrome/98.0.4758.102 Safari/537.36",1440,900,1440,738,main,1703328,11,1,10,9,HM,Moderate,Harder than Reference,D,j,riskyDeck,safeDeck,0,14,7,left,1,0,32,present,riskyDeck,4975,1564
u6792nlm4u8,13431,28/03/2022@09:59:30,"Mozilla/5.0 (Macintosh; Intel Mac OS X 10_15_7) AppleWebKit/537.36 (KHTML, like Gecko) Chrome/98.0.4758.102 Safari/537.36",1440,900,1440,738,main,1703328,11,2,10,9,HM,Moderate,Harder than Reference,D,k,riskyDeck,safeDeck,0,14,7,left,1,0,32,absent,riskyDeck,4975,2271
u6792nlm4u8,13431,28/03/2022@09:59:30,"Mozilla/5.0 (Macintosh; Intel Mac OS X 10_15_7) AppleWebKit/537.36 (KHTML, like Gecko) Chrome/98.0.4758.102 Safari/537.36",1440,900,1440,738,main,1703328,11,3,10,9,HM,Moderate,Harder than Reference,D,j,riskyDeck,safeDeck,0,14,7,left,1,1,32,absent,riskyDeck,4975,3235
u6792nlm4u8,13431,28/03/2022@09:59:30,"Mozilla/5.0 (Macintosh; Intel Mac OS X 10_15_7) AppleWebKit/537.36 (KHTML, like Gecko) Chrome/98.0.4758.102 Safari/537.36",1440,900,1440,738,main,1703328,11,4,10,9,HM,Moderate,Harder than Reference,D,j,riskyDeck,safeDeck,0,14,7,left,1,0,32,present,riskyDeck,4975,1134
u6792nlm4u8,13431,28/03/2022@09:59:30,"Mozilla/5.0 (Macintosh; Intel Mac OS X 10_15_7) AppleWebKit/537.36 (KHTML, like Gecko) Chrome/98.0.4758.102 Safari/537.36",1440,900,1440,738,main,1703328,11,5,10,9,HM,Moderate,Harder than Reference,D,k,riskyDeck,safeDeck,0,14,7,left,1,0,32,absent,riskyDeck,4975,1948
u6792nlm4u8,13431,28/03/2022@09:59:30,"Mozilla/5.0 (Macintosh; Intel Mac OS X 10_15_7) AppleWebKit/537.36 (KHTML, like Gecko) Chrome/98.0.4758.102 Safari/537.36",1440,900,1440,738,main,1703328,11,6,10,9,HM,Moderate,Harder than Reference,D,j,riskyDeck,safeDeck,0,14,7,left,1,0,32,present,riskyDeck,4975,1895
u6792nlm4u8,13431,28/03/2022@09:59:30,"Mozilla/5.0 (Macintosh; Intel Mac OS X 10_15_7) AppleWebKit/537.36 (KHTML, like Gecko) Chrome/98.0.4758.102 Safari/537.36",1440,900,1440,738,main,1703328,11,7,10,9,HM,Moderate,Harder than Reference,D,j,riskyDeck,safeDeck,0,14,7,left,1,0,32,present,riskyDeck,4975,847
u6792nlm4u8,13431,28/03/2022@09:59:30,"Mozilla/5.0 (Macintosh; Intel Mac OS X 10_15_7) AppleWebKit/537.36 (KHTML, like Gecko) Chrome/98.0.4758.102 Safari/537.36",1440,900,1440,738,main,1703328,11,8,10,9,HM,Moderate,Harder than Reference,D,j,riskyDeck,safeDeck,0,14,7,left,1,0,32,present,riskyDeck,4975,1803
u6792nlm4u8,13431,28/03/2022@09:59:30,"Mozilla/5.0 (Macintosh; Intel Mac OS X 10_15_7) AppleWebKit/537.36 (KHTML, like Gecko) Chrome/98.0.4758.102 Safari/537.36",1440,900,1440,738,main,1703328,11,9,10,9,HM,Moderate,Harder than Reference,D,k,riskyDeck,safeDeck,0,14,7,left,1,0,32,absent,riskyDeck,4975,1802
u6792nlm4u8,13431,28/03/2022@09:59:30,"Mozilla/5.0 (Macintosh; Intel Mac OS X 10_15_7) AppleWebKit/537.36 (KHTML, like Gecko) Chrome/98.0.4758.102 Safari/537.36",1440,900,1440,738,main,1703328,11,10,10,9,HM,Moderate,Harder than Reference,D,k,riskyDeck,safeDeck,0,14,7,left,1,0,32,absent,riskyDeck,4975,1895
u6792nlm4u8,13431,28/03/2022@09:59:30,"Mozilla/5.0 (Macintosh; Intel Mac OS X 10_15_7) AppleWebKit/537.36 (KHTML, like Gecko) Chrome/98.0.4758.102 Safari/537.36",1440,900,1440,738,main,1703328,11,11,10,9,HM,Moderate,Harder than Reference,D,k,riskyDeck,safeDeck,0,14,7,left,1,0,32,absent,riskyDeck,4975,1335
u6792nlm4u8,13431,28/03/2022@09:59:30,"Mozilla/5.0 (Macintosh; Intel Mac OS X 10_15_7) AppleWebKit/537.36 (KHTML, like Gecko) Chrome/98.0.4758.102 Safari/537.36",1440,900,1440,738,main,1703328,11,12,10,9,HM,Moderate,Harder than Reference,D,k,riskyDeck,safeDeck,0,14,7,left,1,0,32,absent,riskyDeck,4975,2278
u6792nlm4u8,13431,28/03/2022@09:59:30,"Mozilla/5.0 (Macintosh; Intel Mac OS X 10_15_7) AppleWebKit/537.36 (KHTML, like Gecko) Chrome/98.0.4758.102 Safari/537.36",1440,900,1440,738,main,1703328,11,13,10,9,HM,Moderate,Harder than Reference,D,k,riskyDeck,safeDeck,0,14,7,left,1,0,32,absent,riskyDeck,4975,1928
u6792nlm4u8,13431,28/03/2022@09:59:30,"Mozilla/5.0 (Macintosh; Intel Mac OS X 10_15_7) AppleWebKit/537.36 (KHTML, like Gecko) Chrome/98.0.4758.102 Safari/537.36",1440,900,1440,738,main,1703328,11,14,10,9,HM,Moderate,Harder than Reference,D,j,riskyDeck,safeDeck,0,14,7,left,1,0,32,present,riskyDeck,4975,926
u6792nlm4u8,13431,28/03/2022@09:59:30,"Mozilla/5.0 (Macintosh; Intel Mac OS X 10_15_7) AppleWebKit/537.36 (KHTML, like Gecko) Chrome/98.0.4758.102 Safari/537.36",1440,900,1440,738,main,1703328,11,15,10,9,HM,Moderate,Harder than Reference,D,k,riskyDeck,safeDeck,0,14,7,left,1,0,32,absent,riskyDeck,4975,1596
u6792nlm4u8,13431,28/03/2022@09:59:30,"Mozilla/5.0 (Macintosh; Intel Mac OS X 10_15_7) AppleWebKit/537.36 (KHTML, like Gecko) Chrome/98.0.4758.102 Safari/537.36",1440,900,1440,738,main,1703328,11,16,10,9,HM,Moderate,Harder than Reference,D,k,riskyDeck,safeDeck,0,14,7,left,1,0,32,absent,riskyDeck,4975,2054
u6792nlm4u8,13431,28/03/2022@09:59:30,"Mozilla/5.0 (Macintosh; Intel Mac OS X 10_15_7) AppleWebKit/537.36 (KHTML, like Gecko) Chrome/98.0.4758.102 Safari/537.36",1440,900,1440,738,main,1703328,11,17,10,9,HM,Moderate,Harder than Reference,D,k,riskyDeck,safeDeck,0,14,7,left,1,0,32,absent,riskyDeck,4975,1593
u6792nlm4u8,13431,28/03/2022@09:59:30,"Mozilla/5.0 (Macintosh; Intel Mac OS X 10_15_7) AppleWebKit/537.36 (KHTML, like Gecko) Chrome/98.0.4758.102 Safari/537.36",1440,900,1440,738,main,1703328,12,1,10,10,HE,Extreme,Harder than Reference,F,k,safeDeck,riskyDeck,0,28,14,right,1,0,60,absent,riskyDeck,1868,2387
u6792nlm4u8,13431,28/03/2022@09:59:30,"Mozilla/5.0 (Macintosh; Intel Mac OS X 10_15_7) AppleWebKit/537.36 (KHTML, like Gecko) Chrome/98.0.4758.102 Safari/537.36",1440,900,1440,738,main,1703328,12,2,10,10,HE,Extreme,Harder than Reference,F,k,safeDeck,riskyDeck,0,28,14,right,1,0,60,absent,riskyDeck,1868,3057
u6792nlm4u8,13431,28/03/2022@09:59:30,"Mozilla/5.0 (Macintosh; Intel Mac OS X 10_15_7) AppleWebKit/537.36 (KHTML, like Gecko) Chrome/98.0.4758.102 Safari/537.36",1440,900,1440,738,main,1703328,12,3,11,10,HE,Extreme,Harder than Reference,F,k,safeDeck,riskyDeck,0,28,14,right,1,0,60,absent,riskyDeck,1868,1963
u6792nlm4u8,13431,28/03/2022@09:59:30,"Mozilla/5.0 (Macintosh; Intel Mac OS X 10_15_7) AppleWebKit/537.36 (KHTML, like Gecko) Chrome/98.0.4758.102 Safari/537.36",1440,900,1440,738,main,1703328,12,4,11,10,HE,Extreme,Harder than Reference,F,j,safeDeck,riskyDeck,0,28,14,right,1,0,60,present,riskyDeck,1868,2377
u6792nlm4u8,13431,28/03/2022@09:59:30,"Mozilla/5.0 (Macintosh; Intel Mac OS X 10_15_7) AppleWebKit/537.36 (KHTML, like Gecko) Chrome/98.0.4758.102 Safari/537.36",1440,900,1440,738,main,1703328,12,5,11,10,HE,Extreme,Harder than Reference,F,j,safeDeck,riskyDeck,0,28,14,right,1,0,60,present,riskyDeck,1868,2911
u6792nlm4u8,13431,28/03/2022@09:59:30,"Mozilla/5.0 (Macintosh; Intel Mac OS X 10_15_7) AppleWebKit/537.36 (KHTML, like Gecko) Chrome/98.0.4758.102 Safari/537.36",1440,900,1440,738,main,1703328,12,6,11,10,HE,Extreme,Harder than Reference,F,k,safeDeck,riskyDeck,0,28,14,right,1,0,60,absent,riskyDeck,1868,4002
u6792nlm4u8,13431,28/03/2022@09:59:30,"Mozilla/5.0 (Macintosh; Intel Mac OS X 10_15_7) AppleWebKit/537.36 (KHTML, like Gecko) Chrome/98.0.4758.102 Safari/537.36",1440,900,1440,738,main,1703328,12,7,11,10,HE,Extreme,Harder than Reference,F,k,safeDeck,riskyDeck,0,28,14,right,1,0,60,absent,riskyDeck,1868,1580
u6792nlm4u8,13431,28/03/2022@09:59:30,"Mozilla/5.0 (Macintosh; Intel Mac OS X 10_15_7) AppleWebKit/537.36 (KHTML, like Gecko) Chrome/98.0.4758.102 Safari/537.36",1440,900,1440,738,main,1703328,12,8,11,10,HE,Extreme,Harder than Reference,F,j,safeDeck,riskyDeck,0,28,14,right,1,0,60,present,riskyDeck,1868,1084
u6792nlm4u8,13431,28/03/2022@09:59:30,"Mozilla/5.0 (Macintosh; Intel Mac OS X 10_15_7) AppleWebKit/537.36 (KHTML, like Gecko) Chrome/98.0.4758.102 Safari/537.36",1440,900,1440,738,main,1703328,12,9,11,10,HE,Extreme,Harder than Reference,F,j,safeDeck,riskyDeck,0,28,14,right,1,0,60,present,riskyDeck,1868,1410
u6792nlm4u8,13431,28/03/2022@09:59:30,"Mozilla/5.0 (Macintosh; Intel Mac OS X 10_15_7) AppleWebKit/537.36 (KHTML, like Gecko) Chrome/98.0.4758.102 Safari/537.36",1440,900,1440,738,main,1703328,12,10,11,10,HE,Extreme,Harder than Reference,F,j,safeDeck,riskyDeck,0,28,14,right,1,0,60,present,riskyDeck,1868,2907
u6792nlm4u8,13431,28/03/2022@09:59:30,"Mozilla/5.0 (Macintosh; Intel Mac OS X 10_15_7) AppleWebKit/537.36 (KHTML, like Gecko) Chrome/98.0.4758.102 Safari/537.36",1440,900,1440,738,main,1703328,12,11,11,10,HE,Extreme,Harder than Reference,F,k,safeDeck,riskyDeck,0,28,14,right,1,0,60,absent,riskyDeck,1868,2967
u6792nlm4u8,13431,28/03/2022@09:59:30,"Mozilla/5.0 (Macintosh; Intel Mac OS X 10_15_7) AppleWebKit/537.36 (KHTML, like Gecko) Chrome/98.0.4758.102 Safari/537.36",1440,900,1440,738,main,1703328,12,12,11,10,HE,Extreme,Harder than Reference,F,k,safeDeck,riskyDeck,0,28,14,right,1,0,60,absent,riskyDeck,1868,2670
u6792nlm4u8,13431,28/03/2022@09:59:30,"Mozilla/5.0 (Macintosh; Intel Mac OS X 10_15_7) AppleWebKit/537.36 (KHTML, like Gecko) Chrome/98.0.4758.102 Safari/537.36",1440,900,1440,738,main,1703328,12,13,11,10,HE,Extreme,Harder than Reference,F,j,safeDeck,riskyDeck,0,28,14,right,1,0,60,present,riskyDeck,1868,1172
u6792nlm4u8,13431,28/03/2022@09:59:30,"Mozilla/5.0 (Macintosh; Intel Mac OS X 10_15_7) AppleWebKit/537.36 (KHTML, like Gecko) Chrome/98.0.4758.102 Safari/537.36",1440,900,1440,738,main,1703328,12,14,11,10,HE,Extreme,Harder than Reference,F,k,safeDeck,riskyDeck,0,28,14,right,1,0,60,absent,riskyDeck,1868,4399
u6792nlm4u8,13431,28/03/2022@09:59:30,"Mozilla/5.0 (Macintosh; Intel Mac OS X 10_15_7) AppleWebKit/537.36 (KHTML, like Gecko) Chrome/98.0.4758.102 Safari/537.36",1440,900,1440,738,main,1703328,12,15,11,10,HE,Extreme,Harder than Reference,F,k,safeDeck,riskyDeck,0,28,14,right,1,0,60,absent,riskyDeck,1868,4260
u6792nlm4u8,13431,28/03/2022@09:59:30,"Mozilla/5.0 (Macintosh; Intel Mac OS X 10_15_7) AppleWebKit/537.36 (KHTML, like Gecko) Chrome/98.0.4758.102 Safari/537.36",1440,900,1440,738,main,1703328,12,16,11,10,HE,Extreme,Harder than Reference,F,k,safeDeck,riskyDeck,0,28,14,right,1,1,60,present,riskyDeck,1868,1978
u6792nlm4u8,13431,28/03/2022@09:59:30,"Mozilla/5.0 (Macintosh; Intel Mac OS X 10_15_7) AppleWebKit/537.36 (KHTML, like Gecko) Chrome/98.0.4758.102 Safari/537.36",1440,900,1440,738,main,1703328,12,17,11,10,HE,Extreme,Harder than Reference,F,k,safeDeck,riskyDeck,0,28,14,right,1,0,60,absent,riskyDeck,1868,3116
u6792nlm4u8,13431,28/03/2022@09:59:30,"Mozilla/5.0 (Macintosh; Intel Mac OS X 10_15_7) AppleWebKit/537.36 (KHTML, like Gecko) Chrome/98.0.4758.102 Safari/537.36",1440,900,1440,738,main,1703328,13,1,11,10,EM,Moderate,Easier than Reference,D,j,riskyDeck,safeDeck,0,-28,-14,left,1,0,4,present,riskyDeck,1517,2569
u6792nlm4u8,13431,28/03/2022@09:59:30,"Mozilla/5.0 (Macintosh; Intel Mac OS X 10_15_7) AppleWebKit/537.36 (KHTML, like Gecko) Chrome/98.0.4758.102 Safari/537.36",1440,900,1440,738,main,1703328,13,2,11,10,EM,Moderate,Easier than Reference,D,j,riskyDeck,safeDeck,0,-28,-14,left,1,0,4,present,riskyDeck,1517,720
u6792nlm4u8,13431,28/03/2022@09:59:30,"Mozilla/5.0 (Macintosh; Intel Mac OS X 10_15_7) AppleWebKit/537.36 (KHTML, like Gecko) Chrome/98.0.4758.102 Safari/537.36",1440,900,1440,738,main,1703328,13,3,11,10,EM,Moderate,Easier than Reference,D,k,riskyDeck,safeDeck,0,-28,-14,left,1,0,4,absent,riskyDeck,1517,925
u6792nlm4u8,13431,28/03/2022@09:59:30,"Mozilla/5.0 (Macintosh; Intel Mac OS X 10_15_7) AppleWebKit/537.36 (KHTML, like Gecko) Chrome/98.0.4758.102 Safari/537.36",1440,900,1440,738,main,1703328,13,4,11,10,EM,Moderate,Easier than Reference,D,k,riskyDeck,safeDeck,0,-28,-14,left,1,0,4,absent,riskyDeck,1517,1122
u6792nlm4u8,13431,28/03/2022@09:59:30,"Mozilla/5.0 (Macintosh; Intel Mac OS X 10_15_7) AppleWebKit/537.36 (KHTML, like Gecko) Chrome/98.0.4758.102 Safari/537.36",1440,900,1440,738,main,1703328,13,5,11,10,EM,Moderate,Easier than Reference,D,k,riskyDeck,safeDeck,0,-28,-14,left,1,0,4,absent,riskyDeck,1517,591
u6792nlm4u8,13431,28/03/2022@09:59:30,"Mozilla/5.0 (Macintosh; Intel Mac OS X 10_15_7) AppleWebKit/537.36 (KHTML, like Gecko) Chrome/98.0.4758.102 Safari/537.36",1440,900,1440,738,main,1703328,13,6,11,11,EM,Moderate,Easier than Reference,D,k,riskyDeck,safeDeck,0,-28,-14,left,1,0,4,absent,riskyDeck,1517,621
u6792nlm4u8,13431,28/03/2022@09:59:30,"Mozilla/5.0 (Macintosh; Intel Mac OS X 10_15_7) AppleWebKit/537.36 (KHTML, like Gecko) Chrome/98.0.4758.102 Safari/537.36",1440,900,1440,738,main,1703328,13,7,11,11,EM,Moderate,Easier than Reference,D,k,riskyDeck,safeDeck,0,-28,-14,left,1,0,4,absent,riskyDeck,1517,627
u6792nlm4u8,13431,28/03/2022@09:59:30,"Mozilla/5.0 (Macintosh; Intel Mac OS X 10_15_7) AppleWebKit/537.36 (KHTML, like Gecko) Chrome/98.0.4758.102 Safari/537.36",1440,900,1440,738,main,1703328,13,8,11,11,EM,Moderate,Easier than Reference,D,j,riskyDeck,safeDeck,0,-28,-14,left,1,0,4,present,riskyDeck,1517,743
u6792nlm4u8,13431,28/03/2022@09:59:30,"Mozilla/5.0 (Macintosh; Intel Mac OS X 10_15_7) AppleWebKit/537.36 (KHTML, like Gecko) Chrome/98.0.4758.102 Safari/537.36",1440,900,1440,738,main,1703328,13,9,11,11,EM,Moderate,Easier than Reference,D,j,riskyDeck,safeDeck,0,-28,-14,left,1,0,4,present,riskyDeck,1517,778
u6792nlm4u8,13431,28/03/2022@09:59:30,"Mozilla/5.0 (Macintosh; Intel Mac OS X 10_15_7) AppleWebKit/537.36 (KHTML, like Gecko) Chrome/98.0.4758.102 Safari/537.36",1440,900,1440,738,main,1703328,13,10,12,11,EM,Moderate,Easier than Reference,D,j,riskyDeck,safeDeck,0,-28,-14,left,1,0,4,present,riskyDeck,1517,603
u6792nlm4u8,13431,28/03/2022@09:59:30,"Mozilla/5.0 (Macintosh; Intel Mac OS X 10_15_7) AppleWebKit/537.36 (KHTML, like Gecko) Chrome/98.0.4758.102 Safari/537.36",1440,900,1440,738,main,1703328,13,11,12,11,EM,Moderate,Easier than Reference,D,k,riskyDeck,safeDeck,0,-28,-14,left,1,0,4,absent,riskyDeck,1517,794
u6792nlm4u8,13431,28/03/2022@09:59:30,"Mozilla/5.0 (Macintosh; Intel Mac OS X 10_15_7) AppleWebKit/537.36 (KHTML, like Gecko) Chrome/98.0.4758.102 Safari/537.36",1440,900,1440,738,main,1703328,13,12,12,11,EM,Moderate,Easier than Reference,D,k,riskyDeck,safeDeck,0,-28,-14,left,1,0,4,absent,riskyDeck,1517,698
u6792nlm4u8,13431,28/03/2022@09:59:30,"Mozilla/5.0 (Macintosh; Intel Mac OS X 10_15_7) AppleWebKit/537.36 (KHTML, like Gecko) Chrome/98.0.4758.102 Safari/537.36",1440,900,1440,738,main,1703328,13,13,12,11,EM,Moderate,Easier than Reference,D,j,riskyDeck,safeDeck,0,-28,-14,left,1,0,4,present,riskyDeck,1517,1205
u6792nlm4u8,13431,28/03/2022@09:59:30,"Mozilla/5.0 (Macintosh; Intel Mac OS X 10_15_7) AppleWebKit/537.36 (KHTML, like Gecko) Chrome/98.0.4758.102 Safari/537.36",1440,900,1440,738,main,1703328,13,14,12,11,EM,Moderate,Easier than Reference,D,j,riskyDeck,safeDeck,0,-28,-14,left,1,0,4,present,riskyDeck,1517,880
u6792nlm4u8,13431,28/03/2022@09:59:30,"Mozilla/5.0 (Macintosh; Intel Mac OS X 10_15_7) AppleWebKit/537.36 (KHTML, like Gecko) Chrome/98.0.4758.102 Safari/537.36",1440,900,1440,738,main,1703328,13,15,12,11,EM,Moderate,Easier than Reference,D,j,riskyDeck,safeDeck,0,-28,-14,left,1,0,4,present,riskyDeck,1517,924
u6792nlm4u8,13431,28/03/2022@09:59:30,"Mozilla/5.0 (Macintosh; Intel Mac OS X 10_15_7) AppleWebKit/537.36 (KHTML, like Gecko) Chrome/98.0.4758.102 Safari/537.36",1440,900,1440,738,main,1703328,13,16,12,11,EM,Moderate,Easier than Reference,D,k,riskyDeck,safeDeck,0,-28,-14,left,1,0,4,absent,riskyDeck,1517,786
u6792nlm4u8,13431,28/03/2022@09:59:30,"Mozilla/5.0 (Macintosh; Intel Mac OS X 10_15_7) AppleWebKit/537.36 (KHTML, like Gecko) Chrome/98.0.4758.102 Safari/537.36",1440,900,1440,738,main,1703328,13,17,12,11,EM,Moderate,Easier than Reference,D,j,riskyDeck,safeDeck,0,-28,-14,left,1,0,4,present,riskyDeck,1517,745
u6792nlm4u8,13431,28/03/2022@09:59:30,"Mozilla/5.0 (Macintosh; Intel Mac OS X 10_15_7) AppleWebKit/537.36 (KHTML, like Gecko) Chrome/98.0.4758.102 Safari/537.36",1440,900,1440,738,main,1703328,14,1,12,11,HE,Extreme,Harder than Reference,D,j,riskyDeck,safeDeck,0,28,14,left,1,0,32,present,riskyDeck,1988,1939
u6792nlm4u8,13431,28/03/2022@09:59:30,"Mozilla/5.0 (Macintosh; Intel Mac OS X 10_15_7) AppleWebKit/537.36 (KHTML, like Gecko) Chrome/98.0.4758.102 Safari/537.36",1440,900,1440,738,main,1703328,14,2,12,11,HE,Extreme,Harder than Reference,D,j,riskyDeck,safeDeck,0,28,14,left,1,0,32,present,riskyDeck,1988,1562
u6792nlm4u8,13431,28/03/2022@09:59:30,"Mozilla/5.0 (Macintosh; Intel Mac OS X 10_15_7) AppleWebKit/537.36 (KHTML, like Gecko) Chrome/98.0.4758.102 Safari/537.36",1440,900,1440,738,main,1703328,14,3,12,11,HE,Extreme,Harder than Reference,D,k,riskyDeck,safeDeck,0,28,14,left,1,0,32,absent,riskyDeck,1988,1784
u6792nlm4u8,13431,28/03/2022@09:59:30,"Mozilla/5.0 (Macintosh; Intel Mac OS X 10_15_7) AppleWebKit/537.36 (KHTML, like Gecko) Chrome/98.0.4758.102 Safari/537.36",1440,900,1440,738,main,1703328,14,4,12,11,HE,Extreme,Harder than Reference,D,k,riskyDeck,safeDeck,0,28,14,left,1,0,32,absent,riskyDeck,1988,1755
u6792nlm4u8,13431,28/03/2022@09:59:30,"Mozilla/5.0 (Macintosh; Intel Mac OS X 10_15_7) AppleWebKit/537.36 (KHTML, like Gecko) Chrome/98.0.4758.102 Safari/537.36",1440,900,1440,738,main,1703328,14,5,12,11,HE,Extreme,Harder than Reference,D,k,riskyDeck,safeDeck,0,28,14,left,1,0,32,absent,riskyDeck,1988,1057
u6792nlm4u8,13431,28/03/2022@09:59:30,"Mozilla/5.0 (Macintosh; Intel Mac OS X 10_15_7) AppleWebKit/537.36 (KHTML, like Gecko) Chrome/98.0.4758.102 Safari/537.36",1440,900,1440,738,main,1703328,14,6,12,11,HE,Extreme,Harder than Reference,D,k,riskyDeck,safeDeck,0,28,14,left,1,0,32,absent,riskyDeck,1988,1968
u6792nlm4u8,13431,28/03/2022@09:59:30,"Mozilla/5.0 (Macintosh; Intel Mac OS X 10_15_7) AppleWebKit/537.36 (KHTML, like Gecko) Chrome/98.0.4758.102 Safari/537.36",1440,900,1440,738,main,1703328,14,7,12,11,HE,Extreme,Harder than Reference,D,k,riskyDeck,safeDeck,0,28,14,left,1,0,32,absent,riskyDeck,1988,2020
u6792nlm4u8,13431,28/03/2022@09:59:30,"Mozilla/5.0 (Macintosh; Intel Mac OS X 10_15_7) AppleWebKit/537.36 (KHTML, like Gecko) Chrome/98.0.4758.102 Safari/537.36",1440,900,1440,738,main,1703328,14,8,12,11,HE,Extreme,Harder than Reference,D,j,riskyDeck,safeDeck,0,28,14,left,1,0,32,present,riskyDeck,1988,1208
u6792nlm4u8,13431,28/03/2022@09:59:30,"Mozilla/5.0 (Macintosh; Intel Mac OS X 10_15_7) AppleWebKit/537.36 (KHTML, like Gecko) Chrome/98.0.4758.102 Safari/537.36",1440,900,1440,738,main,1703328,14,9,12,11,HE,Extreme,Harder than Reference,D,k,riskyDeck,safeDeck,0,28,14,left,1,0,32,absent,riskyDeck,1988,2833
u6792nlm4u8,13431,28/03/2022@09:59:30,"Mozilla/5.0 (Macintosh; Intel Mac OS X 10_15_7) AppleWebKit/537.36 (KHTML, like Gecko) Chrome/98.0.4758.102 Safari/537.36",1440,900,1440,738,main,1703328,14,10,12,11,HE,Extreme,Harder than Reference,D,k,riskyDeck,safeDeck,0,28,14,left,1,0,32,absent,riskyDeck,1988,2351
u6792nlm4u8,13431,28/03/2022@09:59:30,"Mozilla/5.0 (Macintosh; Intel Mac OS X 10_15_7) AppleWebKit/537.36 (KHTML, like Gecko) Chrome/98.0.4758.102 Safari/537.36",1440,900,1440,738,main,1703328,14,11,12,11,HE,Extreme,Harder than Reference,D,j,riskyDeck,safeDeck,0,28,14,left,1,0,32,present,riskyDeck,1988,1362
u6792nlm4u8,13431,28/03/2022@09:59:30,"Mozilla/5.0 (Macintosh; Intel Mac OS X 10_15_7) AppleWebKit/537.36 (KHTML, like Gecko) Chrome/98.0.4758.102 Safari/537.36",1440,900,1440,738,main,1703328,14,12,12,11,HE,Extreme,Harder than Reference,D,k,riskyDeck,safeDeck,0,28,14,left,1,0,32,absent,riskyDeck,1988,1857
u6792nlm4u8,13431,28/03/2022@09:59:30,"Mozilla/5.0 (Macintosh; Intel Mac OS X 10_15_7) AppleWebKit/537.36 (KHTML, like Gecko) Chrome/98.0.4758.102 Safari/537.36",1440,900,1440,738,main,1703328,14,13,12,11,HE,Extreme,Harder than Reference,D,k,riskyDeck,safeDeck,0,28,14,left,1,0,32,absent,riskyDeck,1988,1712
u6792nlm4u8,13431,28/03/2022@09:59:30,"Mozilla/5.0 (Macintosh; Intel Mac OS X 10_15_7) AppleWebKit/537.36 (KHTML, like Gecko) Chrome/98.0.4758.102 Safari/537.36",1440,900,1440,738,main,1703328,14,14,12,11,HE,Extreme,Harder than Reference,D,k,riskyDeck,safeDeck,0,28,14,left,1,0,32,absent,riskyDeck,1988,1596
u6792nlm4u8,13431,28/03/2022@09:59:30,"Mozilla/5.0 (Macintosh; Intel Mac OS X 10_15_7) AppleWebKit/537.36 (KHTML, like Gecko) Chrome/98.0.4758.102 Safari/537.36",1440,900,1440,738,main,1703328,14,15,12,11,HE,Extreme,Harder than Reference,D,j,riskyDeck,safeDeck,0,28,14,left,1,0,32,present,riskyDeck,1988,2724
u6792nlm4u8,13431,28/03/2022@09:59:30,"Mozilla/5.0 (Macintosh; Intel Mac OS X 10_15_7) AppleWebKit/537.36 (KHTML, like Gecko) Chrome/98.0.4758.102 Safari/537.36",1440,900,1440,738,main,1703328,14,16,12,11,HE,Extreme,Harder than Reference,D,k,riskyDeck,safeDeck,0,28,14,left,1,0,32,absent,riskyDeck,1988,3226
u6792nlm4u8,13431,28/03/2022@09:59:30,"Mozilla/5.0 (Macintosh; Intel Mac OS X 10_15_7) AppleWebKit/537.36 (KHTML, like Gecko) Chrome/98.0.4758.102 Safari/537.36",1440,900,1440,738,main,1703328,14,17,12,11,HE,Extreme,Harder than Reference,D,k,riskyDeck,safeDeck,0,28,14,left,1,0,32,absent,riskyDeck,1988,3207
u6792nlm4u8,13431,28/03/2022@09:59:30,"Mozilla/5.0 (Macintosh; Intel Mac OS X 10_15_7) AppleWebKit/537.36 (KHTML, like Gecko) Chrome/98.0.4758.102 Safari/537.36",1440,900,1440,738,main,1703328,15,1,13,12,EE,Extreme,Easier than Reference,D,k,safeDeck,riskyDeck,-14,0,-7,left,0,0,25,absent,safeDeck,4364,2110
u6792nlm4u8,13431,28/03/2022@09:59:30,"Mozilla/5.0 (Macintosh; Intel Mac OS X 10_15_7) AppleWebKit/537.36 (KHTML, like Gecko) Chrome/98.0.4758.102 Safari/537.36",1440,900,1440,738,main,1703328,15,2,13,12,EE,Extreme,Easier than Reference,D,k,safeDeck,riskyDeck,-14,0,-7,left,0,0,25,absent,safeDeck,4364,1702
u6792nlm4u8,13431,28/03/2022@09:59:30,"Mozilla/5.0 (Macintosh; Intel Mac OS X 10_15_7) AppleWebKit/537.36 (KHTML, like Gecko) Chrome/98.0.4758.102 Safari/537.36",1440,900,1440,738,main,1703328,15,3,13,12,EE,Extreme,Easier than Reference,D,k,safeDeck,riskyDeck,-14,0,-7,left,0,0,25,absent,safeDeck,4364,2858
u6792nlm4u8,13431,28/03/2022@09:59:30,"Mozilla/5.0 (Macintosh; Intel Mac OS X 10_15_7) AppleWebKit/537.36 (KHTML, like Gecko) Chrome/98.0.4758.102 Safari/537.36",1440,900,1440,738,main,1703328,15,4,13,12,EE,Extreme,Easier than Reference,D,j,safeDeck,riskyDeck,-14,0,-7,left,0,0,25,present,safeDeck,4364,1388
u6792nlm4u8,13431,28/03/2022@09:59:30,"Mozilla/5.0 (Macintosh; Intel Mac OS X 10_15_7) AppleWebKit/537.36 (KHTML, like Gecko) Chrome/98.0.4758.102 Safari/537.36",1440,900,1440,738,main,1703328,15,5,13,12,EE,Extreme,Easier than Reference,D,k,safeDeck,riskyDeck,-14,0,-7,left,0,0,25,absent,safeDeck,4364,1794
u6792nlm4u8,13431,28/03/2022@09:59:30,"Mozilla/5.0 (Macintosh; Intel Mac OS X 10_15_7) AppleWebKit/537.36 (KHTML, like Gecko) Chrome/98.0.4758.102 Safari/537.36",1440,900,1440,738,main,1703328,15,6,13,12,EE,Extreme,Easier than Reference,D,k,safeDeck,riskyDeck,-14,0,-7,left,0,0,25,absent,safeDeck,4364,1311
u6792nlm4u8,13431,28/03/2022@09:59:30,"Mozilla/5.0 (Macintosh; Intel Mac OS X 10_15_7) AppleWebKit/537.36 (KHTML, like Gecko) Chrome/98.0.4758.102 Safari/537.36",1440,900,1440,738,main,1703328,15,7,13,12,EE,Extreme,Easier than Reference,D,j,safeDeck,riskyDeck,-14,0,-7,left,0,0,25,present,safeDeck,4364,1216
u6792nlm4u8,13431,28/03/2022@09:59:30,"Mozilla/5.0 (Macintosh; Intel Mac OS X 10_15_7) AppleWebKit/537.36 (KHTML, like Gecko) Chrome/98.0.4758.102 Safari/537.36",1440,900,1440,738,main,1703328,15,8,13,12,EE,Extreme,Easier than Reference,D,k,safeDeck,riskyDeck,-14,0,-7,left,0,0,25,absent,safeDeck,4364,883
u6792nlm4u8,13431,28/03/2022@09:59:30,"Mozilla/5.0 (Macintosh; Intel Mac OS X 10_15_7) AppleWebKit/537.36 (KHTML, like Gecko) Chrome/98.0.4758.102 Safari/537.36",1440,900,1440,738,main,1703328,15,9,13,12,EE,Extreme,Easier than Reference,D,k,safeDeck,riskyDeck,-14,0,-7,left,0,0,25,absent,safeDeck,4364,873
u6792nlm4u8,13431,28/03/2022@09:59:30,"Mozilla/5.0 (Macintosh; Intel Mac OS X 10_15_7) AppleWebKit/537.36 (KHTML, like Gecko) Chrome/98.0.4758.102 Safari/537.36",1440,900,1440,738,main,1703328,15,10,13,12,EE,Extreme,Easier than Reference,D,k,safeDeck,riskyDeck,-14,0,-7,left,0,0,25,absent,safeDeck,4364,1211
u6792nlm4u8,13431,28/03/2022@09:59:30,"Mozilla/5.0 (Macintosh; Intel Mac OS X 10_15_7) AppleWebKit/537.36 (KHTML, like Gecko) Chrome/98.0.4758.102 Safari/537.36",1440,900,1440,738,main,1703328,15,11,13,12,EE,Extreme,Easier than Reference,D,j,safeDeck,riskyDeck,-14,0,-7,left,0,0,25,present,safeDeck,4364,959
u6792nlm4u8,13431,28/03/2022@09:59:30,"Mozilla/5.0 (Macintosh; Intel Mac OS X 10_15_7) AppleWebKit/537.36 (KHTML, like Gecko) Chrome/98.0.4758.102 Safari/537.36",1440,900,1440,738,main,1703328,15,12,13,12,EE,Extreme,Easier than Reference,D,j,safeDeck,riskyDeck,-14,0,-7,left,0,0,25,present,safeDeck,4364,964
u6792nlm4u8,13431,28/03/2022@09:59:30,"Mozilla/5.0 (Macintosh; Intel Mac OS X 10_15_7) AppleWebKit/537.36 (KHTML, like Gecko) Chrome/98.0.4758.102 Safari/537.36",1440,900,1440,738,main,1703328,15,13,13,12,EE,Extreme,Easier than Reference,D,k,safeDeck,riskyDeck,-14,0,-7,left,0,1,25,present,safeDeck,4364,2205
u6792nlm4u8,13431,28/03/2022@09:59:30,"Mozilla/5.0 (Macintosh; Intel Mac OS X 10_15_7) AppleWebKit/537.36 (KHTML, like Gecko) Chrome/98.0.4758.102 Safari/537.36",1440,900,1440,738,main,1703328,15,14,13,12,EE,Extreme,Easier than Reference,D,k,safeDeck,riskyDeck,-14,0,-7,left,0,0,25,absent,safeDeck,4364,1139
u6792nlm4u8,13431,28/03/2022@09:59:30,"Mozilla/5.0 (Macintosh; Intel Mac OS X 10_15_7) AppleWebKit/537.36 (KHTML, like Gecko) Chrome/98.0.4758.102 Safari/537.36",1440,900,1440,738,main,1703328,15,15,13,12,EE,Extreme,Easier than Reference,D,k,safeDeck,riskyDeck,-14,0,-7,left,0,0,25,absent,safeDeck,4364,1787
u6792nlm4u8,13431,28/03/2022@09:59:30,"Mozilla/5.0 (Macintosh; Intel Mac OS X 10_15_7) AppleWebKit/537.36 (KHTML, like Gecko) Chrome/98.0.4758.102 Safari/537.36",1440,900,1440,738,main,1703328,15,16,13,12,EE,Extreme,Easier than Reference,D,k,safeDeck,riskyDeck,-14,0,-7,left,0,0,25,absent,safeDeck,4364,2217
u6792nlm4u8,13431,28/03/2022@09:59:30,"Mozilla/5.0 (Macintosh; Intel Mac OS X 10_15_7) AppleWebKit/537.36 (KHTML, like Gecko) Chrome/98.0.4758.102 Safari/537.36",1440,900,1440,738,main,1703328,15,17,13,12,EE,Extreme,Easier than Reference,D,j,safeDeck,riskyDeck,-14,0,-7,left,0,0,25,present,safeDeck,4364,1232
u6792nlm4u8,13431,28/03/2022@09:59:30,"Mozilla/5.0 (Macintosh; Intel Mac OS X 10_15_7) AppleWebKit/537.36 (KHTML, like Gecko) Chrome/98.0.4758.102 Safari/537.36",1440,900,1440,738,main,1703328,16,1,13,12,HM,Moderate,Harder than Reference,D,k,riskyDeck,safeDeck,0,14,7,left,1,0,32,absent,riskyDeck,1685,980
u6792nlm4u8,13431,28/03/2022@09:59:30,"Mozilla/5.0 (Macintosh; Intel Mac OS X 10_15_7) AppleWebKit/537.36 (KHTML, like Gecko) Chrome/98.0.4758.102 Safari/537.36",1440,900,1440,738,main,1703328,16,2,13,12,HM,Moderate,Harder than Reference,D,k,riskyDeck,safeDeck,0,14,7,left,1,0,32,absent,riskyDeck,1685,2205
u6792nlm4u8,13431,28/03/2022@09:59:30,"Mozilla/5.0 (Macintosh; Intel Mac OS X 10_15_7) AppleWebKit/537.36 (KHTML, like Gecko) Chrome/98.0.4758.102 Safari/537.36",1440,900,1440,738,main,1703328,16,3,13,12,HM,Moderate,Harder than Reference,D,k,riskyDeck,safeDeck,0,14,7,left,1,0,32,absent,riskyDeck,1685,1123
u6792nlm4u8,13431,28/03/2022@09:59:30,"Mozilla/5.0 (Macintosh; Intel Mac OS X 10_15_7) AppleWebKit/537.36 (KHTML, like Gecko) Chrome/98.0.4758.102 Safari/537.36",1440,900,1440,738,main,1703328,16,4,13,12,HM,Moderate,Harder than Reference,D,k,riskyDeck,safeDeck,0,14,7,left,1,0,32,absent,riskyDeck,1685,877
u6792nlm4u8,13431,28/03/2022@09:59:30,"Mozilla/5.0 (Macintosh; Intel Mac OS X 10_15_7) AppleWebKit/537.36 (KHTML, like Gecko) Chrome/98.0.4758.102 Safari/537.36",1440,900,1440,738,main,1703328,16,5,13,12,HM,Moderate,Harder than Reference,D,k,riskyDeck,safeDeck,0,14,7,left,1,0,32,absent,riskyDeck,1685,818
u6792nlm4u8,13431,28/03/2022@09:59:30,"Mozilla/5.0 (Macintosh; Intel Mac OS X 10_15_7) AppleWebKit/537.36 (KHTML, like Gecko) Chrome/98.0.4758.102 Safari/537.36",1440,900,1440,738,main,1703328,16,6,13,12,HM,Moderate,Harder than Reference,D,k,riskyDeck,safeDeck,0,14,7,left,1,0,32,absent,riskyDeck,1685,909
u6792nlm4u8,13431,28/03/2022@09:59:30,"Mozilla/5.0 (Macintosh; Intel Mac OS X 10_15_7) AppleWebKit/537.36 (KHTML, like Gecko) Chrome/98.0.4758.102 Safari/537.36",1440,900,1440,738,main,1703328,16,7,13,12,HM,Moderate,Harder than Reference,D,k,riskyDeck,safeDeck,0,14,7,left,1,0,32,absent,riskyDeck,1685,1044
u6792nlm4u8,13431,28/03/2022@09:59:30,"Mozilla/5.0 (Macintosh; Intel Mac OS X 10_15_7) AppleWebKit/537.36 (KHTML, like Gecko) Chrome/98.0.4758.102 Safari/537.36",1440,900,1440,738,main,1703328,16,8,13,12,HM,Moderate,Harder than Reference,D,j,riskyDeck,safeDeck,0,14,7,left,1,0,32,present,riskyDeck,1685,1058
u6792nlm4u8,13431,28/03/2022@09:59:30,"Mozilla/5.0 (Macintosh; Intel Mac OS X 10_15_7) AppleWebKit/537.36 (KHTML, like Gecko) Chrome/98.0.4758.102 Safari/537.36",1440,900,1440,738,main,1703328,16,9,13,12,HM,Moderate,Harder than Reference,D,k,riskyDeck,safeDeck,0,14,7,left,1,0,32,absent,riskyDeck,1685,1684
u6792nlm4u8,13431,28/03/2022@09:59:30,"Mozilla/5.0 (Macintosh; Intel Mac OS X 10_15_7) AppleWebKit/537.36 (KHTML, like Gecko) Chrome/98.0.4758.102 Safari/537.36",1440,900,1440,738,main,1703328,16,10,13,12,HM,Moderate,Harder than Reference,D,j,riskyDeck,safeDeck,0,14,7,left,1,0,32,present,riskyDeck,1685,801
u6792nlm4u8,13431,28/03/2022@09:59:30,"Mozilla/5.0 (Macintosh; Intel Mac OS X 10_15_7) AppleWebKit/537.36 (KHTML, like Gecko) Chrome/98.0.4758.102 Safari/537.36",1440,900,1440,738,main,1703328,16,11,13,12,HM,Moderate,Harder than Reference,D,k,riskyDeck,safeDeck,0,14,7,left,1,1,32,present,riskyDeck,1685,1225
u6792nlm4u8,13431,28/03/2022@09:59:30,"Mozilla/5.0 (Macintosh; Intel Mac OS X 10_15_7) AppleWebKit/537.36 (KHTML, like Gecko) Chrome/98.0.4758.102 Safari/537.36",1440,900,1440,738,main,1703328,16,12,13,12,HM,Moderate,Harder than Reference,D,k,riskyDeck,safeDeck,0,14,7,left,1,0,32,absent,riskyDeck,1685,1546
u6792nlm4u8,13431,28/03/2022@09:59:30,"Mozilla/5.0 (Macintosh; Intel Mac OS X 10_15_7) AppleWebKit/537.36 (KHTML, like Gecko) Chrome/98.0.4758.102 Safari/537.36",1440,900,1440,738,main,1703328,16,13,13,12,HM,Moderate,Harder than Reference,D,k,riskyDeck,safeDeck,0,14,7,left,1,0,32,absent,riskyDeck,1685,1441
u6792nlm4u8,13431,28/03/2022@09:59:30,"Mozilla/5.0 (Macintosh; Intel Mac OS X 10_15_7) AppleWebKit/537.36 (KHTML, like Gecko) Chrome/98.0.4758.102 Safari/537.36",1440,900,1440,738,main,1703328,16,14,13,13,HM,Moderate,Harder than Reference,D,j,riskyDeck,safeDeck,0,14,7,left,1,0,32,present,riskyDeck,1685,1998
u6792nlm4u8,13431,28/03/2022@09:59:30,"Mozilla/5.0 (Macintosh; Intel Mac OS X 10_15_7) AppleWebKit/537.36 (KHTML, like Gecko) Chrome/98.0.4758.102 Safari/537.36",1440,900,1440,738,main,1703328,16,15,14,13,HM,Moderate,Harder than Reference,D,j,riskyDeck,safeDeck,0,14,7,left,1,0,32,present,riskyDeck,1685,1689
u6792nlm4u8,13431,28/03/2022@09:59:30,"Mozilla/5.0 (Macintosh; Intel Mac OS X 10_15_7) AppleWebKit/537.36 (KHTML, like Gecko) Chrome/98.0.4758.102 Safari/537.36",1440,900,1440,738,main,1703328,16,16,14,13,HM,Moderate,Harder than Reference,D,j,riskyDeck,safeDeck,0,14,7,left,1,0,32,present,riskyDeck,1685,1607
u6792nlm4u8,13431,28/03/2022@09:59:30,"Mozilla/5.0 (Macintosh; Intel Mac OS X 10_15_7) AppleWebKit/537.36 (KHTML, like Gecko) Chrome/98.0.4758.102 Safari/537.36",1440,900,1440,738,main,1703328,16,17,14,13,HM,Moderate,Harder than Reference,D,j,riskyDeck,safeDeck,0,14,7,left,1,0,32,present,riskyDeck,1685,1083
u6792nlm4u8,13431,28/03/2022@09:59:30,"Mozilla/5.0 (Macintosh; Intel Mac OS X 10_15_7) AppleWebKit/537.36 (KHTML, like Gecko) Chrome/98.0.4758.102 Safari/537.36",1440,900,1440,738,main,1703328,17,1,14,13,EE,Extreme,Easier than Reference,D,k,riskyDeck,safeDeck,0,-14,-7,left,1,0,18,absent,riskyDeck,1798,1632
u6792nlm4u8,13431,28/03/2022@09:59:30,"Mozilla/5.0 (Macintosh; Intel Mac OS X 10_15_7) AppleWebKit/537.36 (KHTML, like Gecko) Chrome/98.0.4758.102 Safari/537.36",1440,900,1440,738,main,1703328,17,2,14,13,EE,Extreme,Easier than Reference,D,j,riskyDeck,safeDeck,0,-14,-7,left,1,0,18,present,riskyDeck,1798,841
u6792nlm4u8,13431,28/03/2022@09:59:30,"Mozilla/5.0 (Macintosh; Intel Mac OS X 10_15_7) AppleWebKit/537.36 (KHTML, like Gecko) Chrome/98.0.4758.102 Safari/537.36",1440,900,1440,738,main,1703328,17,3,14,13,EE,Extreme,Easier than Reference,D,j,riskyDeck,safeDeck,0,-14,-7,left,1,0,18,present,riskyDeck,1798,753
u6792nlm4u8,13431,28/03/2022@09:59:30,"Mozilla/5.0 (Macintosh; Intel Mac OS X 10_15_7) AppleWebKit/537.36 (KHTML, like Gecko) Chrome/98.0.4758.102 Safari/537.36",1440,900,1440,738,main,1703328,17,4,14,13,EE,Extreme,Easier than Reference,D,k,riskyDeck,safeDeck,0,-14,-7,left,1,1,18,present,riskyDeck,1798,1255
u6792nlm4u8,13431,28/03/2022@09:59:30,"Mozilla/5.0 (Macintosh; Intel Mac OS X 10_15_7) AppleWebKit/537.36 (KHTML, like Gecko) Chrome/98.0.4758.102 Safari/537.36",1440,900,1440,738,main,1703328,17,5,14,13,EE,Extreme,Easier than Reference,D,k,riskyDeck,safeDeck,0,-14,-7,left,1,0,18,absent,riskyDeck,1798,1590
u6792nlm4u8,13431,28/03/2022@09:59:30,"Mozilla/5.0 (Macintosh; Intel Mac OS X 10_15_7) AppleWebKit/537.36 (KHTML, like Gecko) Chrome/98.0.4758.102 Safari/537.36",1440,900,1440,738,main,1703328,17,6,14,13,EE,Extreme,Easier than Reference,D,k,riskyDeck,safeDeck,0,-14,-7,left,1,0,18,absent,riskyDeck,1798,1840
u6792nlm4u8,13431,28/03/2022@09:59:30,"Mozilla/5.0 (Macintosh; Intel Mac OS X 10_15_7) AppleWebKit/537.36 (KHTML, like Gecko) Chrome/98.0.4758.102 Safari/537.36",1440,900,1440,738,main,1703328,17,7,14,13,EE,Extreme,Easier than Reference,D,j,riskyDeck,safeDeck,0,-14,-7,left,1,0,18,present,riskyDeck,1798,724
u6792nlm4u8,13431,28/03/2022@09:59:30,"Mozilla/5.0 (Macintosh; Intel Mac OS X 10_15_7) AppleWebKit/537.36 (KHTML, like Gecko) Chrome/98.0.4758.102 Safari/537.36",1440,900,1440,738,main,1703328,17,8,14,13,EE,Extreme,Easier than Reference,D,j,riskyDeck,safeDeck,0,-14,-7,left,1,0,18,present,riskyDeck,1798,610
u6792nlm4u8,13431,28/03/2022@09:59:30,"Mozilla/5.0 (Macintosh; Intel Mac OS X 10_15_7) AppleWebKit/537.36 (KHTML, like Gecko) Chrome/98.0.4758.102 Safari/537.36",1440,900,1440,738,main,1703328,17,9,14,13,EE,Extreme,Easier than Reference,D,k,riskyDeck,safeDeck,0,-14,-7,left,1,0,18,absent,riskyDeck,1798,1065
u6792nlm4u8,13431,28/03/2022@09:59:30,"Mozilla/5.0 (Macintosh; Intel Mac OS X 10_15_7) AppleWebKit/537.36 (KHTML, like Gecko) Chrome/98.0.4758.102 Safari/537.36",1440,900,1440,738,main,1703328,17,10,14,13,EE,Extreme,Easier than Reference,D,k,riskyDeck,safeDeck,0,-14,-7,left,1,0,18,absent,riskyDeck,1798,1306
u6792nlm4u8,13431,28/03/2022@09:59:30,"Mozilla/5.0 (Macintosh; Intel Mac OS X 10_15_7) AppleWebKit/537.36 (KHTML, like Gecko) Chrome/98.0.4758.102 Safari/537.36",1440,900,1440,738,main,1703328,17,11,14,13,EE,Extreme,Easier than Reference,D,j,riskyDeck,safeDeck,0,-14,-7,left,1,0,18,present,riskyDeck,1798,1010
u6792nlm4u8,13431,28/03/2022@09:59:30,"Mozilla/5.0 (Macintosh; Intel Mac OS X 10_15_7) AppleWebKit/537.36 (KHTML, like Gecko) Chrome/98.0.4758.102 Safari/537.36",1440,900,1440,738,main,1703328,17,12,14,13,EE,Extreme,Easier than Reference,D,k,riskyDeck,safeDeck,0,-14,-7,left,1,0,18,absent,riskyDeck,1798,1356
u6792nlm4u8,13431,28/03/2022@09:59:30,"Mozilla/5.0 (Macintosh; Intel Mac OS X 10_15_7) AppleWebKit/537.36 (KHTML, like Gecko) Chrome/98.0.4758.102 Safari/537.36",1440,900,1440,738,main,1703328,17,13,14,13,EE,Extreme,Easier than Reference,D,k,riskyDeck,safeDeck,0,-14,-7,left,1,0,18,absent,riskyDeck,1798,961
u6792nlm4u8,13431,28/03/2022@09:59:30,"Mozilla/5.0 (Macintosh; Intel Mac OS X 10_15_7) AppleWebKit/537.36 (KHTML, like Gecko) Chrome/98.0.4758.102 Safari/537.36",1440,900,1440,738,main,1703328,17,14,14,13,EE,Extreme,Easier than Reference,D,k,riskyDeck,safeDeck,0,-14,-7,left,1,0,18,absent,riskyDeck,1798,1232
u6792nlm4u8,13431,28/03/2022@09:59:30,"Mozilla/5.0 (Macintosh; Intel Mac OS X 10_15_7) AppleWebKit/537.36 (KHTML, like Gecko) Chrome/98.0.4758.102 Safari/537.36",1440,900,1440,738,main,1703328,17,15,14,13,EE,Extreme,Easier than Reference,D,k,riskyDeck,safeDeck,0,-14,-7,left,1,0,18,absent,riskyDeck,1798,1157
u6792nlm4u8,13431,28/03/2022@09:59:30,"Mozilla/5.0 (Macintosh; Intel Mac OS X 10_15_7) AppleWebKit/537.36 (KHTML, like Gecko) Chrome/98.0.4758.102 Safari/537.36",1440,900,1440,738,main,1703328,17,16,14,13,EE,Extreme,Easier than Reference,D,k,riskyDeck,safeDeck,0,-14,-7,left,1,0,18,absent,riskyDeck,1798,1432
u6792nlm4u8,13431,28/03/2022@09:59:30,"Mozilla/5.0 (Macintosh; Intel Mac OS X 10_15_7) AppleWebKit/537.36 (KHTML, like Gecko) Chrome/98.0.4758.102 Safari/537.36",1440,900,1440,738,main,1703328,17,17,14,13,EE,Extreme,Easier than Reference,D,j,riskyDeck,safeDeck,0,-14,-7,left,1,0,18,present,riskyDeck,1798,1154
u6792nlm4u8,13431,28/03/2022@09:59:30,"Mozilla/5.0 (Macintosh; Intel Mac OS X 10_15_7) AppleWebKit/537.36 (KHTML, like Gecko) Chrome/98.0.4758.102 Safari/537.36",1440,900,1440,738,main,1703328,18,1,14,13,EM,Moderate,Easier than Reference,F,j,riskyDeck,safeDeck,0,-28,-14,right,0,0,18,present,safeDeck,2469,1011
u6792nlm4u8,13431,28/03/2022@09:59:30,"Mozilla/5.0 (Macintosh; Intel Mac OS X 10_15_7) AppleWebKit/537.36 (KHTML, like Gecko) Chrome/98.0.4758.102 Safari/537.36",1440,900,1440,738,main,1703328,18,2,14,13,EM,Moderate,Easier than Reference,F,k,riskyDeck,safeDeck,0,-28,-14,right,0,0,18,absent,safeDeck,2469,1313
u6792nlm4u8,13431,28/03/2022@09:59:30,"Mozilla/5.0 (Macintosh; Intel Mac OS X 10_15_7) AppleWebKit/537.36 (KHTML, like Gecko) Chrome/98.0.4758.102 Safari/537.36",1440,900,1440,738,main,1703328,18,3,14,13,EM,Moderate,Easier than Reference,F,j,riskyDeck,safeDeck,0,-28,-14,right,0,0,18,present,safeDeck,2469,737
u6792nlm4u8,13431,28/03/2022@09:59:30,"Mozilla/5.0 (Macintosh; Intel Mac OS X 10_15_7) AppleWebKit/537.36 (KHTML, like Gecko) Chrome/98.0.4758.102 Safari/537.36",1440,900,1440,738,main,1703328,18,4,14,13,EM,Moderate,Easier than Reference,F,j,riskyDeck,safeDeck,0,-28,-14,right,0,0,18,present,safeDeck,2469,1132
u6792nlm4u8,13431,28/03/2022@09:59:30,"Mozilla/5.0 (Macintosh; Intel Mac OS X 10_15_7) AppleWebKit/537.36 (KHTML, like Gecko) Chrome/98.0.4758.102 Safari/537.36",1440,900,1440,738,main,1703328,18,5,14,13,EM,Moderate,Easier than Reference,F,k,riskyDeck,safeDeck,0,-28,-14,right,0,1,18,present,safeDeck,2469,1444
u6792nlm4u8,13431,28/03/2022@09:59:30,"Mozilla/5.0 (Macintosh; Intel Mac OS X 10_15_7) AppleWebKit/537.36 (KHTML, like Gecko) Chrome/98.0.4758.102 Safari/537.36",1440,900,1440,738,main,1703328,18,6,14,13,EM,Moderate,Easier than Reference,F,k,riskyDeck,safeDeck,0,-28,-14,right,0,0,18,absent,safeDeck,2469,793
u6792nlm4u8,13431,28/03/2022@09:59:30,"Mozilla/5.0 (Macintosh; Intel Mac OS X 10_15_7) AppleWebKit/537.36 (KHTML, like Gecko) Chrome/98.0.4758.102 Safari/537.36",1440,900,1440,738,main,1703328,18,7,14,13,EM,Moderate,Easier than Reference,F,j,riskyDeck,safeDeck,0,-28,-14,right,0,0,18,present,safeDeck,2469,1558
u6792nlm4u8,13431,28/03/2022@09:59:30,"Mozilla/5.0 (Macintosh; Intel Mac OS X 10_15_7) AppleWebKit/537.36 (KHTML, like Gecko) Chrome/98.0.4758.102 Safari/537.36",1440,900,1440,738,main,1703328,18,8,14,13,EM,Moderate,Easier than Reference,F,j,riskyDeck,safeDeck,0,-28,-14,right,0,0,18,present,safeDeck,2469,778
u6792nlm4u8,13431,28/03/2022@09:59:30,"Mozilla/5.0 (Macintosh; Intel Mac OS X 10_15_7) AppleWebKit/537.36 (KHTML, like Gecko) Chrome/98.0.4758.102 Safari/537.36",1440,900,1440,738,main,1703328,18,9,14,13,EM,Moderate,Easier than Reference,F,k,riskyDeck,safeDeck,0,-28,-14,right,0,1,18,present,safeDeck,2469,886
u6792nlm4u8,13431,28/03/2022@09:59:30,"Mozilla/5.0 (Macintosh; Intel Mac OS X 10_15_7) AppleWebKit/537.36 (KHTML, like Gecko) Chrome/98.0.4758.102 Safari/537.36",1440,900,1440,738,main,1703328,18,10,14,13,EM,Moderate,Easier than Reference,F,k,riskyDeck,safeDeck,0,-28,-14,right,0,0,18,absent,safeDeck,2469,1381
u6792nlm4u8,13431,28/03/2022@09:59:30,"Mozilla/5.0 (Macintosh; Intel Mac OS X 10_15_7) AppleWebKit/537.36 (KHTML, like Gecko) Chrome/98.0.4758.102 Safari/537.36",1440,900,1440,738,main,1703328,18,11,14,14,EM,Moderate,Easier than Reference,F,j,riskyDeck,safeDeck,0,-28,-14,right,0,0,18,present,safeDeck,2469,750
u6792nlm4u8,13431,28/03/2022@09:59:30,"Mozilla/5.0 (Macintosh; Intel Mac OS X 10_15_7) AppleWebKit/537.36 (KHTML, like Gecko) Chrome/98.0.4758.102 Safari/537.36",1440,900,1440,738,main,1703328,18,12,14,14,EM,Moderate,Easier than Reference,F,j,riskyDeck,safeDeck,0,-28,-14,right,0,0,18,present,safeDeck,2469,1035
u6792nlm4u8,13431,28/03/2022@09:59:30,"Mozilla/5.0 (Macintosh; Intel Mac OS X 10_15_7) AppleWebKit/537.36 (KHTML, like Gecko) Chrome/98.0.4758.102 Safari/537.36",1440,900,1440,738,main,1703328,18,13,14,14,EM,Moderate,Easier than Reference,F,j,riskyDeck,safeDeck,0,-28,-14,right,0,0,18,present,safeDeck,2469,872
u6792nlm4u8,13431,28/03/2022@09:59:30,"Mozilla/5.0 (Macintosh; Intel Mac OS X 10_15_7) AppleWebKit/537.36 (KHTML, like Gecko) Chrome/98.0.4758.102 Safari/537.36",1440,900,1440,738,main,1703328,18,14,15,14,EM,Moderate,Easier than Reference,F,j,riskyDeck,safeDeck,0,-28,-14,right,0,0,18,present,safeDeck,2469,970
u6792nlm4u8,13431,28/03/2022@09:59:30,"Mozilla/5.0 (Macintosh; Intel Mac OS X 10_15_7) AppleWebKit/537.36 (KHTML, like Gecko) Chrome/98.0.4758.102 Safari/537.36",1440,900,1440,738,main,1703328,18,15,15,14,EM,Moderate,Easier than Reference,F,j,riskyDeck,safeDeck,0,-28,-14,right,0,0,18,present,safeDeck,2469,900
u6792nlm4u8,13431,28/03/2022@09:59:30,"Mozilla/5.0 (Macintosh; Intel Mac OS X 10_15_7) AppleWebKit/537.36 (KHTML, like Gecko) Chrome/98.0.4758.102 Safari/537.36",1440,900,1440,738,main,1703328,18,16,15,14,EM,Moderate,Easier than Reference,F,k,riskyDeck,safeDeck,0,-28,-14,right,0,0,18,absent,safeDeck,2469,1319
u6792nlm4u8,13431,28/03/2022@09:59:30,"Mozilla/5.0 (Macintosh; Intel Mac OS X 10_15_7) AppleWebKit/537.36 (KHTML, like Gecko) Chrome/98.0.4758.102 Safari/537.36",1440,900,1440,738,main,1703328,18,17,15,14,EM,Moderate,Easier than Reference,F,j,riskyDeck,safeDeck,0,-28,-14,right,0,0,18,present,safeDeck,2469,665
u6792nlm4u8,13431,28/03/2022@09:59:30,"Mozilla/5.0 (Macintosh; Intel Mac OS X 10_15_7) AppleWebKit/537.36 (KHTML, like Gecko) Chrome/98.0.4758.102 Safari/537.36",1440,900,1440,738,main,1703328,19,1,15,14,HE,Extreme,Harder than Reference,D,j,riskyDeck,safeDeck,0,28,14,left,1,0,32,present,riskyDeck,2309,2001
u6792nlm4u8,13431,28/03/2022@09:59:30,"Mozilla/5.0 (Macintosh; Intel Mac OS X 10_15_7) AppleWebKit/537.36 (KHTML, like Gecko) Chrome/98.0.4758.102 Safari/537.36",1440,900,1440,738,main,1703328,19,2,15,14,HE,Extreme,Harder than Reference,D,j,riskyDeck,safeDeck,0,28,14,left,1,0,32,present,riskyDeck,2309,1509
u6792nlm4u8,13431,28/03/2022@09:59:30,"Mozilla/5.0 (Macintosh; Intel Mac OS X 10_15_7) AppleWebKit/537.36 (KHTML, like Gecko) Chrome/98.0.4758.102 Safari/537.36",1440,900,1440,738,main,1703328,19,3,15,14,HE,Extreme,Harder than Reference,D,k,riskyDeck,safeDeck,0,28,14,left,1,0,32,absent,riskyDeck,2309,966
u6792nlm4u8,13431,28/03/2022@09:59:30,"Mozilla/5.0 (Macintosh; Intel Mac OS X 10_15_7) AppleWebKit/537.36 (KHTML, like Gecko) Chrome/98.0.4758.102 Safari/537.36",1440,900,1440,738,main,1703328,19,4,15,14,HE,Extreme,Harder than Reference,D,k,riskyDeck,safeDeck,0,28,14,left,1,0,32,absent,riskyDeck,2309,1802
u6792nlm4u8,13431,28/03/2022@09:59:30,"Mozilla/5.0 (Macintosh; Intel Mac OS X 10_15_7) AppleWebKit/537.36 (KHTML, like Gecko) Chrome/98.0.4758.102 Safari/537.36",1440,900,1440,738,main,1703328,19,5,15,14,HE,Extreme,Harder than Reference,D,j,riskyDeck,safeDeck,0,28,14,left,1,0,32,present,riskyDeck,2309,1374
u6792nlm4u8,13431,28/03/2022@09:59:30,"Mozilla/5.0 (Macintosh; Intel Mac OS X 10_15_7) AppleWebKit/537.36 (KHTML, like Gecko) Chrome/98.0.4758.102 Safari/537.36",1440,900,1440,738,main,1703328,19,6,15,14,HE,Extreme,Harder than Reference,D,j,riskyDeck,safeDeck,0,28,14,left,1,0,32,present,riskyDeck,2309,1145
u6792nlm4u8,13431,28/03/2022@09:59:30,"Mozilla/5.0 (Macintosh; Intel Mac OS X 10_15_7) AppleWebKit/537.36 (KHTML, like Gecko) Chrome/98.0.4758.102 Safari/537.36",1440,900,1440,738,main,1703328,19,7,15,14,HE,Extreme,Harder than Reference,D,k,riskyDeck,safeDeck,0,28,14,left,1,1,32,present,riskyDeck,2309,1848
u6792nlm4u8,13431,28/03/2022@09:59:30,"Mozilla/5.0 (Macintosh; Intel Mac OS X 10_15_7) AppleWebKit/537.36 (KHTML, like Gecko) Chrome/98.0.4758.102 Safari/537.36",1440,900,1440,738,main,1703328,19,8,15,14,HE,Extreme,Harder than Reference,D,j,riskyDeck,safeDeck,0,28,14,left,1,0,32,present,riskyDeck,2309,1764
u6792nlm4u8,13431,28/03/2022@09:59:30,"Mozilla/5.0 (Macintosh; Intel Mac OS X 10_15_7) AppleWebKit/537.36 (KHTML, like Gecko) Chrome/98.0.4758.102 Safari/537.36",1440,900,1440,738,main,1703328,19,9,15,14,HE,Extreme,Harder than Reference,D,k,riskyDeck,safeDeck,0,28,14,left,1,0,32,absent,riskyDeck,2309,1696
u6792nlm4u8,13431,28/03/2022@09:59:30,"Mozilla/5.0 (Macintosh; Intel Mac OS X 10_15_7) AppleWebKit/537.36 (KHTML, like Gecko) Chrome/98.0.4758.102 Safari/537.36",1440,900,1440,738,main,1703328,19,10,15,14,HE,Extreme,Harder than Reference,D,k,riskyDeck,safeDeck,0,28,14,left,1,0,32,absent,riskyDeck,2309,1798
u6792nlm4u8,13431,28/03/2022@09:59:30,"Mozilla/5.0 (Macintosh; Intel Mac OS X 10_15_7) AppleWebKit/537.36 (KHTML, like Gecko) Chrome/98.0.4758.102 Safari/537.36",1440,900,1440,738,main,1703328,19,11,15,14,HE,Extreme,Harder than Reference,D,k,riskyDeck,safeDeck,0,28,14,left,1,0,32,absent,riskyDeck,2309,1702
u6792nlm4u8,13431,28/03/2022@09:59:30,"Mozilla/5.0 (Macintosh; Intel Mac OS X 10_15_7) AppleWebKit/537.36 (KHTML, like Gecko) Chrome/98.0.4758.102 Safari/537.36",1440,900,1440,738,main,1703328,19,12,15,14,HE,Extreme,Harder than Reference,D,k,riskyDeck,safeDeck,0,28,14,left,1,1,32,present,riskyDeck,2309,1882
u6792nlm4u8,13431,28/03/2022@09:59:30,"Mozilla/5.0 (Macintosh; Intel Mac OS X 10_15_7) AppleWebKit/537.36 (KHTML, like Gecko) Chrome/98.0.4758.102 Safari/537.36",1440,900,1440,738,main,1703328,19,13,15,15,HE,Extreme,Harder than Reference,D,k,riskyDeck,safeDeck,0,28,14,left,1,0,32,absent,riskyDeck,2309,21886
u6792nlm4u8,13431,28/03/2022@09:59:30,"Mozilla/5.0 (Macintosh; Intel Mac OS X 10_15_7) AppleWebKit/537.36 (KHTML, like Gecko) Chrome/98.0.4758.102 Safari/537.36",1440,900,1440,738,main,1703328,19,14,16,15,HE,Extreme,Harder than Reference,D,j,riskyDeck,safeDeck,0,28,14,left,1,0,32,present,riskyDeck,2309,2066
u6792nlm4u8,13431,28/03/2022@09:59:30,"Mozilla/5.0 (Macintosh; Intel Mac OS X 10_15_7) AppleWebKit/537.36 (KHTML, like Gecko) Chrome/98.0.4758.102 Safari/537.36",1440,900,1440,738,main,1703328,19,15,16,15,HE,Extreme,Harder than Reference,D,k,riskyDeck,safeDeck,0,28,14,left,1,0,32,absent,riskyDeck,2309,1729
u6792nlm4u8,13431,28/03/2022@09:59:30,"Mozilla/5.0 (Macintosh; Intel Mac OS X 10_15_7) AppleWebKit/537.36 (KHTML, like Gecko) Chrome/98.0.4758.102 Safari/537.36",1440,900,1440,738,main,1703328,19,16,16,15,HE,Extreme,Harder than Reference,D,k,riskyDeck,safeDeck,0,28,14,left,1,0,32,absent,riskyDeck,2309,7337
u6792nlm4u8,13431,28/03/2022@09:59:30,"Mozilla/5.0 (Macintosh; Intel Mac OS X 10_15_7) AppleWebKit/537.36 (KHTML, like Gecko) Chrome/98.0.4758.102 Safari/537.36",1440,900,1440,738,main,1703328,19,17,16,15,HE,Extreme,Harder than Reference,D,k,riskyDeck,safeDeck,0,28,14,left,1,1,32,present,riskyDeck,2309,4227
u6792nlm4u8,13431,28/03/2022@09:59:30,"Mozilla/5.0 (Macintosh; Intel Mac OS X 10_15_7) AppleWebKit/537.36 (KHTML, like Gecko) Chrome/98.0.4758.102 Safari/537.36",1440,900,1440,738,main,1703328,20,1,16,15,HM,Moderate,Harder than Reference,F,k,riskyDeck,safeDeck,14,0,7,right,0,1,39,present,safeDeck,8788,1650
