"subject","choice_rt_m","choice_rt_sd","sona_id","curTime","userAgent","screenWidth","screenHeight","windowWidth","windowHeight","phase","phase_run_time","trial","exp_runtime_mins","phase_runtime_mins","condition","magnitude","direction","choice_response_key","search_response_key","left_deck_id","right_deck_id","risky_deck_outcome_top","risky_deck_outcome_bottom","safe_deck_outcome","selected_deck_location","selectedRiskyDeck","error","n_stimuli","present_or_absent","chosenDeckId","choice_rt","search_rt","selected_deck_location_num"
"i4nu3505ov",736.276923076923,850.639157917567,13416,"21/03/2022@15:17:46","Mozilla/5.0 (Macintosh; Intel Mac OS X 10_15_7) AppleWebKit/605.1.15 (KHTML, like Gecko) Version/15.3 Safari/605.1.15",1792,1120,1323,941,"main",1063243,3,4,3,"HM","Moderate","Harder than Reference","D","k","safeDeck","riskyDeck",14,0,7,"left",0,0,39,"absent","safeDeck",2052,8701,-1
"i4nu3505ov",736.276923076923,850.639157917567,13416,"21/03/2022@15:17:46","Mozilla/5.0 (Macintosh; Intel Mac OS X 10_15_7) AppleWebKit/605.1.15 (KHTML, like Gecko) Version/15.3 Safari/605.1.15",1792,1120,1323,941,"main",1063243,4,5,4,"EM","Moderate","Easier than Reference","F","j","safeDeck","riskyDeck",-28,0,-14,"right",1,0,32,"present","riskyDeck",1285,7081,1
"i4nu3505ov",736.276923076923,850.639157917567,13416,"21/03/2022@15:17:46","Mozilla/5.0 (Macintosh; Intel Mac OS X 10_15_7) AppleWebKit/605.1.15 (KHTML, like Gecko) Version/15.3 Safari/605.1.15",1792,1120,1323,941,"main",1063243,6,5,4,"EM","Moderate","Easier than Reference","F","j","riskyDeck","safeDeck",0,-28,-14,"right",0,0,18,"present","safeDeck",2328,5839,1
"i4nu3505ov",736.276923076923,850.639157917567,13416,"21/03/2022@15:17:46","Mozilla/5.0 (Macintosh; Intel Mac OS X 10_15_7) AppleWebKit/605.1.15 (KHTML, like Gecko) Version/15.3 Safari/605.1.15",1792,1120,1323,941,"main",1063243,7,5,4,"HE","Extreme","Harder than Reference","D","k","safeDeck","riskyDeck",28,0,14,"left",0,0,46,"absent","safeDeck",340,15340,-1
"i4nu3505ov",736.276923076923,850.639157917567,13416,"21/03/2022@15:17:46","Mozilla/5.0 (Macintosh; Intel Mac OS X 10_15_7) AppleWebKit/605.1.15 (KHTML, like Gecko) Version/15.3 Safari/605.1.15",1792,1120,1323,941,"main",1063243,8,5,4,"HM","Moderate","Harder than Reference","D","j","riskyDeck","safeDeck",0,14,7,"left",1,0,32,"present","riskyDeck",878,4619,-1
"i4nu3505ov",736.276923076923,850.639157917567,13416,"21/03/2022@15:17:46","Mozilla/5.0 (Macintosh; Intel Mac OS X 10_15_7) AppleWebKit/605.1.15 (KHTML, like Gecko) Version/15.3 Safari/605.1.15",1792,1120,1323,941,"main",1063243,10,6,5,"HE","Extreme","Harder than Reference","F","j","riskyDeck","safeDeck",0,28,14,"right",0,0,46,"present","safeDeck",1326,4210,1
"i4nu3505ov",736.276923076923,850.639157917567,13416,"21/03/2022@15:17:46","Mozilla/5.0 (Macintosh; Intel Mac OS X 10_15_7) AppleWebKit/605.1.15 (KHTML, like Gecko) Version/15.3 Safari/605.1.15",1792,1120,1323,941,"main",1063243,11,6,5,"EE","Extreme","Easier than Reference","F","j","riskyDeck","safeDeck",0,-14,-7,"right",0,0,25,"present","safeDeck",654,1280,1
"i4nu3505ov",736.276923076923,850.639157917567,13416,"21/03/2022@15:17:46","Mozilla/5.0 (Macintosh; Intel Mac OS X 10_15_7) AppleWebKit/605.1.15 (KHTML, like Gecko) Version/15.3 Safari/605.1.15",1792,1120,1323,941,"main",1063243,12,6,5,"HM","Moderate","Harder than Reference","F","k","riskyDeck","safeDeck",14,0,7,"right",0,0,39,"absent","safeDeck",2293,8114,1
"i4nu3505ov",736.276923076923,850.639157917567,13416,"21/03/2022@15:17:46","Mozilla/5.0 (Macintosh; Intel Mac OS X 10_15_7) AppleWebKit/605.1.15 (KHTML, like Gecko) Version/15.3 Safari/605.1.15",1792,1120,1323,941,"main",1063243,13,6,5,"EE","Extreme","Easier than Reference","D","k","riskyDeck","safeDeck",-14,0,-7,"left",1,1,32,"present","riskyDeck",2034,331,-1
"i4nu3505ov",736.276923076923,850.639157917567,13416,"21/03/2022@15:17:46","Mozilla/5.0 (Macintosh; Intel Mac OS X 10_15_7) AppleWebKit/605.1.15 (KHTML, like Gecko) Version/15.3 Safari/605.1.15",1792,1120,1323,941,"main",1063243,14,6,5,"HE","Extreme","Harder than Reference","D","k","safeDeck","riskyDeck",0,28,14,"left",0,0,46,"absent","safeDeck",897,3705,-1
"i4nu3505ov",736.276923076923,850.639157917567,13416,"21/03/2022@15:17:46","Mozilla/5.0 (Macintosh; Intel Mac OS X 10_15_7) AppleWebKit/605.1.15 (KHTML, like Gecko) Version/15.3 Safari/605.1.15",1792,1120,1323,941,"main",1063243,15,6,5,"EM","Moderate","Easier than Reference","D","k","riskyDeck","safeDeck",-28,0,-14,"left",1,0,32,"absent","riskyDeck",806,9403,-1
"i4nu3505ov",736.276923076923,850.639157917567,13416,"21/03/2022@15:17:46","Mozilla/5.0 (Macintosh; Intel Mac OS X 10_15_7) AppleWebKit/605.1.15 (KHTML, like Gecko) Version/15.3 Safari/605.1.15",1792,1120,1323,941,"main",1063243,16,7,6,"HM","Moderate","Harder than Reference","F","k","riskyDeck","safeDeck",0,14,7,"right",0,0,39,"absent","safeDeck",650,8989,1
"i4nu3505ov",736.276923076923,850.639157917567,13416,"21/03/2022@15:17:46","Mozilla/5.0 (Macintosh; Intel Mac OS X 10_15_7) AppleWebKit/605.1.15 (KHTML, like Gecko) Version/15.3 Safari/605.1.15",1792,1120,1323,941,"main",1063243,17,7,6,"HM","Moderate","Harder than Reference","F","k","riskyDeck","safeDeck",0,14,7,"right",0,1,39,"present","safeDeck",366,2207,1
"i4nu3505ov",736.276923076923,850.639157917567,13416,"21/03/2022@15:17:46","Mozilla/5.0 (Macintosh; Intel Mac OS X 10_15_7) AppleWebKit/605.1.15 (KHTML, like Gecko) Version/15.3 Safari/605.1.15",1792,1120,1323,941,"main",1063243,18,7,6,"HE","Extreme","Harder than Reference","F","j","safeDeck","riskyDeck",28,0,14,"right",1,0,60,"present","riskyDeck",491,6405,1
"i4nu3505ov",736.276923076923,850.639157917567,13416,"21/03/2022@15:17:46","Mozilla/5.0 (Macintosh; Intel Mac OS X 10_15_7) AppleWebKit/605.1.15 (KHTML, like Gecko) Version/15.3 Safari/605.1.15",1792,1120,1323,941,"main",1063243,19,7,6,"EE","Extreme","Easier than Reference","F","j","riskyDeck","safeDeck",0,-14,-7,"right",0,0,25,"present","safeDeck",439,1232,1
"i4nu3505ov",736.276923076923,850.639157917567,13416,"21/03/2022@15:17:46","Mozilla/5.0 (Macintosh; Intel Mac OS X 10_15_7) AppleWebKit/605.1.15 (KHTML, like Gecko) Version/15.3 Safari/605.1.15",1792,1120,1323,941,"main",1063243,20,7,6,"EM","Moderate","Easier than Reference","D","j","safeDeck","riskyDeck",0,-28,-14,"left",0,0,18,"present","safeDeck",649,664,-1
"i4nu3505ov",736.276923076923,850.639157917567,13416,"21/03/2022@15:17:46","Mozilla/5.0 (Macintosh; Intel Mac OS X 10_15_7) AppleWebKit/605.1.15 (KHTML, like Gecko) Version/15.3 Safari/605.1.15",1792,1120,1323,941,"main",1063243,21,7,6,"EE","Extreme","Easier than Reference","D","j","riskyDeck","safeDeck",0,-14,-7,"left",1,0,18,"present","riskyDeck",403,651,-1
"i4nu3505ov",736.276923076923,850.639157917567,13416,"21/03/2022@15:17:46","Mozilla/5.0 (Macintosh; Intel Mac OS X 10_15_7) AppleWebKit/605.1.15 (KHTML, like Gecko) Version/15.3 Safari/605.1.15",1792,1120,1323,941,"main",1063243,22,7,6,"HM","Moderate","Harder than Reference","D","k","riskyDeck","safeDeck",0,14,7,"left",1,0,46,"absent","riskyDeck",392,7229,-1
"i4nu3505ov",736.276923076923,850.639157917567,13416,"21/03/2022@15:17:46","Mozilla/5.0 (Macintosh; Intel Mac OS X 10_15_7) AppleWebKit/605.1.15 (KHTML, like Gecko) Version/15.3 Safari/605.1.15",1792,1120,1323,941,"main",1063243,23,7,6,"HE","Extreme","Harder than Reference","F","j","safeDeck","riskyDeck",28,0,14,"right",1,0,60,"present","riskyDeck",986,2564,1
"i4nu3505ov",736.276923076923,850.639157917567,13416,"21/03/2022@15:17:46","Mozilla/5.0 (Macintosh; Intel Mac OS X 10_15_7) AppleWebKit/605.1.15 (KHTML, like Gecko) Version/15.3 Safari/605.1.15",1792,1120,1323,941,"main",1063243,24,7,6,"EM","Moderate","Easier than Reference","D","k","riskyDeck","safeDeck",0,-28,-14,"left",1,0,4,"absent","riskyDeck",934,1270,-1
"i4nu3505ov",736.276923076923,850.639157917567,13416,"21/03/2022@15:17:46","Mozilla/5.0 (Macintosh; Intel Mac OS X 10_15_7) AppleWebKit/605.1.15 (KHTML, like Gecko) Version/15.3 Safari/605.1.15",1792,1120,1323,941,"main",1063243,25,7,6,"EE","Extreme","Easier than Reference","F","k","safeDeck","riskyDeck",-14,0,-7,"right",1,0,18,"absent","riskyDeck",1251,3963,1
"i4nu3505ov",736.276923076923,850.639157917567,13416,"21/03/2022@15:17:46","Mozilla/5.0 (Macintosh; Intel Mac OS X 10_15_7) AppleWebKit/605.1.15 (KHTML, like Gecko) Version/15.3 Safari/605.1.15",1792,1120,1323,941,"main",1063243,26,7,6,"HM","Moderate","Harder than Reference","D","k","safeDeck","riskyDeck",14,0,7,"left",0,1,39,"present","safeDeck",307,1632,-1
"i4nu3505ov",736.276923076923,850.639157917567,13416,"21/03/2022@15:17:46","Mozilla/5.0 (Macintosh; Intel Mac OS X 10_15_7) AppleWebKit/605.1.15 (KHTML, like Gecko) Version/15.3 Safari/605.1.15",1792,1120,1323,941,"main",1063243,27,8,7,"EM","Moderate","Easier than Reference","F","k","riskyDeck","safeDeck",0,-28,-14,"right",0,0,18,"absent","safeDeck",397,2410,1
"i4nu3505ov",736.276923076923,850.639157917567,13416,"21/03/2022@15:17:46","Mozilla/5.0 (Macintosh; Intel Mac OS X 10_15_7) AppleWebKit/605.1.15 (KHTML, like Gecko) Version/15.3 Safari/605.1.15",1792,1120,1323,941,"main",1063243,28,8,7,"HE","Extreme","Harder than Reference","F","j","safeDeck","riskyDeck",0,28,14,"right",1,1,32,"absent","riskyDeck",341,6935,1
"i4nu3505ov",736.276923076923,850.639157917567,13416,"21/03/2022@15:17:46","Mozilla/5.0 (Macintosh; Intel Mac OS X 10_15_7) AppleWebKit/605.1.15 (KHTML, like Gecko) Version/15.3 Safari/605.1.15",1792,1120,1323,941,"main",1063243,30,8,7,"EM","Moderate","Easier than Reference","F","k","riskyDeck","safeDeck",0,-28,-14,"right",0,0,18,"absent","safeDeck",483,4905,1
"i4nu3505ov",736.276923076923,850.639157917567,13416,"21/03/2022@15:17:46","Mozilla/5.0 (Macintosh; Intel Mac OS X 10_15_7) AppleWebKit/605.1.15 (KHTML, like Gecko) Version/15.3 Safari/605.1.15",1792,1120,1323,941,"main",1063243,31,8,7,"EE","Extreme","Easier than Reference","F","k","safeDeck","riskyDeck",-14,0,-7,"right",1,0,18,"absent","riskyDeck",332,3381,1
"i4nu3505ov",736.276923076923,850.639157917567,13416,"21/03/2022@15:17:46","Mozilla/5.0 (Macintosh; Intel Mac OS X 10_15_7) AppleWebKit/605.1.15 (KHTML, like Gecko) Version/15.3 Safari/605.1.15",1792,1120,1323,941,"main",1063243,32,8,7,"HE","Extreme","Harder than Reference","D","j","safeDeck","riskyDeck",0,28,14,"left",0,0,46,"present","safeDeck",341,3069,-1
"i4nu3505ov",736.276923076923,850.639157917567,13416,"21/03/2022@15:17:46","Mozilla/5.0 (Macintosh; Intel Mac OS X 10_15_7) AppleWebKit/605.1.15 (KHTML, like Gecko) Version/15.3 Safari/605.1.15",1792,1120,1323,941,"main",1063243,33,8,7,"HM","Moderate","Harder than Reference","F","j","riskyDeck","safeDeck",0,14,7,"right",0,0,39,"present","safeDeck",381,2343,1
"i4nu3505ov",736.276923076923,850.639157917567,13416,"21/03/2022@15:17:46","Mozilla/5.0 (Macintosh; Intel Mac OS X 10_15_7) AppleWebKit/605.1.15 (KHTML, like Gecko) Version/15.3 Safari/605.1.15",1792,1120,1323,941,"main",1063243,34,8,7,"EM","Moderate","Easier than Reference","F","k","safeDeck","riskyDeck",-28,0,-14,"right",1,0,4,"absent","riskyDeck",384,1092,1
"i4nu3505ov",736.276923076923,850.639157917567,13416,"21/03/2022@15:17:46","Mozilla/5.0 (Macintosh; Intel Mac OS X 10_15_7) AppleWebKit/605.1.15 (KHTML, like Gecko) Version/15.3 Safari/605.1.15",1792,1120,1323,941,"main",1063243,35,8,7,"EE","Extreme","Easier than Reference","F","k","safeDeck","riskyDeck",-14,0,-7,"right",1,0,18,"absent","riskyDeck",742,2662,1
"i4nu3505ov",736.276923076923,850.639157917567,13416,"21/03/2022@15:17:46","Mozilla/5.0 (Macintosh; Intel Mac OS X 10_15_7) AppleWebKit/605.1.15 (KHTML, like Gecko) Version/15.3 Safari/605.1.15",1792,1120,1323,941,"main",1063243,36,9,8,"HE","Extreme","Harder than Reference","F","k","riskyDeck","safeDeck",28,0,14,"right",0,0,46,"absent","safeDeck",481,4748,1
"i4nu3505ov",736.276923076923,850.639157917567,13416,"21/03/2022@15:17:46","Mozilla/5.0 (Macintosh; Intel Mac OS X 10_15_7) AppleWebKit/605.1.15 (KHTML, like Gecko) Version/15.3 Safari/605.1.15",1792,1120,1323,941,"main",1063243,37,9,8,"EE","Extreme","Easier than Reference","D","j","riskyDeck","safeDeck",-14,0,-7,"left",1,0,18,"present","riskyDeck",386,1916,-1
"i4nu3505ov",736.276923076923,850.639157917567,13416,"21/03/2022@15:17:46","Mozilla/5.0 (Macintosh; Intel Mac OS X 10_15_7) AppleWebKit/605.1.15 (KHTML, like Gecko) Version/15.3 Safari/605.1.15",1792,1120,1323,941,"main",1063243,39,9,8,"EM","Moderate","Easier than Reference","D","j","riskyDeck","safeDeck",0,-28,-14,"left",1,0,32,"present","riskyDeck",2174,1196,-1
"i4nu3505ov",736.276923076923,850.639157917567,13416,"21/03/2022@15:17:46","Mozilla/5.0 (Macintosh; Intel Mac OS X 10_15_7) AppleWebKit/605.1.15 (KHTML, like Gecko) Version/15.3 Safari/605.1.15",1792,1120,1323,941,"main",1063243,43,9,8,"HM","Moderate","Harder than Reference","D","k","safeDeck","riskyDeck",0,14,7,"left",0,1,39,"present","safeDeck",395,3644,-1
"i4nu3505ov",736.276923076923,850.639157917567,13416,"21/03/2022@15:17:46","Mozilla/5.0 (Macintosh; Intel Mac OS X 10_15_7) AppleWebKit/605.1.15 (KHTML, like Gecko) Version/15.3 Safari/605.1.15",1792,1120,1323,941,"main",1063243,44,9,8,"HE","Extreme","Harder than Reference","D","j","riskyDeck","safeDeck",0,28,14,"left",1,0,60,"present","riskyDeck",635,6249,-1
"i4nu3505ov",736.276923076923,850.639157917567,13416,"21/03/2022@15:17:46","Mozilla/5.0 (Macintosh; Intel Mac OS X 10_15_7) AppleWebKit/605.1.15 (KHTML, like Gecko) Version/15.3 Safari/605.1.15",1792,1120,1323,941,"main",1063243,45,9,8,"HM","Moderate","Harder than Reference","F","k","safeDeck","riskyDeck",14,0,7,"right",1,0,32,"absent","riskyDeck",325,4121,1
"i4nu3505ov",736.276923076923,850.639157917567,13416,"21/03/2022@15:17:46","Mozilla/5.0 (Macintosh; Intel Mac OS X 10_15_7) AppleWebKit/605.1.15 (KHTML, like Gecko) Version/15.3 Safari/605.1.15",1792,1120,1323,941,"main",1063243,46,10,9,"HE","Extreme","Harder than Reference","F","j","safeDeck","riskyDeck",0,28,14,"right",1,0,60,"present","riskyDeck",1215,4726,1
"i4nu3505ov",736.276923076923,850.639157917567,13416,"21/03/2022@15:17:46","Mozilla/5.0 (Macintosh; Intel Mac OS X 10_15_7) AppleWebKit/605.1.15 (KHTML, like Gecko) Version/15.3 Safari/605.1.15",1792,1120,1323,941,"main",1063243,47,10,9,"EE","Extreme","Easier than Reference","D","j","riskyDeck","safeDeck",0,-14,-7,"left",1,0,32,"present","riskyDeck",331,1039,-1
"i4nu3505ov",736.276923076923,850.639157917567,13416,"21/03/2022@15:17:46","Mozilla/5.0 (Macintosh; Intel Mac OS X 10_15_7) AppleWebKit/605.1.15 (KHTML, like Gecko) Version/15.3 Safari/605.1.15",1792,1120,1323,941,"main",1063243,49,10,9,"HE","Extreme","Harder than Reference","D","j","safeDeck","riskyDeck",0,28,14,"left",0,0,46,"present","safeDeck",713,4702,-1
"i4nu3505ov",736.276923076923,850.639157917567,13416,"21/03/2022@15:17:46","Mozilla/5.0 (Macintosh; Intel Mac OS X 10_15_7) AppleWebKit/605.1.15 (KHTML, like Gecko) Version/15.3 Safari/605.1.15",1792,1120,1323,941,"main",1063243,50,10,9,"EE","Extreme","Easier than Reference","D","k","safeDeck","riskyDeck",-14,0,-7,"left",0,0,25,"absent","safeDeck",446,3955,-1
"i4nu3505ov",736.276923076923,850.639157917567,13416,"21/03/2022@15:17:46","Mozilla/5.0 (Macintosh; Intel Mac OS X 10_15_7) AppleWebKit/605.1.15 (KHTML, like Gecko) Version/15.3 Safari/605.1.15",1792,1120,1323,941,"main",1063243,51,10,9,"EM","Moderate","Easier than Reference","F","k","riskyDeck","safeDeck",0,-28,-14,"right",0,0,18,"absent","safeDeck",319,1660,1
"i4nu3505ov",736.276923076923,850.639157917567,13416,"21/03/2022@15:17:46","Mozilla/5.0 (Macintosh; Intel Mac OS X 10_15_7) AppleWebKit/605.1.15 (KHTML, like Gecko) Version/15.3 Safari/605.1.15",1792,1120,1323,941,"main",1063243,52,10,9,"HM","Moderate","Harder than Reference","D","k","safeDeck","riskyDeck",14,0,7,"left",0,0,39,"absent","safeDeck",345,10039,-1
"i4nu3505ov",736.276923076923,850.639157917567,13416,"21/03/2022@15:17:46","Mozilla/5.0 (Macintosh; Intel Mac OS X 10_15_7) AppleWebKit/605.1.15 (KHTML, like Gecko) Version/15.3 Safari/605.1.15",1792,1120,1323,941,"main",1063243,53,10,9,"HM","Moderate","Harder than Reference","D","j","safeDeck","riskyDeck",14,0,7,"left",0,0,39,"present","safeDeck",897,1520,-1
"i4nu3505ov",736.276923076923,850.639157917567,13416,"21/03/2022@15:17:46","Mozilla/5.0 (Macintosh; Intel Mac OS X 10_15_7) AppleWebKit/605.1.15 (KHTML, like Gecko) Version/15.3 Safari/605.1.15",1792,1120,1323,941,"main",1063243,55,10,9,"EM","Moderate","Easier than Reference","D","j","safeDeck","riskyDeck",0,-28,-14,"left",0,0,18,"present","safeDeck",591,1334,-1
"i4nu3505ov",736.276923076923,850.639157917567,13416,"21/03/2022@15:17:46","Mozilla/5.0 (Macintosh; Intel Mac OS X 10_15_7) AppleWebKit/605.1.15 (KHTML, like Gecko) Version/15.3 Safari/605.1.15",1792,1120,1323,941,"main",1063243,56,11,10,"EE","Extreme","Easier than Reference","F","k","riskyDeck","safeDeck",0,-14,-7,"right",0,0,25,"absent","safeDeck",491,3812,1
"i4nu3505ov",736.276923076923,850.639157917567,13416,"21/03/2022@15:17:46","Mozilla/5.0 (Macintosh; Intel Mac OS X 10_15_7) AppleWebKit/605.1.15 (KHTML, like Gecko) Version/15.3 Safari/605.1.15",1792,1120,1323,941,"main",1063243,57,11,10,"EM","Moderate","Easier than Reference","D","j","safeDeck","riskyDeck",0,-28,-14,"left",0,0,18,"present","safeDeck",483,1372,-1
"i4nu3505ov",736.276923076923,850.639157917567,13416,"21/03/2022@15:17:46","Mozilla/5.0 (Macintosh; Intel Mac OS X 10_15_7) AppleWebKit/605.1.15 (KHTML, like Gecko) Version/15.3 Safari/605.1.15",1792,1120,1323,941,"main",1063243,58,11,10,"HM","Moderate","Harder than Reference","D","k","riskyDeck","safeDeck",0,14,7,"left",1,0,32,"absent","riskyDeck",335,3578,-1
"i4nu3505ov",736.276923076923,850.639157917567,13416,"21/03/2022@15:17:46","Mozilla/5.0 (Macintosh; Intel Mac OS X 10_15_7) AppleWebKit/605.1.15 (KHTML, like Gecko) Version/15.3 Safari/605.1.15",1792,1120,1323,941,"main",1063243,60,11,10,"HE","Extreme","Harder than Reference","D","j","riskyDeck","safeDeck",28,0,14,"left",1,0,60,"present","riskyDeck",462,2219,-1
"i4nu3505ov",736.276923076923,850.639157917567,13416,"21/03/2022@15:17:46","Mozilla/5.0 (Macintosh; Intel Mac OS X 10_15_7) AppleWebKit/605.1.15 (KHTML, like Gecko) Version/15.3 Safari/605.1.15",1792,1120,1323,941,"main",1063243,62,11,10,"EM","Moderate","Easier than Reference","D","k","safeDeck","riskyDeck",-28,0,-14,"left",0,0,18,"absent","safeDeck",417,1259,-1
"i4nu3505ov",736.276923076923,850.639157917567,13416,"21/03/2022@15:17:46","Mozilla/5.0 (Macintosh; Intel Mac OS X 10_15_7) AppleWebKit/605.1.15 (KHTML, like Gecko) Version/15.3 Safari/605.1.15",1792,1120,1323,941,"main",1063243,63,11,10,"HM","Moderate","Harder than Reference","F","j","safeDeck","riskyDeck",14,0,7,"right",1,0,32,"present","riskyDeck",512,2455,1
"i4nu3505ov",736.276923076923,850.639157917567,13416,"21/03/2022@15:17:46","Mozilla/5.0 (Macintosh; Intel Mac OS X 10_15_7) AppleWebKit/605.1.15 (KHTML, like Gecko) Version/15.3 Safari/605.1.15",1792,1120,1323,941,"main",1063243,64,11,10,"HE","Extreme","Harder than Reference","D","k","safeDeck","riskyDeck",28,0,14,"left",0,0,46,"absent","safeDeck",326,6180,-1
"i4nu3505ov",736.276923076923,850.639157917567,13416,"21/03/2022@15:17:46","Mozilla/5.0 (Macintosh; Intel Mac OS X 10_15_7) AppleWebKit/605.1.15 (KHTML, like Gecko) Version/15.3 Safari/605.1.15",1792,1120,1323,941,"main",1063243,65,11,10,"EE","Extreme","Easier than Reference","F","k","safeDeck","riskyDeck",0,-14,-7,"right",1,0,18,"absent","riskyDeck",472,3373,1
"i4nu3505ov",736.276923076923,850.639157917567,13416,"21/03/2022@15:17:46","Mozilla/5.0 (Macintosh; Intel Mac OS X 10_15_7) AppleWebKit/605.1.15 (KHTML, like Gecko) Version/15.3 Safari/605.1.15",1792,1120,1323,941,"main",1063243,66,11,10,"HE","Extreme","Harder than Reference","D","k","riskyDeck","safeDeck",0,28,14,"left",1,0,60,"absent","riskyDeck",1663,2780,-1
"i4nu3505ov",736.276923076923,850.639157917567,13416,"21/03/2022@15:17:46","Mozilla/5.0 (Macintosh; Intel Mac OS X 10_15_7) AppleWebKit/605.1.15 (KHTML, like Gecko) Version/15.3 Safari/605.1.15",1792,1120,1323,941,"main",1063243,67,11,10,"HM","Moderate","Harder than Reference","D","k","safeDeck","riskyDeck",0,14,7,"left",0,0,39,"absent","safeDeck",1239,985,-1
"i4nu3505ov",736.276923076923,850.639157917567,13416,"21/03/2022@15:17:46","Mozilla/5.0 (Macintosh; Intel Mac OS X 10_15_7) AppleWebKit/605.1.15 (KHTML, like Gecko) Version/15.3 Safari/605.1.15",1792,1120,1323,941,"main",1063243,68,12,11,"EM","Moderate","Easier than Reference","F","k","safeDeck","riskyDeck",0,-28,-14,"right",1,0,32,"absent","riskyDeck",458,3240,1
"i4nu3505ov",736.276923076923,850.639157917567,13416,"21/03/2022@15:17:46","Mozilla/5.0 (Macintosh; Intel Mac OS X 10_15_7) AppleWebKit/605.1.15 (KHTML, like Gecko) Version/15.3 Safari/605.1.15",1792,1120,1323,941,"main",1063243,69,12,11,"HM","Moderate","Harder than Reference","F","j","riskyDeck","safeDeck",0,14,7,"right",0,1,39,"absent","safeDeck",1177,4248,1
"i4nu3505ov",736.276923076923,850.639157917567,13416,"21/03/2022@15:17:46","Mozilla/5.0 (Macintosh; Intel Mac OS X 10_15_7) AppleWebKit/605.1.15 (KHTML, like Gecko) Version/15.3 Safari/605.1.15",1792,1120,1323,941,"main",1063243,70,12,11,"EE","Extreme","Easier than Reference","F","k","riskyDeck","safeDeck",0,-14,-7,"right",0,0,25,"absent","safeDeck",427,2974,1
"i4nu3505ov",736.276923076923,850.639157917567,13416,"21/03/2022@15:17:46","Mozilla/5.0 (Macintosh; Intel Mac OS X 10_15_7) AppleWebKit/605.1.15 (KHTML, like Gecko) Version/15.3 Safari/605.1.15",1792,1120,1323,941,"main",1063243,71,12,11,"HE","Extreme","Harder than Reference","F","j","riskyDeck","safeDeck",0,28,14,"right",0,1,46,"absent","safeDeck",1731,1636,1
"i4nu3505ov",736.276923076923,850.639157917567,13416,"21/03/2022@15:17:46","Mozilla/5.0 (Macintosh; Intel Mac OS X 10_15_7) AppleWebKit/605.1.15 (KHTML, like Gecko) Version/15.3 Safari/605.1.15",1792,1120,1323,941,"main",1063243,72,12,11,"EM","Moderate","Easier than Reference","F","j","riskyDeck","safeDeck",0,-28,-14,"right",0,0,18,"present","safeDeck",357,1085,1
"i4nu3505ov",736.276923076923,850.639157917567,13416,"21/03/2022@15:17:46","Mozilla/5.0 (Macintosh; Intel Mac OS X 10_15_7) AppleWebKit/605.1.15 (KHTML, like Gecko) Version/15.3 Safari/605.1.15",1792,1120,1323,941,"main",1063243,73,12,11,"HM","Moderate","Harder than Reference","D","j","safeDeck","riskyDeck",14,0,7,"left",0,0,39,"present","safeDeck",748,1611,-1
"i4nu3505ov",736.276923076923,850.639157917567,13416,"21/03/2022@15:17:46","Mozilla/5.0 (Macintosh; Intel Mac OS X 10_15_7) AppleWebKit/605.1.15 (KHTML, like Gecko) Version/15.3 Safari/605.1.15",1792,1120,1323,941,"main",1063243,74,12,11,"EM","Moderate","Easier than Reference","F","k","safeDeck","riskyDeck",0,-28,-14,"right",1,1,32,"present","riskyDeck",1646,1273,1
"i4nu3505ov",736.276923076923,850.639157917567,13416,"21/03/2022@15:17:46","Mozilla/5.0 (Macintosh; Intel Mac OS X 10_15_7) AppleWebKit/605.1.15 (KHTML, like Gecko) Version/15.3 Safari/605.1.15",1792,1120,1323,941,"main",1063243,76,12,11,"EE","Extreme","Easier than Reference","D","k","safeDeck","riskyDeck",0,-14,-7,"left",0,0,25,"absent","safeDeck",335,1296,-1
"i4nu3505ov",736.276923076923,850.639157917567,13416,"21/03/2022@15:17:46","Mozilla/5.0 (Macintosh; Intel Mac OS X 10_15_7) AppleWebKit/605.1.15 (KHTML, like Gecko) Version/15.3 Safari/605.1.15",1792,1120,1323,941,"main",1063243,77,12,11,"EM","Moderate","Easier than Reference","D","j","riskyDeck","safeDeck",0,-28,-14,"left",1,0,32,"present","riskyDeck",2165,1279,-1
"i4nu3505ov",736.276923076923,850.639157917567,13416,"21/03/2022@15:17:46","Mozilla/5.0 (Macintosh; Intel Mac OS X 10_15_7) AppleWebKit/605.1.15 (KHTML, like Gecko) Version/15.3 Safari/605.1.15",1792,1120,1323,941,"main",1063243,78,12,12,"EE","Extreme","Easier than Reference","D","k","safeDeck","riskyDeck",0,-14,-7,"left",0,1,25,"present","safeDeck",396,577,-1
"i4nu3505ov",736.276923076923,850.639157917567,13416,"21/03/2022@15:17:46","Mozilla/5.0 (Macintosh; Intel Mac OS X 10_15_7) AppleWebKit/605.1.15 (KHTML, like Gecko) Version/15.3 Safari/605.1.15",1792,1120,1323,941,"main",1063243,79,13,12,"HE","Extreme","Harder than Reference","F","k","safeDeck","riskyDeck",0,28,14,"right",1,0,32,"absent","riskyDeck",397,1467,1
"i4nu3505ov",736.276923076923,850.639157917567,13416,"21/03/2022@15:17:46","Mozilla/5.0 (Macintosh; Intel Mac OS X 10_15_7) AppleWebKit/605.1.15 (KHTML, like Gecko) Version/15.3 Safari/605.1.15",1792,1120,1323,941,"main",1063243,80,13,12,"HM","Moderate","Harder than Reference","F","k","riskyDeck","safeDeck",0,14,7,"right",0,0,39,"absent","safeDeck",319,2611,1
"i4nu3505ov",736.276923076923,850.639157917567,13416,"21/03/2022@15:17:46","Mozilla/5.0 (Macintosh; Intel Mac OS X 10_15_7) AppleWebKit/605.1.15 (KHTML, like Gecko) Version/15.3 Safari/605.1.15",1792,1120,1323,941,"main",1063243,81,13,12,"HM","Moderate","Harder than Reference","F","j","riskyDeck","safeDeck",0,14,7,"right",0,0,39,"present","safeDeck",387,4404,1
"i4nu3505ov",736.276923076923,850.639157917567,13416,"21/03/2022@15:17:46","Mozilla/5.0 (Macintosh; Intel Mac OS X 10_15_7) AppleWebKit/605.1.15 (KHTML, like Gecko) Version/15.3 Safari/605.1.15",1792,1120,1323,941,"main",1063243,82,13,12,"EM","Moderate","Easier than Reference","D","j","riskyDeck","safeDeck",-28,0,-14,"left",1,0,32,"present","riskyDeck",396,586,-1
"i4nu3505ov",736.276923076923,850.639157917567,13416,"21/03/2022@15:17:46","Mozilla/5.0 (Macintosh; Intel Mac OS X 10_15_7) AppleWebKit/605.1.15 (KHTML, like Gecko) Version/15.3 Safari/605.1.15",1792,1120,1323,941,"main",1063243,84,13,12,"HE","Extreme","Harder than Reference","D","j","riskyDeck","safeDeck",0,28,14,"left",1,1,32,"absent","riskyDeck",331,1248,-1
"i4nu3505ov",736.276923076923,850.639157917567,13416,"21/03/2022@15:17:46","Mozilla/5.0 (Macintosh; Intel Mac OS X 10_15_7) AppleWebKit/605.1.15 (KHTML, like Gecko) Version/15.3 Safari/605.1.15",1792,1120,1323,941,"main",1063243,85,13,12,"EE","Extreme","Easier than Reference","D","j","riskyDeck","safeDeck",0,-14,-7,"left",1,0,18,"present","riskyDeck",352,1649,-1
"i4nu3505ov",736.276923076923,850.639157917567,13416,"21/03/2022@15:17:46","Mozilla/5.0 (Macintosh; Intel Mac OS X 10_15_7) AppleWebKit/605.1.15 (KHTML, like Gecko) Version/15.3 Safari/605.1.15",1792,1120,1323,941,"main",1063243,86,13,12,"HE","Extreme","Harder than Reference","D","j","safeDeck","riskyDeck",0,28,14,"left",0,0,46,"present","safeDeck",1884,972,-1
"i4nu3505ov",736.276923076923,850.639157917567,13416,"21/03/2022@15:17:46","Mozilla/5.0 (Macintosh; Intel Mac OS X 10_15_7) AppleWebKit/605.1.15 (KHTML, like Gecko) Version/15.3 Safari/605.1.15",1792,1120,1323,941,"main",1063243,87,13,12,"HM","Moderate","Harder than Reference","D","j","safeDeck","riskyDeck",0,14,7,"left",0,1,39,"absent","safeDeck",349,334,-1
"i4nu3505ov",736.276923076923,850.639157917567,13416,"21/03/2022@15:17:46","Mozilla/5.0 (Macintosh; Intel Mac OS X 10_15_7) AppleWebKit/605.1.15 (KHTML, like Gecko) Version/15.3 Safari/605.1.15",1792,1120,1323,941,"main",1063243,88,13,12,"EM","Moderate","Easier than Reference","D","j","riskyDeck","safeDeck",-28,0,-14,"left",1,0,4,"present","riskyDeck",343,1082,-1
"i4nu3505ov",736.276923076923,850.639157917567,13416,"21/03/2022@15:17:46","Mozilla/5.0 (Macintosh; Intel Mac OS X 10_15_7) AppleWebKit/605.1.15 (KHTML, like Gecko) Version/15.3 Safari/605.1.15",1792,1120,1323,941,"main",1063243,89,13,12,"HM","Moderate","Harder than Reference","D","j","safeDeck","riskyDeck",0,14,7,"left",0,1,39,"absent","safeDeck",1016,548,-1
"i4nu3505ov",736.276923076923,850.639157917567,13416,"21/03/2022@15:17:46","Mozilla/5.0 (Macintosh; Intel Mac OS X 10_15_7) AppleWebKit/605.1.15 (KHTML, like Gecko) Version/15.3 Safari/605.1.15",1792,1120,1323,941,"main",1063243,90,14,13,"EE","Extreme","Easier than Reference","F","j","safeDeck","riskyDeck",0,-14,-7,"right",1,0,18,"present","riskyDeck",389,757,1
"i4nu3505ov",736.276923076923,850.639157917567,13416,"21/03/2022@15:17:46","Mozilla/5.0 (Macintosh; Intel Mac OS X 10_15_7) AppleWebKit/605.1.15 (KHTML, like Gecko) Version/15.3 Safari/605.1.15",1792,1120,1323,941,"main",1063243,91,14,13,"HE","Extreme","Harder than Reference","D","j","safeDeck","riskyDeck",28,0,14,"left",0,0,46,"present","safeDeck",312,1190,-1
"i4nu3505ov",736.276923076923,850.639157917567,13416,"21/03/2022@15:17:46","Mozilla/5.0 (Macintosh; Intel Mac OS X 10_15_7) AppleWebKit/605.1.15 (KHTML, like Gecko) Version/15.3 Safari/605.1.15",1792,1120,1323,941,"main",1063243,92,14,13,"EM","Moderate","Easier than Reference","D","k","riskyDeck","safeDeck",-28,0,-14,"left",1,0,32,"absent","riskyDeck",785,2858,-1
"i4nu3505ov",736.276923076923,850.639157917567,13416,"21/03/2022@15:17:46","Mozilla/5.0 (Macintosh; Intel Mac OS X 10_15_7) AppleWebKit/605.1.15 (KHTML, like Gecko) Version/15.3 Safari/605.1.15",1792,1120,1323,941,"main",1063243,93,14,13,"EE","Extreme","Easier than Reference","D","j","safeDeck","riskyDeck",0,-14,-7,"left",0,0,25,"present","safeDeck",499,2928,-1
"i4nu3505ov",736.276923076923,850.639157917567,13416,"21/03/2022@15:17:46","Mozilla/5.0 (Macintosh; Intel Mac OS X 10_15_7) AppleWebKit/605.1.15 (KHTML, like Gecko) Version/15.3 Safari/605.1.15",1792,1120,1323,941,"main",1063243,95,14,13,"HM","Moderate","Harder than Reference","D","k","safeDeck","riskyDeck",14,0,7,"left",0,1,39,"present","safeDeck",376,2126,-1
"i4nu3505ov",736.276923076923,850.639157917567,13416,"21/03/2022@15:17:46","Mozilla/5.0 (Macintosh; Intel Mac OS X 10_15_7) AppleWebKit/605.1.15 (KHTML, like Gecko) Version/15.3 Safari/605.1.15",1792,1120,1323,941,"main",1063243,96,14,13,"EM","Moderate","Easier than Reference","D","k","safeDeck","riskyDeck",-28,0,-14,"left",0,1,18,"present","safeDeck",438,703,-1
"i4nu3505ov",736.276923076923,850.639157917567,13416,"21/03/2022@15:17:46","Mozilla/5.0 (Macintosh; Intel Mac OS X 10_15_7) AppleWebKit/605.1.15 (KHTML, like Gecko) Version/15.3 Safari/605.1.15",1792,1120,1323,941,"main",1063243,97,14,13,"EE","Extreme","Easier than Reference","D","j","safeDeck","riskyDeck",-14,0,-7,"left",0,1,25,"absent","safeDeck",319,847,-1
"i4nu3505ov",736.276923076923,850.639157917567,13416,"21/03/2022@15:17:46","Mozilla/5.0 (Macintosh; Intel Mac OS X 10_15_7) AppleWebKit/605.1.15 (KHTML, like Gecko) Version/15.3 Safari/605.1.15",1792,1120,1323,941,"main",1063243,99,15,14,"HM","Moderate","Harder than Reference","F","k","safeDeck","riskyDeck",0,14,7,"right",1,1,46,"present","riskyDeck",592,3150,1
"i4nu3505ov",736.276923076923,850.639157917567,13416,"21/03/2022@15:17:46","Mozilla/5.0 (Macintosh; Intel Mac OS X 10_15_7) AppleWebKit/605.1.15 (KHTML, like Gecko) Version/15.3 Safari/605.1.15",1792,1120,1323,941,"main",1063243,101,15,14,"EM","Moderate","Easier than Reference","D","j","safeDeck","riskyDeck",-28,0,-14,"left",0,0,18,"present","safeDeck",338,1355,-1
"i4nu3505ov",736.276923076923,850.639157917567,13416,"21/03/2022@15:17:46","Mozilla/5.0 (Macintosh; Intel Mac OS X 10_15_7) AppleWebKit/605.1.15 (KHTML, like Gecko) Version/15.3 Safari/605.1.15",1792,1120,1323,941,"main",1063243,103,15,14,"HE","Extreme","Harder than Reference","D","j","safeDeck","riskyDeck",0,28,14,"left",0,0,46,"present","safeDeck",392,1635,-1
"i4nu3505ov",736.276923076923,850.639157917567,13416,"21/03/2022@15:17:46","Mozilla/5.0 (Macintosh; Intel Mac OS X 10_15_7) AppleWebKit/605.1.15 (KHTML, like Gecko) Version/15.3 Safari/605.1.15",1792,1120,1323,941,"main",1063243,104,15,14,"HM","Moderate","Harder than Reference","D","j","safeDeck","riskyDeck",0,14,7,"left",0,0,39,"present","safeDeck",375,2448,-1
"i4nu3505ov",736.276923076923,850.639157917567,13416,"21/03/2022@15:17:46","Mozilla/5.0 (Macintosh; Intel Mac OS X 10_15_7) AppleWebKit/605.1.15 (KHTML, like Gecko) Version/15.3 Safari/605.1.15",1792,1120,1323,941,"main",1063243,106,15,14,"EE","Extreme","Easier than Reference","D","j","safeDeck","riskyDeck",0,-14,-7,"left",0,0,25,"present","safeDeck",393,1594,-1
"i4nu3505ov",736.276923076923,850.639157917567,13416,"21/03/2022@15:17:46","Mozilla/5.0 (Macintosh; Intel Mac OS X 10_15_7) AppleWebKit/605.1.15 (KHTML, like Gecko) Version/15.3 Safari/605.1.15",1792,1120,1323,941,"main",1063243,107,15,14,"HE","Extreme","Harder than Reference","D","j","riskyDeck","safeDeck",28,0,14,"left",1,1,60,"absent","riskyDeck",777,499,-1
"i4nu3505ov",736.276923076923,850.639157917567,13416,"21/03/2022@15:17:46","Mozilla/5.0 (Macintosh; Intel Mac OS X 10_15_7) AppleWebKit/605.1.15 (KHTML, like Gecko) Version/15.3 Safari/605.1.15",1792,1120,1323,941,"main",1063243,108,15,14,"EM","Moderate","Easier than Reference","D","j","safeDeck","riskyDeck",-28,0,-14,"left",0,0,18,"present","safeDeck",317,1210,-1
"i4nu3505ov",736.276923076923,850.639157917567,13416,"21/03/2022@15:17:46","Mozilla/5.0 (Macintosh; Intel Mac OS X 10_15_7) AppleWebKit/605.1.15 (KHTML, like Gecko) Version/15.3 Safari/605.1.15",1792,1120,1323,941,"main",1063243,109,15,14,"HE","Extreme","Harder than Reference","D","j","riskyDeck","safeDeck",0,28,14,"left",1,1,60,"absent","riskyDeck",856,3058,-1
"i4nu3505ov",736.276923076923,850.639157917567,13416,"21/03/2022@15:17:46","Mozilla/5.0 (Macintosh; Intel Mac OS X 10_15_7) AppleWebKit/605.1.15 (KHTML, like Gecko) Version/15.3 Safari/605.1.15",1792,1120,1323,941,"main",1063243,111,16,15,"EE","Extreme","Easier than Reference","D","j","riskyDeck","safeDeck",0,-14,-7,"left",1,0,32,"present","riskyDeck",324,1197,-1
"i4nu3505ov",736.276923076923,850.639157917567,13416,"21/03/2022@15:17:46","Mozilla/5.0 (Macintosh; Intel Mac OS X 10_15_7) AppleWebKit/605.1.15 (KHTML, like Gecko) Version/15.3 Safari/605.1.15",1792,1120,1323,941,"main",1063243,112,16,15,"EM","Moderate","Easier than Reference","F","k","riskyDeck","safeDeck",0,-28,-14,"right",0,0,18,"absent","safeDeck",385,2711,1
"i4nu3505ov",736.276923076923,850.639157917567,13416,"21/03/2022@15:17:46","Mozilla/5.0 (Macintosh; Intel Mac OS X 10_15_7) AppleWebKit/605.1.15 (KHTML, like Gecko) Version/15.3 Safari/605.1.15",1792,1120,1323,941,"main",1063243,113,16,15,"HE","Extreme","Harder than Reference","F","j","safeDeck","riskyDeck",28,0,14,"right",1,0,60,"present","riskyDeck",435,870,1
"i4nu3505ov",736.276923076923,850.639157917567,13416,"21/03/2022@15:17:46","Mozilla/5.0 (Macintosh; Intel Mac OS X 10_15_7) AppleWebKit/605.1.15 (KHTML, like Gecko) Version/15.3 Safari/605.1.15",1792,1120,1323,941,"main",1063243,114,16,15,"EM","Moderate","Easier than Reference","D","k","safeDeck","riskyDeck",-28,0,-14,"left",0,0,18,"absent","safeDeck",323,1998,-1
"i4nu3505ov",736.276923076923,850.639157917567,13416,"21/03/2022@15:17:46","Mozilla/5.0 (Macintosh; Intel Mac OS X 10_15_7) AppleWebKit/605.1.15 (KHTML, like Gecko) Version/15.3 Safari/605.1.15",1792,1120,1323,941,"main",1063243,115,16,15,"EE","Extreme","Easier than Reference","D","j","riskyDeck","safeDeck",0,-14,-7,"left",1,0,18,"present","riskyDeck",1335,388,-1
"i4nu3505ov",736.276923076923,850.639157917567,13416,"21/03/2022@15:17:46","Mozilla/5.0 (Macintosh; Intel Mac OS X 10_15_7) AppleWebKit/605.1.15 (KHTML, like Gecko) Version/15.3 Safari/605.1.15",1792,1120,1323,941,"main",1063243,117,16,15,"HM","Moderate","Harder than Reference","D","j","riskyDeck","safeDeck",0,14,7,"left",1,0,32,"present","riskyDeck",343,360,-1
"i4nu3505ov",736.276923076923,850.639157917567,13416,"21/03/2022@15:17:46","Mozilla/5.0 (Macintosh; Intel Mac OS X 10_15_7) AppleWebKit/605.1.15 (KHTML, like Gecko) Version/15.3 Safari/605.1.15",1792,1120,1323,941,"main",1063243,118,16,15,"EM","Moderate","Easier than Reference","D","j","safeDeck","riskyDeck",0,-28,-14,"left",0,1,18,"absent","safeDeck",458,337,-1
"i4nu3505ov",736.276923076923,850.639157917567,13416,"21/03/2022@15:17:46","Mozilla/5.0 (Macintosh; Intel Mac OS X 10_15_7) AppleWebKit/605.1.15 (KHTML, like Gecko) Version/15.3 Safari/605.1.15",1792,1120,1323,941,"main",1063243,119,16,15,"HE","Extreme","Harder than Reference","D","j","safeDeck","riskyDeck",0,28,14,"left",0,1,46,"absent","safeDeck",523,730,-1
"i4nu3505ov",736.276923076923,850.639157917567,13416,"21/03/2022@15:17:46","Mozilla/5.0 (Macintosh; Intel Mac OS X 10_15_7) AppleWebKit/605.1.15 (KHTML, like Gecko) Version/15.3 Safari/605.1.15",1792,1120,1323,941,"main",1063243,120,16,15,"EE","Extreme","Easier than Reference","F","j","safeDeck","riskyDeck",-14,0,-7,"right",1,1,18,"absent","riskyDeck",455,633,1
"i4nu3505ov",736.276923076923,850.639157917567,13416,"21/03/2022@15:17:46","Mozilla/5.0 (Macintosh; Intel Mac OS X 10_15_7) AppleWebKit/605.1.15 (KHTML, like Gecko) Version/15.3 Safari/605.1.15",1792,1120,1323,941,"main",1063243,121,16,15,"HE","Extreme","Harder than Reference","D","j","safeDeck","riskyDeck",28,0,14,"left",0,1,46,"absent","safeDeck",424,368,-1
"i4nu3505ov",736.276923076923,850.639157917567,13416,"21/03/2022@15:17:46","Mozilla/5.0 (Macintosh; Intel Mac OS X 10_15_7) AppleWebKit/605.1.15 (KHTML, like Gecko) Version/15.3 Safari/605.1.15",1792,1120,1323,941,"main",1063243,122,16,15,"HM","Moderate","Harder than Reference","D","j","safeDeck","riskyDeck",0,14,7,"left",0,1,39,"absent","safeDeck",551,946,-1
"i4nu3505ov",736.276923076923,850.639157917567,13416,"21/03/2022@15:17:46","Mozilla/5.0 (Macintosh; Intel Mac OS X 10_15_7) AppleWebKit/605.1.15 (KHTML, like Gecko) Version/15.3 Safari/605.1.15",1792,1120,1323,941,"main",1063243,123,17,16,"EE","Extreme","Easier than Reference","D","k","riskyDeck","safeDeck",0,-14,-7,"left",1,0,18,"absent","riskyDeck",370,1555,-1
"i4nu3505ov",736.276923076923,850.639157917567,13416,"21/03/2022@15:17:46","Mozilla/5.0 (Macintosh; Intel Mac OS X 10_15_7) AppleWebKit/605.1.15 (KHTML, like Gecko) Version/15.3 Safari/605.1.15",1792,1120,1323,941,"main",1063243,124,17,16,"EM","Moderate","Easier than Reference","D","k","riskyDeck","safeDeck",0,-28,-14,"left",1,0,4,"absent","riskyDeck",708,835,-1
"i4nu3505ov",736.276923076923,850.639157917567,13416,"21/03/2022@15:17:46","Mozilla/5.0 (Macintosh; Intel Mac OS X 10_15_7) AppleWebKit/605.1.15 (KHTML, like Gecko) Version/15.3 Safari/605.1.15",1792,1120,1323,941,"main",1063243,125,17,16,"EM","Moderate","Easier than Reference","D","j","riskyDeck","safeDeck",0,-28,-14,"left",1,0,4,"present","riskyDeck",373,1253,-1
"i4nu3505ov",736.276923076923,850.639157917567,13416,"21/03/2022@15:17:46","Mozilla/5.0 (Macintosh; Intel Mac OS X 10_15_7) AppleWebKit/605.1.15 (KHTML, like Gecko) Version/15.3 Safari/605.1.15",1792,1120,1323,941,"main",1063243,126,17,16,"EE","Extreme","Easier than Reference","D","k","riskyDeck","safeDeck",0,-14,-7,"left",1,0,32,"absent","riskyDeck",406,2675,-1
"i4nu3505ov",736.276923076923,850.639157917567,13416,"21/03/2022@15:17:46","Mozilla/5.0 (Macintosh; Intel Mac OS X 10_15_7) AppleWebKit/605.1.15 (KHTML, like Gecko) Version/15.3 Safari/605.1.15",1792,1120,1323,941,"main",1063243,127,17,16,"HE","Extreme","Harder than Reference","D","j","safeDeck","riskyDeck",0,28,14,"left",0,0,46,"present","safeDeck",696,1020,-1
"i4nu3505ov",736.276923076923,850.639157917567,13416,"21/03/2022@15:17:46","Mozilla/5.0 (Macintosh; Intel Mac OS X 10_15_7) AppleWebKit/605.1.15 (KHTML, like Gecko) Version/15.3 Safari/605.1.15",1792,1120,1323,941,"main",1063243,128,17,16,"HM","Moderate","Harder than Reference","F","k","riskyDeck","safeDeck",14,0,7,"right",0,0,39,"absent","safeDeck",341,984,1
"i4nu3505ov",736.276923076923,850.639157917567,13416,"21/03/2022@15:17:46","Mozilla/5.0 (Macintosh; Intel Mac OS X 10_15_7) AppleWebKit/605.1.15 (KHTML, like Gecko) Version/15.3 Safari/605.1.15",1792,1120,1323,941,"main",1063243,130,17,16,"HE","Extreme","Harder than Reference","D","j","safeDeck","riskyDeck",28,0,14,"left",0,0,46,"present","safeDeck",313,1571,-1
"i4nu3505ov",736.276923076923,850.639157917567,13416,"21/03/2022@15:17:46","Mozilla/5.0 (Macintosh; Intel Mac OS X 10_15_7) AppleWebKit/605.1.15 (KHTML, like Gecko) Version/15.3 Safari/605.1.15",1792,1120,1323,941,"main",1063243,131,17,16,"HM","Moderate","Harder than Reference","D","k","riskyDeck","safeDeck",14,0,7,"left",1,0,46,"absent","riskyDeck",969,2102,-1
"i4nu3505ov",736.276923076923,850.639157917567,13416,"21/03/2022@15:17:46","Mozilla/5.0 (Macintosh; Intel Mac OS X 10_15_7) AppleWebKit/605.1.15 (KHTML, like Gecko) Version/15.3 Safari/605.1.15",1792,1120,1323,941,"main",1063243,132,17,16,"EM","Moderate","Easier than Reference","D","k","riskyDeck","safeDeck",-28,0,-14,"left",1,0,4,"absent","riskyDeck",501,1053,-1
"i4nu3505ov",736.276923076923,850.639157917567,13416,"21/03/2022@15:17:46","Mozilla/5.0 (Macintosh; Intel Mac OS X 10_15_7) AppleWebKit/605.1.15 (KHTML, like Gecko) Version/15.3 Safari/605.1.15",1792,1120,1323,941,"main",1063243,133,17,16,"EE","Extreme","Easier than Reference","D","j","riskyDeck","safeDeck",0,-14,-7,"left",1,0,32,"present","riskyDeck",609,1016,-1
"i4nu3505ov",736.276923076923,850.639157917567,13416,"21/03/2022@15:17:46","Mozilla/5.0 (Macintosh; Intel Mac OS X 10_15_7) AppleWebKit/605.1.15 (KHTML, like Gecko) Version/15.3 Safari/605.1.15",1792,1120,1323,941,"main",1063243,134,17,16,"HM","Moderate","Harder than Reference","D","j","safeDeck","riskyDeck",0,14,7,"left",0,0,39,"present","safeDeck",346,1059,-1
"i4nu3505ov",736.276923076923,850.639157917567,13416,"21/03/2022@15:17:46","Mozilla/5.0 (Macintosh; Intel Mac OS X 10_15_7) AppleWebKit/605.1.15 (KHTML, like Gecko) Version/15.3 Safari/605.1.15",1792,1120,1323,941,"main",1063243,135,17,16,"HE","Extreme","Harder than Reference","D","k","riskyDeck","safeDeck",28,0,14,"left",1,0,32,"absent","riskyDeck",301,1270,-1
"i4nu3505ov",736.276923076923,850.639157917567,13416,"21/03/2022@15:17:46","Mozilla/5.0 (Macintosh; Intel Mac OS X 10_15_7) AppleWebKit/605.1.15 (KHTML, like Gecko) Version/15.3 Safari/605.1.15",1792,1120,1323,941,"main",1063243,136,17,16,"EM","Moderate","Easier than Reference","D","j","safeDeck","riskyDeck",0,-28,-14,"left",0,0,18,"present","safeDeck",354,1184,-1
"i4nu3505ov",736.276923076923,850.639157917567,13416,"21/03/2022@15:17:46","Mozilla/5.0 (Macintosh; Intel Mac OS X 10_15_7) AppleWebKit/605.1.15 (KHTML, like Gecko) Version/15.3 Safari/605.1.15",1792,1120,1323,941,"main",1063243,137,17,17,"EM","Moderate","Easier than Reference","D","k","safeDeck","riskyDeck",0,-28,-14,"left",0,0,18,"absent","safeDeck",314,1370,-1
"i4nu3505ov",736.276923076923,850.639157917567,13416,"21/03/2022@15:17:46","Mozilla/5.0 (Macintosh; Intel Mac OS X 10_15_7) AppleWebKit/605.1.15 (KHTML, like Gecko) Version/15.3 Safari/605.1.15",1792,1120,1323,941,"main",1063243,139,18,17,"EE","Extreme","Easier than Reference","D","j","safeDeck","riskyDeck",-14,0,-7,"left",0,0,25,"present","safeDeck",400,792,-1
"i4nu3505ov",736.276923076923,850.639157917567,13416,"21/03/2022@15:17:46","Mozilla/5.0 (Macintosh; Intel Mac OS X 10_15_7) AppleWebKit/605.1.15 (KHTML, like Gecko) Version/15.3 Safari/605.1.15",1792,1120,1323,941,"main",1063243,140,18,17,"HE","Extreme","Harder than Reference","D","k","riskyDeck","safeDeck",0,28,14,"left",1,1,60,"present","riskyDeck",356,3374,-1
"i4nu3505ov",736.276923076923,850.639157917567,13416,"21/03/2022@15:17:46","Mozilla/5.0 (Macintosh; Intel Mac OS X 10_15_7) AppleWebKit/605.1.15 (KHTML, like Gecko) Version/15.3 Safari/605.1.15",1792,1120,1323,941,"main",1063243,141,18,17,"EE","Extreme","Easier than Reference","D","k","safeDeck","riskyDeck",0,-14,-7,"left",0,0,25,"absent","safeDeck",475,905,-1
"i4nu3505ov",736.276923076923,850.639157917567,13416,"21/03/2022@15:17:46","Mozilla/5.0 (Macintosh; Intel Mac OS X 10_15_7) AppleWebKit/605.1.15 (KHTML, like Gecko) Version/15.3 Safari/605.1.15",1792,1120,1323,941,"main",1063243,142,18,17,"EM","Moderate","Easier than Reference","D","k","safeDeck","riskyDeck",-28,0,-14,"left",0,1,18,"present","safeDeck",333,1026,-1
"i4nu3505ov",736.276923076923,850.639157917567,13416,"21/03/2022@15:17:46","Mozilla/5.0 (Macintosh; Intel Mac OS X 10_15_7) AppleWebKit/605.1.15 (KHTML, like Gecko) Version/15.3 Safari/605.1.15",1792,1120,1323,941,"main",1063243,143,18,17,"HM","Moderate","Harder than Reference","D","j","riskyDeck","safeDeck",14,0,7,"left",1,0,32,"present","riskyDeck",456,1111,-1
"i4nu3505ov",736.276923076923,850.639157917567,13416,"21/03/2022@15:17:46","Mozilla/5.0 (Macintosh; Intel Mac OS X 10_15_7) AppleWebKit/605.1.15 (KHTML, like Gecko) Version/15.3 Safari/605.1.15",1792,1120,1323,941,"main",1063243,144,18,17,"HE","Extreme","Harder than Reference","D","k","safeDeck","riskyDeck",0,28,14,"left",0,0,46,"absent","safeDeck",486,906,-1
"i4nu3505ov",736.276923076923,850.639157917567,13416,"21/03/2022@15:17:46","Mozilla/5.0 (Macintosh; Intel Mac OS X 10_15_7) AppleWebKit/605.1.15 (KHTML, like Gecko) Version/15.3 Safari/605.1.15",1792,1120,1323,941,"main",1063243,145,18,17,"EE","Extreme","Easier than Reference","D","k","riskyDeck","safeDeck",-14,0,-7,"left",1,0,32,"absent","riskyDeck",361,396,-1
"i4nu3505ov",736.276923076923,850.639157917567,13416,"21/03/2022@15:17:46","Mozilla/5.0 (Macintosh; Intel Mac OS X 10_15_7) AppleWebKit/605.1.15 (KHTML, like Gecko) Version/15.3 Safari/605.1.15",1792,1120,1323,941,"main",1063243,146,18,17,"HE","Extreme","Harder than Reference","D","j","riskyDeck","safeDeck",0,28,14,"left",1,1,60,"absent","riskyDeck",310,898,-1
"i4nu3505ov",736.276923076923,850.639157917567,13416,"21/03/2022@15:17:46","Mozilla/5.0 (Macintosh; Intel Mac OS X 10_15_7) AppleWebKit/605.1.15 (KHTML, like Gecko) Version/15.3 Safari/605.1.15",1792,1120,1323,941,"main",1063243,147,18,17,"HM","Moderate","Harder than Reference","D","k","riskyDeck","safeDeck",0,14,7,"left",1,1,46,"present","riskyDeck",384,389,-1
"i4nu3505ov",736.276923076923,850.639157917567,13416,"21/03/2022@15:17:46","Mozilla/5.0 (Macintosh; Intel Mac OS X 10_15_7) AppleWebKit/605.1.15 (KHTML, like Gecko) Version/15.3 Safari/605.1.15",1792,1120,1323,941,"main",1063243,148,18,17,"EM","Moderate","Easier than Reference","D","k","riskyDeck","safeDeck",-28,0,-14,"left",1,0,4,"absent","riskyDeck",440,681,-1
"i4nu3505ov",736.276923076923,850.639157917567,13416,"21/03/2022@15:17:46","Mozilla/5.0 (Macintosh; Intel Mac OS X 10_15_7) AppleWebKit/605.1.15 (KHTML, like Gecko) Version/15.3 Safari/605.1.15",1792,1120,1323,941,"main",1063243,150,19,18,"EM","Moderate","Easier than Reference","D","j","safeDeck","riskyDeck",-28,0,-14,"left",0,0,18,"present","safeDeck",347,1581,-1
"i4nu3505ov",736.276923076923,850.639157917567,13416,"21/03/2022@15:17:46","Mozilla/5.0 (Macintosh; Intel Mac OS X 10_15_7) AppleWebKit/605.1.15 (KHTML, like Gecko) Version/15.3 Safari/605.1.15",1792,1120,1323,941,"main",1063243,151,19,18,"HE","Extreme","Harder than Reference","D","k","safeDeck","riskyDeck",28,0,14,"left",0,0,46,"absent","safeDeck",320,998,-1
"i4nu3505ov",736.276923076923,850.639157917567,13416,"21/03/2022@15:17:46","Mozilla/5.0 (Macintosh; Intel Mac OS X 10_15_7) AppleWebKit/605.1.15 (KHTML, like Gecko) Version/15.3 Safari/605.1.15",1792,1120,1323,941,"main",1063243,152,19,18,"EE","Extreme","Easier than Reference","F","j","riskyDeck","safeDeck",-14,0,-7,"right",0,0,25,"present","safeDeck",352,1161,1
"nw06shun0sq",629.346666666667,474.712516135178,13462,"21/03/2022@15:58:49","Mozilla/5.0 (Macintosh; Intel Mac OS X 10_15_7) AppleWebKit/537.36 (KHTML, like Gecko) Chrome/97.0.4692.71 Safari/537.36",1440,900,1346,707,"main",851733,1,4,3,"HE","Extreme","Harder than Reference","D","k","safeDeck","riskyDeck",0,28,14,"left",0,1,46,"present","safeDeck",1345,2856,-1
"nw06shun0sq",629.346666666667,474.712516135178,13462,"21/03/2022@15:58:49","Mozilla/5.0 (Macintosh; Intel Mac OS X 10_15_7) AppleWebKit/537.36 (KHTML, like Gecko) Chrome/97.0.4692.71 Safari/537.36",1440,900,1346,707,"main",851733,2,4,3,"HM","Moderate","Harder than Reference","D","j","safeDeck","riskyDeck",14,0,7,"left",0,0,39,"present","safeDeck",666,2119,-1
"nw06shun0sq",629.346666666667,474.712516135178,13462,"21/03/2022@15:58:49","Mozilla/5.0 (Macintosh; Intel Mac OS X 10_15_7) AppleWebKit/537.36 (KHTML, like Gecko) Chrome/97.0.4692.71 Safari/537.36",1440,900,1346,707,"main",851733,3,4,3,"EM","Moderate","Easier than Reference","F","k","safeDeck","riskyDeck",0,-28,-14,"right",1,0,32,"absent","riskyDeck",579,1872,1
"nw06shun0sq",629.346666666667,474.712516135178,13462,"21/03/2022@15:58:49","Mozilla/5.0 (Macintosh; Intel Mac OS X 10_15_7) AppleWebKit/537.36 (KHTML, like Gecko) Chrome/97.0.4692.71 Safari/537.36",1440,900,1346,707,"main",851733,4,4,3,"EE","Extreme","Easier than Reference","D","k","safeDeck","riskyDeck",-14,0,-7,"left",0,0,25,"absent","safeDeck",634,1755,-1
"nw06shun0sq",629.346666666667,474.712516135178,13462,"21/03/2022@15:58:49","Mozilla/5.0 (Macintosh; Intel Mac OS X 10_15_7) AppleWebKit/537.36 (KHTML, like Gecko) Chrome/97.0.4692.71 Safari/537.36",1440,900,1346,707,"main",851733,5,4,3,"EE","Extreme","Easier than Reference","F","j","safeDeck","riskyDeck",-14,0,-7,"right",1,0,18,"present","riskyDeck",560,1695,1
"nw06shun0sq",629.346666666667,474.712516135178,13462,"21/03/2022@15:58:49","Mozilla/5.0 (Macintosh; Intel Mac OS X 10_15_7) AppleWebKit/537.36 (KHTML, like Gecko) Chrome/97.0.4692.71 Safari/537.36",1440,900,1346,707,"main",851733,6,4,3,"HM","Moderate","Harder than Reference","F","j","safeDeck","riskyDeck",14,0,7,"right",1,0,32,"present","riskyDeck",1433,855,1
"nw06shun0sq",629.346666666667,474.712516135178,13462,"21/03/2022@15:58:49","Mozilla/5.0 (Macintosh; Intel Mac OS X 10_15_7) AppleWebKit/537.36 (KHTML, like Gecko) Chrome/97.0.4692.71 Safari/537.36",1440,900,1346,707,"main",851733,7,4,3,"HE","Extreme","Harder than Reference","D","k","riskyDeck","safeDeck",28,0,14,"left",1,0,60,"absent","riskyDeck",779,2555,-1
"nw06shun0sq",629.346666666667,474.712516135178,13462,"21/03/2022@15:58:49","Mozilla/5.0 (Macintosh; Intel Mac OS X 10_15_7) AppleWebKit/537.36 (KHTML, like Gecko) Chrome/97.0.4692.71 Safari/537.36",1440,900,1346,707,"main",851733,8,4,3,"EM","Moderate","Easier than Reference","D","j","riskyDeck","safeDeck",-28,0,-14,"left",1,0,32,"present","riskyDeck",702,2454,-1
"nw06shun0sq",629.346666666667,474.712516135178,13462,"21/03/2022@15:58:49","Mozilla/5.0 (Macintosh; Intel Mac OS X 10_15_7) AppleWebKit/537.36 (KHTML, like Gecko) Chrome/97.0.4692.71 Safari/537.36",1440,900,1346,707,"main",851733,9,4,3,"EM","Moderate","Easier than Reference","D","k","riskyDeck","safeDeck",-28,0,-14,"left",1,0,32,"absent","riskyDeck",1427,2504,-1
"nw06shun0sq",629.346666666667,474.712516135178,13462,"21/03/2022@15:58:49","Mozilla/5.0 (Macintosh; Intel Mac OS X 10_15_7) AppleWebKit/537.36 (KHTML, like Gecko) Chrome/97.0.4692.71 Safari/537.36",1440,900,1346,707,"main",851733,11,4,3,"HM","Moderate","Harder than Reference","D","k","riskyDeck","safeDeck",0,14,7,"left",1,0,46,"absent","riskyDeck",345,1971,-1
"nw06shun0sq",629.346666666667,474.712516135178,13462,"21/03/2022@15:58:49","Mozilla/5.0 (Macintosh; Intel Mac OS X 10_15_7) AppleWebKit/537.36 (KHTML, like Gecko) Chrome/97.0.4692.71 Safari/537.36",1440,900,1346,707,"main",851733,12,4,4,"HE","Extreme","Harder than Reference","D","k","riskyDeck","safeDeck",0,28,14,"left",1,0,32,"absent","riskyDeck",1206,1887,-1
"nw06shun0sq",629.346666666667,474.712516135178,13462,"21/03/2022@15:58:49","Mozilla/5.0 (Macintosh; Intel Mac OS X 10_15_7) AppleWebKit/537.36 (KHTML, like Gecko) Chrome/97.0.4692.71 Safari/537.36",1440,900,1346,707,"main",851733,14,5,4,"HE","Extreme","Harder than Reference","F","k","safeDeck","riskyDeck",0,28,14,"right",1,0,60,"absent","riskyDeck",508,4438,1
"nw06shun0sq",629.346666666667,474.712516135178,13462,"21/03/2022@15:58:49","Mozilla/5.0 (Macintosh; Intel Mac OS X 10_15_7) AppleWebKit/537.36 (KHTML, like Gecko) Chrome/97.0.4692.71 Safari/537.36",1440,900,1346,707,"main",851733,16,5,4,"EE","Extreme","Easier than Reference","D","j","riskyDeck","safeDeck",-14,0,-7,"left",1,0,32,"present","riskyDeck",384,2100,-1
"nw06shun0sq",629.346666666667,474.712516135178,13462,"21/03/2022@15:58:49","Mozilla/5.0 (Macintosh; Intel Mac OS X 10_15_7) AppleWebKit/537.36 (KHTML, like Gecko) Chrome/97.0.4692.71 Safari/537.36",1440,900,1346,707,"main",851733,17,5,4,"EM","Moderate","Easier than Reference","D","j","safeDeck","riskyDeck",-28,0,-14,"left",0,0,18,"present","safeDeck",421,1259,-1
"nw06shun0sq",629.346666666667,474.712516135178,13462,"21/03/2022@15:58:49","Mozilla/5.0 (Macintosh; Intel Mac OS X 10_15_7) AppleWebKit/537.36 (KHTML, like Gecko) Chrome/97.0.4692.71 Safari/537.36",1440,900,1346,707,"main",851733,18,5,4,"HE","Extreme","Harder than Reference","F","k","safeDeck","riskyDeck",28,0,14,"right",1,1,60,"present","riskyDeck",482,2083,1
"nw06shun0sq",629.346666666667,474.712516135178,13462,"21/03/2022@15:58:49","Mozilla/5.0 (Macintosh; Intel Mac OS X 10_15_7) AppleWebKit/537.36 (KHTML, like Gecko) Chrome/97.0.4692.71 Safari/537.36",1440,900,1346,707,"main",851733,19,5,4,"HM","Moderate","Harder than Reference","D","k","riskyDeck","safeDeck",14,0,7,"left",1,0,32,"absent","riskyDeck",345,3076,-1
"nw06shun0sq",629.346666666667,474.712516135178,13462,"21/03/2022@15:58:49","Mozilla/5.0 (Macintosh; Intel Mac OS X 10_15_7) AppleWebKit/537.36 (KHTML, like Gecko) Chrome/97.0.4692.71 Safari/537.36",1440,900,1346,707,"main",851733,20,5,4,"EE","Extreme","Easier than Reference","F","k","riskyDeck","safeDeck",0,-14,-7,"right",0,0,25,"absent","safeDeck",378,2654,1
"nw06shun0sq",629.346666666667,474.712516135178,13462,"21/03/2022@15:58:49","Mozilla/5.0 (Macintosh; Intel Mac OS X 10_15_7) AppleWebKit/537.36 (KHTML, like Gecko) Chrome/97.0.4692.71 Safari/537.36",1440,900,1346,707,"main",851733,21,5,4,"HM","Moderate","Harder than Reference","F","k","safeDeck","riskyDeck",14,0,7,"right",1,0,46,"absent","riskyDeck",752,3543,1
"nw06shun0sq",629.346666666667,474.712516135178,13462,"21/03/2022@15:58:49","Mozilla/5.0 (Macintosh; Intel Mac OS X 10_15_7) AppleWebKit/537.36 (KHTML, like Gecko) Chrome/97.0.4692.71 Safari/537.36",1440,900,1346,707,"main",851733,22,5,4,"HE","Extreme","Harder than Reference","D","k","riskyDeck","safeDeck",0,28,14,"left",1,0,60,"absent","riskyDeck",462,4025,-1
"nw06shun0sq",629.346666666667,474.712516135178,13462,"21/03/2022@15:58:49","Mozilla/5.0 (Macintosh; Intel Mac OS X 10_15_7) AppleWebKit/537.36 (KHTML, like Gecko) Chrome/97.0.4692.71 Safari/537.36",1440,900,1346,707,"main",851733,23,5,5,"EE","Extreme","Easier than Reference","F","k","safeDeck","riskyDeck",-14,0,-7,"right",1,0,32,"absent","riskyDeck",429,2424,1
"nw06shun0sq",629.346666666667,474.712516135178,13462,"21/03/2022@15:58:49","Mozilla/5.0 (Macintosh; Intel Mac OS X 10_15_7) AppleWebKit/537.36 (KHTML, like Gecko) Chrome/97.0.4692.71 Safari/537.36",1440,900,1346,707,"main",851733,24,6,5,"EM","Moderate","Easier than Reference","D","k","riskyDeck","safeDeck",0,-28,-14,"left",1,0,32,"absent","riskyDeck",442,3905,-1
"nw06shun0sq",629.346666666667,474.712516135178,13462,"21/03/2022@15:58:49","Mozilla/5.0 (Macintosh; Intel Mac OS X 10_15_7) AppleWebKit/537.36 (KHTML, like Gecko) Chrome/97.0.4692.71 Safari/537.36",1440,900,1346,707,"main",851733,25,6,5,"EM","Moderate","Easier than Reference","F","j","safeDeck","riskyDeck",0,-28,-14,"right",1,0,4,"present","riskyDeck",395,862,1
"nw06shun0sq",629.346666666667,474.712516135178,13462,"21/03/2022@15:58:49","Mozilla/5.0 (Macintosh; Intel Mac OS X 10_15_7) AppleWebKit/537.36 (KHTML, like Gecko) Chrome/97.0.4692.71 Safari/537.36",1440,900,1346,707,"main",851733,26,6,5,"HM","Moderate","Harder than Reference","D","k","safeDeck","riskyDeck",14,0,7,"left",0,0,39,"absent","safeDeck",531,4219,-1
"nw06shun0sq",629.346666666667,474.712516135178,13462,"21/03/2022@15:58:49","Mozilla/5.0 (Macintosh; Intel Mac OS X 10_15_7) AppleWebKit/537.36 (KHTML, like Gecko) Chrome/97.0.4692.71 Safari/537.36",1440,900,1346,707,"main",851733,27,6,5,"EE","Extreme","Easier than Reference","F","j","safeDeck","riskyDeck",-14,0,-7,"right",1,0,18,"present","riskyDeck",554,1681,1
"nw06shun0sq",629.346666666667,474.712516135178,13462,"21/03/2022@15:58:49","Mozilla/5.0 (Macintosh; Intel Mac OS X 10_15_7) AppleWebKit/537.36 (KHTML, like Gecko) Chrome/97.0.4692.71 Safari/537.36",1440,900,1346,707,"main",851733,28,6,5,"HE","Extreme","Harder than Reference","F","k","safeDeck","riskyDeck",28,0,14,"right",1,0,60,"absent","riskyDeck",497,2795,1
"nw06shun0sq",629.346666666667,474.712516135178,13462,"21/03/2022@15:58:49","Mozilla/5.0 (Macintosh; Intel Mac OS X 10_15_7) AppleWebKit/537.36 (KHTML, like Gecko) Chrome/97.0.4692.71 Safari/537.36",1440,900,1346,707,"main",851733,29,6,5,"HE","Extreme","Harder than Reference","D","j","riskyDeck","safeDeck",0,28,14,"left",1,0,60,"present","riskyDeck",673,1667,-1
"nw06shun0sq",629.346666666667,474.712516135178,13462,"21/03/2022@15:58:49","Mozilla/5.0 (Macintosh; Intel Mac OS X 10_15_7) AppleWebKit/537.36 (KHTML, like Gecko) Chrome/97.0.4692.71 Safari/537.36",1440,900,1346,707,"main",851733,30,6,5,"EE","Extreme","Easier than Reference","D","k","safeDeck","riskyDeck",-14,0,-7,"left",0,0,25,"absent","safeDeck",422,2517,-1
"nw06shun0sq",629.346666666667,474.712516135178,13462,"21/03/2022@15:58:49","Mozilla/5.0 (Macintosh; Intel Mac OS X 10_15_7) AppleWebKit/537.36 (KHTML, like Gecko) Chrome/97.0.4692.71 Safari/537.36",1440,900,1346,707,"main",851733,31,6,5,"HM","Moderate","Harder than Reference","F","j","riskyDeck","safeDeck",14,0,7,"right",0,0,39,"present","safeDeck",303,982,1
"nw06shun0sq",629.346666666667,474.712516135178,13462,"21/03/2022@15:58:49","Mozilla/5.0 (Macintosh; Intel Mac OS X 10_15_7) AppleWebKit/537.36 (KHTML, like Gecko) Chrome/97.0.4692.71 Safari/537.36",1440,900,1346,707,"main",851733,32,6,5,"EM","Moderate","Easier than Reference","D","j","riskyDeck","safeDeck",0,-28,-14,"left",1,0,4,"present","riskyDeck",635,683,-1
"nw06shun0sq",629.346666666667,474.712516135178,13462,"21/03/2022@15:58:49","Mozilla/5.0 (Macintosh; Intel Mac OS X 10_15_7) AppleWebKit/537.36 (KHTML, like Gecko) Chrome/97.0.4692.71 Safari/537.36",1440,900,1346,707,"main",851733,33,6,5,"EM","Moderate","Easier than Reference","D","j","safeDeck","riskyDeck",0,-28,-14,"left",0,0,18,"present","safeDeck",395,2041,-1
"nw06shun0sq",629.346666666667,474.712516135178,13462,"21/03/2022@15:58:49","Mozilla/5.0 (Macintosh; Intel Mac OS X 10_15_7) AppleWebKit/537.36 (KHTML, like Gecko) Chrome/97.0.4692.71 Safari/537.36",1440,900,1346,707,"main",851733,34,6,5,"HE","Extreme","Harder than Reference","F","j","safeDeck","riskyDeck",0,28,14,"right",1,0,32,"present","riskyDeck",499,885,1
"nw06shun0sq",629.346666666667,474.712516135178,13462,"21/03/2022@15:58:49","Mozilla/5.0 (Macintosh; Intel Mac OS X 10_15_7) AppleWebKit/537.36 (KHTML, like Gecko) Chrome/97.0.4692.71 Safari/537.36",1440,900,1346,707,"main",851733,35,6,5,"EE","Extreme","Easier than Reference","D","k","riskyDeck","safeDeck",-14,0,-7,"left",1,0,32,"absent","riskyDeck",370,2350,-1
"nw06shun0sq",629.346666666667,474.712516135178,13462,"21/03/2022@15:58:49","Mozilla/5.0 (Macintosh; Intel Mac OS X 10_15_7) AppleWebKit/537.36 (KHTML, like Gecko) Chrome/97.0.4692.71 Safari/537.36",1440,900,1346,707,"main",851733,36,6,5,"HM","Moderate","Harder than Reference","F","j","safeDeck","riskyDeck",14,0,7,"right",1,0,46,"present","riskyDeck",418,942,1
"nw06shun0sq",629.346666666667,474.712516135178,13462,"21/03/2022@15:58:49","Mozilla/5.0 (Macintosh; Intel Mac OS X 10_15_7) AppleWebKit/537.36 (KHTML, like Gecko) Chrome/97.0.4692.71 Safari/537.36",1440,900,1346,707,"main",851733,37,6,6,"HM","Moderate","Harder than Reference","D","j","riskyDeck","safeDeck",0,14,7,"left",1,0,32,"present","riskyDeck",438,825,-1
"nw06shun0sq",629.346666666667,474.712516135178,13462,"21/03/2022@15:58:49","Mozilla/5.0 (Macintosh; Intel Mac OS X 10_15_7) AppleWebKit/537.36 (KHTML, like Gecko) Chrome/97.0.4692.71 Safari/537.36",1440,900,1346,707,"main",851733,38,7,6,"EE","Extreme","Easier than Reference","D","j","riskyDeck","safeDeck",0,-14,-7,"left",1,0,32,"present","riskyDeck",412,825,-1
"nw06shun0sq",629.346666666667,474.712516135178,13462,"21/03/2022@15:58:49","Mozilla/5.0 (Macintosh; Intel Mac OS X 10_15_7) AppleWebKit/537.36 (KHTML, like Gecko) Chrome/97.0.4692.71 Safari/537.36",1440,900,1346,707,"main",851733,39,7,6,"EM","Moderate","Easier than Reference","F","k","safeDeck","riskyDeck",0,-28,-14,"right",1,0,32,"absent","riskyDeck",1160,2347,1
"nw06shun0sq",629.346666666667,474.712516135178,13462,"21/03/2022@15:58:49","Mozilla/5.0 (Macintosh; Intel Mac OS X 10_15_7) AppleWebKit/537.36 (KHTML, like Gecko) Chrome/97.0.4692.71 Safari/537.36",1440,900,1346,707,"main",851733,40,7,6,"HE","Extreme","Harder than Reference","D","j","riskyDeck","safeDeck",28,0,14,"left",1,0,32,"present","riskyDeck",580,1311,-1
"nw06shun0sq",629.346666666667,474.712516135178,13462,"21/03/2022@15:58:49","Mozilla/5.0 (Macintosh; Intel Mac OS X 10_15_7) AppleWebKit/537.36 (KHTML, like Gecko) Chrome/97.0.4692.71 Safari/537.36",1440,900,1346,707,"main",851733,41,7,6,"EE","Extreme","Easier than Reference","F","j","riskyDeck","safeDeck",-14,0,-7,"right",0,0,25,"present","safeDeck",389,1275,1
"nw06shun0sq",629.346666666667,474.712516135178,13462,"21/03/2022@15:58:49","Mozilla/5.0 (Macintosh; Intel Mac OS X 10_15_7) AppleWebKit/537.36 (KHTML, like Gecko) Chrome/97.0.4692.71 Safari/537.36",1440,900,1346,707,"main",851733,42,7,6,"HE","Extreme","Harder than Reference","D","j","safeDeck","riskyDeck",0,28,14,"left",0,0,46,"present","safeDeck",667,986,-1
"nw06shun0sq",629.346666666667,474.712516135178,13462,"21/03/2022@15:58:49","Mozilla/5.0 (Macintosh; Intel Mac OS X 10_15_7) AppleWebKit/537.36 (KHTML, like Gecko) Chrome/97.0.4692.71 Safari/537.36",1440,900,1346,707,"main",851733,43,7,6,"EM","Moderate","Easier than Reference","F","j","riskyDeck","safeDeck",0,-28,-14,"right",0,0,18,"present","safeDeck",437,1507,1
"nw06shun0sq",629.346666666667,474.712516135178,13462,"21/03/2022@15:58:49","Mozilla/5.0 (Macintosh; Intel Mac OS X 10_15_7) AppleWebKit/537.36 (KHTML, like Gecko) Chrome/97.0.4692.71 Safari/537.36",1440,900,1346,707,"main",851733,44,7,6,"HM","Moderate","Harder than Reference","D","j","riskyDeck","safeDeck",0,14,7,"left",1,0,46,"present","riskyDeck",545,876,-1
"nw06shun0sq",629.346666666667,474.712516135178,13462,"21/03/2022@15:58:49","Mozilla/5.0 (Macintosh; Intel Mac OS X 10_15_7) AppleWebKit/537.36 (KHTML, like Gecko) Chrome/97.0.4692.71 Safari/537.36",1440,900,1346,707,"main",851733,45,7,6,"HM","Moderate","Harder than Reference","F","k","safeDeck","riskyDeck",14,0,7,"right",1,1,46,"present","riskyDeck",542,2161,1
"nw06shun0sq",629.346666666667,474.712516135178,13462,"21/03/2022@15:58:49","Mozilla/5.0 (Macintosh; Intel Mac OS X 10_15_7) AppleWebKit/537.36 (KHTML, like Gecko) Chrome/97.0.4692.71 Safari/537.36",1440,900,1346,707,"main",851733,46,7,6,"EM","Moderate","Easier than Reference","D","k","safeDeck","riskyDeck",-28,0,-14,"left",0,0,18,"absent","safeDeck",471,1715,-1
"nw06shun0sq",629.346666666667,474.712516135178,13462,"21/03/2022@15:58:49","Mozilla/5.0 (Macintosh; Intel Mac OS X 10_15_7) AppleWebKit/537.36 (KHTML, like Gecko) Chrome/97.0.4692.71 Safari/537.36",1440,900,1346,707,"main",851733,47,7,6,"EE","Extreme","Easier than Reference","F","j","safeDeck","riskyDeck",0,-14,-7,"right",1,0,18,"present","riskyDeck",588,1172,1
"nw06shun0sq",629.346666666667,474.712516135178,13462,"21/03/2022@15:58:49","Mozilla/5.0 (Macintosh; Intel Mac OS X 10_15_7) AppleWebKit/537.36 (KHTML, like Gecko) Chrome/97.0.4692.71 Safari/537.36",1440,900,1346,707,"main",851733,48,7,6,"HE","Extreme","Harder than Reference","F","j","safeDeck","riskyDeck",0,28,14,"right",1,0,32,"present","riskyDeck",535,1361,1
"nw06shun0sq",629.346666666667,474.712516135178,13462,"21/03/2022@15:58:49","Mozilla/5.0 (Macintosh; Intel Mac OS X 10_15_7) AppleWebKit/537.36 (KHTML, like Gecko) Chrome/97.0.4692.71 Safari/537.36",1440,900,1346,707,"main",851733,49,7,6,"EE","Extreme","Easier than Reference","D","k","safeDeck","riskyDeck",-14,0,-7,"left",0,0,25,"absent","safeDeck",395,1763,-1
"nw06shun0sq",629.346666666667,474.712516135178,13462,"21/03/2022@15:58:49","Mozilla/5.0 (Macintosh; Intel Mac OS X 10_15_7) AppleWebKit/537.36 (KHTML, like Gecko) Chrome/97.0.4692.71 Safari/537.36",1440,900,1346,707,"main",851733,50,7,7,"EM","Moderate","Easier than Reference","D","j","safeDeck","riskyDeck",0,-28,-14,"left",0,0,18,"present","safeDeck",448,696,-1
"nw06shun0sq",629.346666666667,474.712516135178,13462,"21/03/2022@15:58:49","Mozilla/5.0 (Macintosh; Intel Mac OS X 10_15_7) AppleWebKit/537.36 (KHTML, like Gecko) Chrome/97.0.4692.71 Safari/537.36",1440,900,1346,707,"main",851733,51,7,7,"HM","Moderate","Harder than Reference","F","j","riskyDeck","safeDeck",0,14,7,"right",0,0,39,"present","safeDeck",495,765,1
"nw06shun0sq",629.346666666667,474.712516135178,13462,"21/03/2022@15:58:49","Mozilla/5.0 (Macintosh; Intel Mac OS X 10_15_7) AppleWebKit/537.36 (KHTML, like Gecko) Chrome/97.0.4692.71 Safari/537.36",1440,900,1346,707,"main",851733,52,8,7,"HE","Extreme","Harder than Reference","D","j","riskyDeck","safeDeck",0,28,14,"left",1,0,60,"present","riskyDeck",520,4524,-1
"nw06shun0sq",629.346666666667,474.712516135178,13462,"21/03/2022@15:58:49","Mozilla/5.0 (Macintosh; Intel Mac OS X 10_15_7) AppleWebKit/537.36 (KHTML, like Gecko) Chrome/97.0.4692.71 Safari/537.36",1440,900,1346,707,"main",851733,53,8,7,"HE","Extreme","Harder than Reference","D","j","safeDeck","riskyDeck",0,28,14,"left",0,0,46,"present","safeDeck",434,1050,-1
"nw06shun0sq",629.346666666667,474.712516135178,13462,"21/03/2022@15:58:49","Mozilla/5.0 (Macintosh; Intel Mac OS X 10_15_7) AppleWebKit/537.36 (KHTML, like Gecko) Chrome/97.0.4692.71 Safari/537.36",1440,900,1346,707,"main",851733,54,8,7,"EE","Extreme","Easier than Reference","D","j","safeDeck","riskyDeck",-14,0,-7,"left",0,0,25,"present","safeDeck",404,838,-1
"nw06shun0sq",629.346666666667,474.712516135178,13462,"21/03/2022@15:58:49","Mozilla/5.0 (Macintosh; Intel Mac OS X 10_15_7) AppleWebKit/537.36 (KHTML, like Gecko) Chrome/97.0.4692.71 Safari/537.36",1440,900,1346,707,"main",851733,55,8,7,"EM","Moderate","Easier than Reference","D","k","safeDeck","riskyDeck",0,-28,-14,"left",0,0,18,"absent","safeDeck",366,1463,-1
"nw06shun0sq",629.346666666667,474.712516135178,13462,"21/03/2022@15:58:49","Mozilla/5.0 (Macintosh; Intel Mac OS X 10_15_7) AppleWebKit/537.36 (KHTML, like Gecko) Chrome/97.0.4692.71 Safari/537.36",1440,900,1346,707,"main",851733,56,8,7,"HM","Moderate","Harder than Reference","F","j","safeDeck","riskyDeck",0,14,7,"right",1,0,32,"present","riskyDeck",488,1099,1
"nw06shun0sq",629.346666666667,474.712516135178,13462,"21/03/2022@15:58:49","Mozilla/5.0 (Macintosh; Intel Mac OS X 10_15_7) AppleWebKit/537.36 (KHTML, like Gecko) Chrome/97.0.4692.71 Safari/537.36",1440,900,1346,707,"main",851733,58,8,7,"EM","Moderate","Easier than Reference","F","k","safeDeck","riskyDeck",-28,0,-14,"right",1,0,32,"absent","riskyDeck",467,2019,1
"nw06shun0sq",629.346666666667,474.712516135178,13462,"21/03/2022@15:58:49","Mozilla/5.0 (Macintosh; Intel Mac OS X 10_15_7) AppleWebKit/537.36 (KHTML, like Gecko) Chrome/97.0.4692.71 Safari/537.36",1440,900,1346,707,"main",851733,59,8,7,"HE","Extreme","Harder than Reference","D","k","safeDeck","riskyDeck",0,28,14,"left",0,0,46,"absent","safeDeck",624,2613,-1
"nw06shun0sq",629.346666666667,474.712516135178,13462,"21/03/2022@15:58:49","Mozilla/5.0 (Macintosh; Intel Mac OS X 10_15_7) AppleWebKit/537.36 (KHTML, like Gecko) Chrome/97.0.4692.71 Safari/537.36",1440,900,1346,707,"main",851733,60,8,7,"EE","Extreme","Easier than Reference","D","j","safeDeck","riskyDeck",-14,0,-7,"left",0,0,25,"present","safeDeck",646,1070,-1
"nw06shun0sq",629.346666666667,474.712516135178,13462,"21/03/2022@15:58:49","Mozilla/5.0 (Macintosh; Intel Mac OS X 10_15_7) AppleWebKit/537.36 (KHTML, like Gecko) Chrome/97.0.4692.71 Safari/537.36",1440,900,1346,707,"main",851733,61,8,7,"EM","Moderate","Easier than Reference","D","j","safeDeck","riskyDeck",-28,0,-14,"left",0,0,18,"present","safeDeck",349,1466,-1
"nw06shun0sq",629.346666666667,474.712516135178,13462,"21/03/2022@15:58:49","Mozilla/5.0 (Macintosh; Intel Mac OS X 10_15_7) AppleWebKit/537.36 (KHTML, like Gecko) Chrome/97.0.4692.71 Safari/537.36",1440,900,1346,707,"main",851733,62,8,7,"HM","Moderate","Harder than Reference","F","k","safeDeck","riskyDeck",14,0,7,"right",1,0,32,"absent","riskyDeck",418,1849,1
"nw06shun0sq",629.346666666667,474.712516135178,13462,"21/03/2022@15:58:49","Mozilla/5.0 (Macintosh; Intel Mac OS X 10_15_7) AppleWebKit/537.36 (KHTML, like Gecko) Chrome/97.0.4692.71 Safari/537.36",1440,900,1346,707,"main",851733,63,8,7,"EE","Extreme","Easier than Reference","D","j","safeDeck","riskyDeck",0,-14,-7,"left",0,0,25,"present","safeDeck",393,1038,-1
"nw06shun0sq",629.346666666667,474.712516135178,13462,"21/03/2022@15:58:49","Mozilla/5.0 (Macintosh; Intel Mac OS X 10_15_7) AppleWebKit/537.36 (KHTML, like Gecko) Chrome/97.0.4692.71 Safari/537.36",1440,900,1346,707,"main",851733,64,8,8,"HE","Extreme","Harder than Reference","F","k","riskyDeck","safeDeck",0,28,14,"right",0,0,46,"absent","safeDeck",543,2237,1
"nw06shun0sq",629.346666666667,474.712516135178,13462,"21/03/2022@15:58:49","Mozilla/5.0 (Macintosh; Intel Mac OS X 10_15_7) AppleWebKit/537.36 (KHTML, like Gecko) Chrome/97.0.4692.71 Safari/537.36",1440,900,1346,707,"main",851733,65,9,8,"HE","Extreme","Harder than Reference","D","k","riskyDeck","safeDeck",28,0,14,"left",1,0,60,"absent","riskyDeck",563,3092,-1
"nw06shun0sq",629.346666666667,474.712516135178,13462,"21/03/2022@15:58:49","Mozilla/5.0 (Macintosh; Intel Mac OS X 10_15_7) AppleWebKit/537.36 (KHTML, like Gecko) Chrome/97.0.4692.71 Safari/537.36",1440,900,1346,707,"main",851733,66,9,8,"EM","Moderate","Easier than Reference","D","k","safeDeck","riskyDeck",0,-28,-14,"left",0,1,18,"present","safeDeck",408,1853,-1
"nw06shun0sq",629.346666666667,474.712516135178,13462,"21/03/2022@15:58:49","Mozilla/5.0 (Macintosh; Intel Mac OS X 10_15_7) AppleWebKit/537.36 (KHTML, like Gecko) Chrome/97.0.4692.71 Safari/537.36",1440,900,1346,707,"main",851733,67,9,8,"EE","Extreme","Easier than Reference","D","k","riskyDeck","safeDeck",0,-14,-7,"left",1,0,32,"absent","riskyDeck",419,2104,-1
"nw06shun0sq",629.346666666667,474.712516135178,13462,"21/03/2022@15:58:49","Mozilla/5.0 (Macintosh; Intel Mac OS X 10_15_7) AppleWebKit/537.36 (KHTML, like Gecko) Chrome/97.0.4692.71 Safari/537.36",1440,900,1346,707,"main",851733,68,9,8,"HM","Moderate","Harder than Reference","D","j","safeDeck","riskyDeck",0,14,7,"left",0,0,39,"present","safeDeck",432,1979,-1
"nw06shun0sq",629.346666666667,474.712516135178,13462,"21/03/2022@15:58:49","Mozilla/5.0 (Macintosh; Intel Mac OS X 10_15_7) AppleWebKit/537.36 (KHTML, like Gecko) Chrome/97.0.4692.71 Safari/537.36",1440,900,1346,707,"main",851733,69,9,8,"EM","Moderate","Easier than Reference","D","j","riskyDeck","safeDeck",-28,0,-14,"left",1,0,4,"present","riskyDeck",414,658,-1
"nw06shun0sq",629.346666666667,474.712516135178,13462,"21/03/2022@15:58:49","Mozilla/5.0 (Macintosh; Intel Mac OS X 10_15_7) AppleWebKit/537.36 (KHTML, like Gecko) Chrome/97.0.4692.71 Safari/537.36",1440,900,1346,707,"main",851733,70,9,8,"HM","Moderate","Harder than Reference","D","k","riskyDeck","safeDeck",0,14,7,"left",1,0,46,"absent","riskyDeck",499,1610,-1
"nw06shun0sq",629.346666666667,474.712516135178,13462,"21/03/2022@15:58:49","Mozilla/5.0 (Macintosh; Intel Mac OS X 10_15_7) AppleWebKit/537.36 (KHTML, like Gecko) Chrome/97.0.4692.71 Safari/537.36",1440,900,1346,707,"main",851733,71,9,8,"HE","Extreme","Harder than Reference","D","j","riskyDeck","safeDeck",28,0,14,"left",1,0,32,"present","riskyDeck",430,1894,-1
"nw06shun0sq",629.346666666667,474.712516135178,13462,"21/03/2022@15:58:49","Mozilla/5.0 (Macintosh; Intel Mac OS X 10_15_7) AppleWebKit/537.36 (KHTML, like Gecko) Chrome/97.0.4692.71 Safari/537.36",1440,900,1346,707,"main",851733,72,9,8,"EE","Extreme","Easier than Reference","D","j","riskyDeck","safeDeck",-14,0,-7,"left",1,0,18,"present","riskyDeck",457,727,-1
"nw06shun0sq",629.346666666667,474.712516135178,13462,"21/03/2022@15:58:49","Mozilla/5.0 (Macintosh; Intel Mac OS X 10_15_7) AppleWebKit/537.36 (KHTML, like Gecko) Chrome/97.0.4692.71 Safari/537.36",1440,900,1346,707,"main",851733,73,9,8,"EE","Extreme","Easier than Reference","D","k","riskyDeck","safeDeck",-14,0,-7,"left",1,0,32,"absent","riskyDeck",408,1823,-1
"nw06shun0sq",629.346666666667,474.712516135178,13462,"21/03/2022@15:58:49","Mozilla/5.0 (Macintosh; Intel Mac OS X 10_15_7) AppleWebKit/537.36 (KHTML, like Gecko) Chrome/97.0.4692.71 Safari/537.36",1440,900,1346,707,"main",851733,74,9,8,"HM","Moderate","Harder than Reference","F","k","safeDeck","riskyDeck",0,14,7,"right",1,0,32,"absent","riskyDeck",1072,1528,1
"nw06shun0sq",629.346666666667,474.712516135178,13462,"21/03/2022@15:58:49","Mozilla/5.0 (Macintosh; Intel Mac OS X 10_15_7) AppleWebKit/537.36 (KHTML, like Gecko) Chrome/97.0.4692.71 Safari/537.36",1440,900,1346,707,"main",851733,75,9,8,"EM","Moderate","Easier than Reference","D","j","safeDeck","riskyDeck",-28,0,-14,"left",0,0,18,"present","safeDeck",336,1458,-1
"nw06shun0sq",629.346666666667,474.712516135178,13462,"21/03/2022@15:58:49","Mozilla/5.0 (Macintosh; Intel Mac OS X 10_15_7) AppleWebKit/537.36 (KHTML, like Gecko) Chrome/97.0.4692.71 Safari/537.36",1440,900,1346,707,"main",851733,76,9,8,"HE","Extreme","Harder than Reference","D","j","safeDeck","riskyDeck",28,0,14,"left",0,0,46,"present","safeDeck",557,2044,-1
"nw06shun0sq",629.346666666667,474.712516135178,13462,"21/03/2022@15:58:49","Mozilla/5.0 (Macintosh; Intel Mac OS X 10_15_7) AppleWebKit/537.36 (KHTML, like Gecko) Chrome/97.0.4692.71 Safari/537.36",1440,900,1346,707,"main",851733,78,10,9,"HE","Extreme","Harder than Reference","D","k","riskyDeck","safeDeck",28,0,14,"left",1,1,60,"present","riskyDeck",367,3238,-1
"nw06shun0sq",629.346666666667,474.712516135178,13462,"21/03/2022@15:58:49","Mozilla/5.0 (Macintosh; Intel Mac OS X 10_15_7) AppleWebKit/537.36 (KHTML, like Gecko) Chrome/97.0.4692.71 Safari/537.36",1440,900,1346,707,"main",851733,79,10,9,"EM","Moderate","Easier than Reference","F","j","safeDeck","riskyDeck",-28,0,-14,"right",1,0,4,"present","riskyDeck",412,692,1
"nw06shun0sq",629.346666666667,474.712516135178,13462,"21/03/2022@15:58:49","Mozilla/5.0 (Macintosh; Intel Mac OS X 10_15_7) AppleWebKit/537.36 (KHTML, like Gecko) Chrome/97.0.4692.71 Safari/537.36",1440,900,1346,707,"main",851733,81,10,9,"HM","Moderate","Harder than Reference","D","k","riskyDeck","safeDeck",0,14,7,"left",1,0,32,"absent","riskyDeck",571,1364,-1
"nw06shun0sq",629.346666666667,474.712516135178,13462,"21/03/2022@15:58:49","Mozilla/5.0 (Macintosh; Intel Mac OS X 10_15_7) AppleWebKit/537.36 (KHTML, like Gecko) Chrome/97.0.4692.71 Safari/537.36",1440,900,1346,707,"main",851733,82,10,9,"EM","Moderate","Easier than Reference","D","k","riskyDeck","safeDeck",0,-28,-14,"left",1,0,4,"absent","riskyDeck",383,1033,-1
"nw06shun0sq",629.346666666667,474.712516135178,13462,"21/03/2022@15:58:49","Mozilla/5.0 (Macintosh; Intel Mac OS X 10_15_7) AppleWebKit/537.36 (KHTML, like Gecko) Chrome/97.0.4692.71 Safari/537.36",1440,900,1346,707,"main",851733,83,10,9,"EE","Extreme","Easier than Reference","F","k","safeDeck","riskyDeck",-14,0,-7,"right",1,0,32,"absent","riskyDeck",656,1495,1
"nw06shun0sq",629.346666666667,474.712516135178,13462,"21/03/2022@15:58:49","Mozilla/5.0 (Macintosh; Intel Mac OS X 10_15_7) AppleWebKit/537.36 (KHTML, like Gecko) Chrome/97.0.4692.71 Safari/537.36",1440,900,1346,707,"main",851733,84,10,9,"HE","Extreme","Harder than Reference","F","j","safeDeck","riskyDeck",28,0,14,"right",1,0,32,"present","riskyDeck",616,1260,1
"nw06shun0sq",629.346666666667,474.712516135178,13462,"21/03/2022@15:58:49","Mozilla/5.0 (Macintosh; Intel Mac OS X 10_15_7) AppleWebKit/537.36 (KHTML, like Gecko) Chrome/97.0.4692.71 Safari/537.36",1440,900,1346,707,"main",851733,85,10,9,"EE","Extreme","Easier than Reference","D","j","safeDeck","riskyDeck",0,-14,-7,"left",0,0,25,"present","safeDeck",386,1777,-1
"nw06shun0sq",629.346666666667,474.712516135178,13462,"21/03/2022@15:58:49","Mozilla/5.0 (Macintosh; Intel Mac OS X 10_15_7) AppleWebKit/537.36 (KHTML, like Gecko) Chrome/97.0.4692.71 Safari/537.36",1440,900,1346,707,"main",851733,86,10,9,"HM","Moderate","Harder than Reference","F","k","safeDeck","riskyDeck",0,14,7,"right",1,0,46,"absent","riskyDeck",519,1595,1
"nw06shun0sq",629.346666666667,474.712516135178,13462,"21/03/2022@15:58:49","Mozilla/5.0 (Macintosh; Intel Mac OS X 10_15_7) AppleWebKit/537.36 (KHTML, like Gecko) Chrome/97.0.4692.71 Safari/537.36",1440,900,1346,707,"main",851733,87,10,9,"HE","Extreme","Harder than Reference","F","j","safeDeck","riskyDeck",28,0,14,"right",1,0,32,"present","riskyDeck",503,1099,1
"nw06shun0sq",629.346666666667,474.712516135178,13462,"21/03/2022@15:58:49","Mozilla/5.0 (Macintosh; Intel Mac OS X 10_15_7) AppleWebKit/537.36 (KHTML, like Gecko) Chrome/97.0.4692.71 Safari/537.36",1440,900,1346,707,"main",851733,88,10,9,"EM","Moderate","Easier than Reference","F","j","riskyDeck","safeDeck",-28,0,-14,"right",0,0,18,"present","safeDeck",401,1268,1
"nw06shun0sq",629.346666666667,474.712516135178,13462,"21/03/2022@15:58:49","Mozilla/5.0 (Macintosh; Intel Mac OS X 10_15_7) AppleWebKit/537.36 (KHTML, like Gecko) Chrome/97.0.4692.71 Safari/537.36",1440,900,1346,707,"main",851733,89,10,9,"EE","Extreme","Easier than Reference","D","j","safeDeck","riskyDeck",-14,0,-7,"left",0,0,25,"present","safeDeck",373,1330,-1
"nw06shun0sq",629.346666666667,474.712516135178,13462,"21/03/2022@15:58:49","Mozilla/5.0 (Macintosh; Intel Mac OS X 10_15_7) AppleWebKit/537.36 (KHTML, like Gecko) Chrome/97.0.4692.71 Safari/537.36",1440,900,1346,707,"main",851733,90,10,10,"EM","Moderate","Easier than Reference","F","j","safeDeck","riskyDeck",0,-28,-14,"right",1,0,4,"present","riskyDeck",614,657,1
"nw06shun0sq",629.346666666667,474.712516135178,13462,"21/03/2022@15:58:49","Mozilla/5.0 (Macintosh; Intel Mac OS X 10_15_7) AppleWebKit/537.36 (KHTML, like Gecko) Chrome/97.0.4692.71 Safari/537.36",1440,900,1346,707,"main",851733,91,11,10,"HM","Moderate","Harder than Reference","F","k","safeDeck","riskyDeck",14,0,7,"right",1,1,46,"present","riskyDeck",600,2031,1
"nw06shun0sq",629.346666666667,474.712516135178,13462,"21/03/2022@15:58:49","Mozilla/5.0 (Macintosh; Intel Mac OS X 10_15_7) AppleWebKit/537.36 (KHTML, like Gecko) Chrome/97.0.4692.71 Safari/537.36",1440,900,1346,707,"main",851733,92,11,10,"HE","Extreme","Harder than Reference","F","k","safeDeck","riskyDeck",28,0,14,"right",1,0,32,"absent","riskyDeck",530,2047,1
"nw06shun0sq",629.346666666667,474.712516135178,13462,"21/03/2022@15:58:49","Mozilla/5.0 (Macintosh; Intel Mac OS X 10_15_7) AppleWebKit/537.36 (KHTML, like Gecko) Chrome/97.0.4692.71 Safari/537.36",1440,900,1346,707,"main",851733,93,11,10,"HM","Moderate","Harder than Reference","D","k","riskyDeck","safeDeck",14,0,7,"left",1,0,46,"absent","riskyDeck",530,2238,-1
"nw06shun0sq",629.346666666667,474.712516135178,13462,"21/03/2022@15:58:49","Mozilla/5.0 (Macintosh; Intel Mac OS X 10_15_7) AppleWebKit/537.36 (KHTML, like Gecko) Chrome/97.0.4692.71 Safari/537.36",1440,900,1346,707,"main",851733,94,11,10,"EM","Moderate","Easier than Reference","F","k","riskyDeck","safeDeck",-28,0,-14,"right",0,0,18,"absent","safeDeck",365,1810,1
"nw06shun0sq",629.346666666667,474.712516135178,13462,"21/03/2022@15:58:49","Mozilla/5.0 (Macintosh; Intel Mac OS X 10_15_7) AppleWebKit/537.36 (KHTML, like Gecko) Chrome/97.0.4692.71 Safari/537.36",1440,900,1346,707,"main",851733,95,11,10,"HE","Extreme","Harder than Reference","F","k","safeDeck","riskyDeck",28,0,14,"right",1,0,60,"absent","riskyDeck",539,3593,1
"nw06shun0sq",629.346666666667,474.712516135178,13462,"21/03/2022@15:58:49","Mozilla/5.0 (Macintosh; Intel Mac OS X 10_15_7) AppleWebKit/537.36 (KHTML, like Gecko) Chrome/97.0.4692.71 Safari/537.36",1440,900,1346,707,"main",851733,96,11,10,"EE","Extreme","Easier than Reference","D","j","riskyDeck","safeDeck",0,-14,-7,"left",1,0,32,"present","riskyDeck",406,820,-1
"nw06shun0sq",629.346666666667,474.712516135178,13462,"21/03/2022@15:58:49","Mozilla/5.0 (Macintosh; Intel Mac OS X 10_15_7) AppleWebKit/537.36 (KHTML, like Gecko) Chrome/97.0.4692.71 Safari/537.36",1440,900,1346,707,"main",851733,97,11,10,"EM","Moderate","Easier than Reference","F","k","safeDeck","riskyDeck",0,-28,-14,"right",1,0,4,"absent","riskyDeck",420,821,1
"nw06shun0sq",629.346666666667,474.712516135178,13462,"21/03/2022@15:58:49","Mozilla/5.0 (Macintosh; Intel Mac OS X 10_15_7) AppleWebKit/537.36 (KHTML, like Gecko) Chrome/97.0.4692.71 Safari/537.36",1440,900,1346,707,"main",851733,98,11,10,"HE","Extreme","Harder than Reference","D","k","riskyDeck","safeDeck",28,0,14,"left",1,0,32,"absent","riskyDeck",542,1655,-1
"nw06shun0sq",629.346666666667,474.712516135178,13462,"21/03/2022@15:58:49","Mozilla/5.0 (Macintosh; Intel Mac OS X 10_15_7) AppleWebKit/537.36 (KHTML, like Gecko) Chrome/97.0.4692.71 Safari/537.36",1440,900,1346,707,"main",851733,99,11,10,"HM","Moderate","Harder than Reference","D","k","riskyDeck","safeDeck",14,0,7,"left",1,0,32,"absent","riskyDeck",532,1462,-1
"nw06shun0sq",629.346666666667,474.712516135178,13462,"21/03/2022@15:58:49","Mozilla/5.0 (Macintosh; Intel Mac OS X 10_15_7) AppleWebKit/537.36 (KHTML, like Gecko) Chrome/97.0.4692.71 Safari/537.36",1440,900,1346,707,"main",851733,100,11,10,"EE","Extreme","Easier than Reference","D","j","riskyDeck","safeDeck",0,-14,-7,"left",1,0,18,"present","riskyDeck",473,1234,-1
"nw06shun0sq",629.346666666667,474.712516135178,13462,"21/03/2022@15:58:49","Mozilla/5.0 (Macintosh; Intel Mac OS X 10_15_7) AppleWebKit/537.36 (KHTML, like Gecko) Chrome/97.0.4692.71 Safari/537.36",1440,900,1346,707,"main",851733,101,11,10,"HM","Moderate","Harder than Reference","D","k","riskyDeck","safeDeck",14,0,7,"left",1,0,32,"absent","riskyDeck",409,2012,-1
"nw06shun0sq",629.346666666667,474.712516135178,13462,"21/03/2022@15:58:49","Mozilla/5.0 (Macintosh; Intel Mac OS X 10_15_7) AppleWebKit/537.36 (KHTML, like Gecko) Chrome/97.0.4692.71 Safari/537.36",1440,900,1346,707,"main",851733,102,11,10,"EM","Moderate","Easier than Reference","F","j","safeDeck","riskyDeck",-28,0,-14,"right",1,0,4,"present","riskyDeck",491,654,1
"nw06shun0sq",629.346666666667,474.712516135178,13462,"21/03/2022@15:58:49","Mozilla/5.0 (Macintosh; Intel Mac OS X 10_15_7) AppleWebKit/537.36 (KHTML, like Gecko) Chrome/97.0.4692.71 Safari/537.36",1440,900,1346,707,"main",851733,103,11,10,"EE","Extreme","Easier than Reference","D","k","safeDeck","riskyDeck",-14,0,-7,"left",0,0,25,"absent","safeDeck",521,1389,-1
"nw06shun0sq",629.346666666667,474.712516135178,13462,"21/03/2022@15:58:49","Mozilla/5.0 (Macintosh; Intel Mac OS X 10_15_7) AppleWebKit/537.36 (KHTML, like Gecko) Chrome/97.0.4692.71 Safari/537.36",1440,900,1346,707,"main",851733,104,11,11,"HE","Extreme","Harder than Reference","F","k","safeDeck","riskyDeck",28,0,14,"right",1,0,32,"absent","riskyDeck",448,1416,1
"nw06shun0sq",629.346666666667,474.712516135178,13462,"21/03/2022@15:58:49","Mozilla/5.0 (Macintosh; Intel Mac OS X 10_15_7) AppleWebKit/537.36 (KHTML, like Gecko) Chrome/97.0.4692.71 Safari/537.36",1440,900,1346,707,"main",851733,105,11,11,"EM","Moderate","Easier than Reference","D","j","riskyDeck","safeDeck",0,-28,-14,"left",1,0,32,"present","riskyDeck",744,896,-1
"nw06shun0sq",629.346666666667,474.712516135178,13462,"21/03/2022@15:58:49","Mozilla/5.0 (Macintosh; Intel Mac OS X 10_15_7) AppleWebKit/537.36 (KHTML, like Gecko) Chrome/97.0.4692.71 Safari/537.36",1440,900,1346,707,"main",851733,106,12,11,"EE","Extreme","Easier than Reference","D","k","riskyDeck","safeDeck",0,-14,-7,"left",1,0,18,"absent","riskyDeck",459,1716,-1
"nw06shun0sq",629.346666666667,474.712516135178,13462,"21/03/2022@15:58:49","Mozilla/5.0 (Macintosh; Intel Mac OS X 10_15_7) AppleWebKit/537.36 (KHTML, like Gecko) Chrome/97.0.4692.71 Safari/537.36",1440,900,1346,707,"main",851733,107,12,11,"HM","Moderate","Harder than Reference","F","j","safeDeck","riskyDeck",0,14,7,"right",1,0,32,"present","riskyDeck",914,1094,1
"nw06shun0sq",629.346666666667,474.712516135178,13462,"21/03/2022@15:58:49","Mozilla/5.0 (Macintosh; Intel Mac OS X 10_15_7) AppleWebKit/537.36 (KHTML, like Gecko) Chrome/97.0.4692.71 Safari/537.36",1440,900,1346,707,"main",851733,109,12,11,"EM","Moderate","Easier than Reference","D","j","safeDeck","riskyDeck",-28,0,-14,"left",0,0,18,"present","safeDeck",565,861,-1
"nw06shun0sq",629.346666666667,474.712516135178,13462,"21/03/2022@15:58:49","Mozilla/5.0 (Macintosh; Intel Mac OS X 10_15_7) AppleWebKit/537.36 (KHTML, like Gecko) Chrome/97.0.4692.71 Safari/537.36",1440,900,1346,707,"main",851733,110,12,11,"HE","Extreme","Harder than Reference","F","k","safeDeck","riskyDeck",0,28,14,"right",1,0,60,"absent","riskyDeck",524,1734,1
"nw06shun0sq",629.346666666667,474.712516135178,13462,"21/03/2022@15:58:49","Mozilla/5.0 (Macintosh; Intel Mac OS X 10_15_7) AppleWebKit/537.36 (KHTML, like Gecko) Chrome/97.0.4692.71 Safari/537.36",1440,900,1346,707,"main",851733,111,12,11,"HM","Moderate","Harder than Reference","F","j","safeDeck","riskyDeck",0,14,7,"right",1,0,32,"present","riskyDeck",564,656,1
"nw06shun0sq",629.346666666667,474.712516135178,13462,"21/03/2022@15:58:49","Mozilla/5.0 (Macintosh; Intel Mac OS X 10_15_7) AppleWebKit/537.36 (KHTML, like Gecko) Chrome/97.0.4692.71 Safari/537.36",1440,900,1346,707,"main",851733,112,12,11,"EE","Extreme","Easier than Reference","F","j","safeDeck","riskyDeck",0,-14,-7,"right",1,0,32,"present","riskyDeck",434,974,1
"nw06shun0sq",629.346666666667,474.712516135178,13462,"21/03/2022@15:58:49","Mozilla/5.0 (Macintosh; Intel Mac OS X 10_15_7) AppleWebKit/537.36 (KHTML, like Gecko) Chrome/97.0.4692.71 Safari/537.36",1440,900,1346,707,"main",851733,113,12,11,"EE","Extreme","Easier than Reference","D","k","safeDeck","riskyDeck",-14,0,-7,"left",0,0,25,"absent","safeDeck",532,2319,-1
"nw06shun0sq",629.346666666667,474.712516135178,13462,"21/03/2022@15:58:49","Mozilla/5.0 (Macintosh; Intel Mac OS X 10_15_7) AppleWebKit/537.36 (KHTML, like Gecko) Chrome/97.0.4692.71 Safari/537.36",1440,900,1346,707,"main",851733,114,12,11,"EM","Moderate","Easier than Reference","F","k","safeDeck","riskyDeck",0,-28,-14,"right",1,0,32,"absent","riskyDeck",573,3034,1
"nw06shun0sq",629.346666666667,474.712516135178,13462,"21/03/2022@15:58:49","Mozilla/5.0 (Macintosh; Intel Mac OS X 10_15_7) AppleWebKit/537.36 (KHTML, like Gecko) Chrome/97.0.4692.71 Safari/537.36",1440,900,1346,707,"main",851733,115,12,11,"HM","Moderate","Harder than Reference","D","k","safeDeck","riskyDeck",0,14,7,"left",0,1,39,"present","safeDeck",776,2229,-1
"nw06shun0sq",629.346666666667,474.712516135178,13462,"21/03/2022@15:58:49","Mozilla/5.0 (Macintosh; Intel Mac OS X 10_15_7) AppleWebKit/537.36 (KHTML, like Gecko) Chrome/97.0.4692.71 Safari/537.36",1440,900,1346,707,"main",851733,116,12,12,"HE","Extreme","Harder than Reference","D","k","safeDeck","riskyDeck",0,28,14,"left",0,0,46,"absent","safeDeck",663,2728,-1
"nw06shun0sq",629.346666666667,474.712516135178,13462,"21/03/2022@15:58:49","Mozilla/5.0 (Macintosh; Intel Mac OS X 10_15_7) AppleWebKit/537.36 (KHTML, like Gecko) Chrome/97.0.4692.71 Safari/537.36",1440,900,1346,707,"main",851733,117,12,12,"HM","Moderate","Harder than Reference","D","j","riskyDeck","safeDeck",14,0,7,"left",1,0,46,"present","riskyDeck",782,1541,-1
"nw06shun0sq",629.346666666667,474.712516135178,13462,"21/03/2022@15:58:49","Mozilla/5.0 (Macintosh; Intel Mac OS X 10_15_7) AppleWebKit/537.36 (KHTML, like Gecko) Chrome/97.0.4692.71 Safari/537.36",1440,900,1346,707,"main",851733,118,13,12,"HE","Extreme","Harder than Reference","F","j","riskyDeck","safeDeck",28,0,14,"right",0,0,46,"present","safeDeck",839,1262,1
"nw06shun0sq",629.346666666667,474.712516135178,13462,"21/03/2022@15:58:49","Mozilla/5.0 (Macintosh; Intel Mac OS X 10_15_7) AppleWebKit/537.36 (KHTML, like Gecko) Chrome/97.0.4692.71 Safari/537.36",1440,900,1346,707,"main",851733,119,13,12,"EE","Extreme","Easier than Reference","D","j","safeDeck","riskyDeck",0,-14,-7,"left",0,0,25,"present","safeDeck",532,906,-1
"nw06shun0sq",629.346666666667,474.712516135178,13462,"21/03/2022@15:58:49","Mozilla/5.0 (Macintosh; Intel Mac OS X 10_15_7) AppleWebKit/537.36 (KHTML, like Gecko) Chrome/97.0.4692.71 Safari/537.36",1440,900,1346,707,"main",851733,120,13,12,"EM","Moderate","Easier than Reference","D","j","riskyDeck","safeDeck",-28,0,-14,"left",1,0,32,"present","riskyDeck",538,1210,-1
"nw06shun0sq",629.346666666667,474.712516135178,13462,"21/03/2022@15:58:49","Mozilla/5.0 (Macintosh; Intel Mac OS X 10_15_7) AppleWebKit/537.36 (KHTML, like Gecko) Chrome/97.0.4692.71 Safari/537.36",1440,900,1346,707,"main",851733,121,13,12,"EM","Moderate","Easier than Reference","F","k","safeDeck","riskyDeck",0,-28,-14,"right",1,0,4,"absent","riskyDeck",564,991,1
"nw06shun0sq",629.346666666667,474.712516135178,13462,"21/03/2022@15:58:49","Mozilla/5.0 (Macintosh; Intel Mac OS X 10_15_7) AppleWebKit/537.36 (KHTML, like Gecko) Chrome/97.0.4692.71 Safari/537.36",1440,900,1346,707,"main",851733,122,13,12,"HE","Extreme","Harder than Reference","F","k","safeDeck","riskyDeck",28,0,14,"right",1,0,32,"absent","riskyDeck",628,1562,1
"nw06shun0sq",629.346666666667,474.712516135178,13462,"21/03/2022@15:58:49","Mozilla/5.0 (Macintosh; Intel Mac OS X 10_15_7) AppleWebKit/537.36 (KHTML, like Gecko) Chrome/97.0.4692.71 Safari/537.36",1440,900,1346,707,"main",851733,123,13,12,"HM","Moderate","Harder than Reference","D","k","riskyDeck","safeDeck",14,0,7,"left",1,0,32,"absent","riskyDeck",691,1911,-1
"nw06shun0sq",629.346666666667,474.712516135178,13462,"21/03/2022@15:58:49","Mozilla/5.0 (Macintosh; Intel Mac OS X 10_15_7) AppleWebKit/537.36 (KHTML, like Gecko) Chrome/97.0.4692.71 Safari/537.36",1440,900,1346,707,"main",851733,124,13,12,"EE","Extreme","Easier than Reference","F","k","riskyDeck","safeDeck",-14,0,-7,"right",0,0,25,"absent","safeDeck",454,1923,1
"nw06shun0sq",629.346666666667,474.712516135178,13462,"21/03/2022@15:58:49","Mozilla/5.0 (Macintosh; Intel Mac OS X 10_15_7) AppleWebKit/537.36 (KHTML, like Gecko) Chrome/97.0.4692.71 Safari/537.36",1440,900,1346,707,"main",851733,125,13,12,"HM","Moderate","Harder than Reference","F","k","safeDeck","riskyDeck",14,0,7,"right",1,0,32,"absent","riskyDeck",770,2389,1
"nw06shun0sq",629.346666666667,474.712516135178,13462,"21/03/2022@15:58:49","Mozilla/5.0 (Macintosh; Intel Mac OS X 10_15_7) AppleWebKit/537.36 (KHTML, like Gecko) Chrome/97.0.4692.71 Safari/537.36",1440,900,1346,707,"main",851733,126,13,12,"EE","Extreme","Easier than Reference","F","j","riskyDeck","safeDeck",0,-14,-7,"right",0,0,25,"present","safeDeck",491,1516,1
"nw06shun0sq",629.346666666667,474.712516135178,13462,"21/03/2022@15:58:49","Mozilla/5.0 (Macintosh; Intel Mac OS X 10_15_7) AppleWebKit/537.36 (KHTML, like Gecko) Chrome/97.0.4692.71 Safari/537.36",1440,900,1346,707,"main",851733,127,13,12,"EM","Moderate","Easier than Reference","D","j","safeDeck","riskyDeck",-28,0,-14,"left",0,0,18,"present","safeDeck",444,687,-1
"nw06shun0sq",629.346666666667,474.712516135178,13462,"21/03/2022@15:58:49","Mozilla/5.0 (Macintosh; Intel Mac OS X 10_15_7) AppleWebKit/537.36 (KHTML, like Gecko) Chrome/97.0.4692.71 Safari/537.36",1440,900,1346,707,"main",851733,128,13,12,"HE","Extreme","Harder than Reference","D","k","riskyDeck","safeDeck",28,0,14,"left",1,0,32,"absent","riskyDeck",753,2697,-1
"nw06shun0sq",629.346666666667,474.712516135178,13462,"21/03/2022@15:58:49","Mozilla/5.0 (Macintosh; Intel Mac OS X 10_15_7) AppleWebKit/537.36 (KHTML, like Gecko) Chrome/97.0.4692.71 Safari/537.36",1440,900,1346,707,"main",851733,129,13,12,"EM","Moderate","Easier than Reference","D","k","riskyDeck","safeDeck",0,-28,-14,"left",1,0,32,"absent","riskyDeck",491,2416,-1
"nw06shun0sq",629.346666666667,474.712516135178,13462,"21/03/2022@15:58:49","Mozilla/5.0 (Macintosh; Intel Mac OS X 10_15_7) AppleWebKit/537.36 (KHTML, like Gecko) Chrome/97.0.4692.71 Safari/537.36",1440,900,1346,707,"main",851733,130,13,13,"EE","Extreme","Easier than Reference","F","k","safeDeck","riskyDeck",-14,0,-7,"right",1,0,32,"absent","riskyDeck",583,3357,1
"nw06shun0sq",629.346666666667,474.712516135178,13462,"21/03/2022@15:58:49","Mozilla/5.0 (Macintosh; Intel Mac OS X 10_15_7) AppleWebKit/537.36 (KHTML, like Gecko) Chrome/97.0.4692.71 Safari/537.36",1440,900,1346,707,"main",851733,131,14,13,"HM","Moderate","Harder than Reference","D","k","riskyDeck","safeDeck",14,0,7,"left",1,0,32,"absent","riskyDeck",530,2458,-1
"nw06shun0sq",629.346666666667,474.712516135178,13462,"21/03/2022@15:58:49","Mozilla/5.0 (Macintosh; Intel Mac OS X 10_15_7) AppleWebKit/537.36 (KHTML, like Gecko) Chrome/97.0.4692.71 Safari/537.36",1440,900,1346,707,"main",851733,132,14,13,"HE","Extreme","Harder than Reference","F","j","safeDeck","riskyDeck",28,0,14,"right",1,0,32,"present","riskyDeck",480,970,1
"nw06shun0sq",629.346666666667,474.712516135178,13462,"21/03/2022@15:58:49","Mozilla/5.0 (Macintosh; Intel Mac OS X 10_15_7) AppleWebKit/537.36 (KHTML, like Gecko) Chrome/97.0.4692.71 Safari/537.36",1440,900,1346,707,"main",851733,133,14,13,"EE","Extreme","Easier than Reference","D","j","safeDeck","riskyDeck",0,-14,-7,"left",0,0,25,"present","safeDeck",501,852,-1
"nw06shun0sq",629.346666666667,474.712516135178,13462,"21/03/2022@15:58:49","Mozilla/5.0 (Macintosh; Intel Mac OS X 10_15_7) AppleWebKit/537.36 (KHTML, like Gecko) Chrome/97.0.4692.71 Safari/537.36",1440,900,1346,707,"main",851733,134,14,13,"EM","Moderate","Easier than Reference","D","j","riskyDeck","safeDeck",-28,0,-14,"left",1,0,32,"present","riskyDeck",464,1339,-1
"nw06shun0sq",629.346666666667,474.712516135178,13462,"21/03/2022@15:58:49","Mozilla/5.0 (Macintosh; Intel Mac OS X 10_15_7) AppleWebKit/537.36 (KHTML, like Gecko) Chrome/97.0.4692.71 Safari/537.36",1440,900,1346,707,"main",851733,135,14,13,"HM","Moderate","Harder than Reference","F","j","safeDeck","riskyDeck",0,14,7,"right",1,0,32,"present","riskyDeck",1318,1949,1
"nw06shun0sq",629.346666666667,474.712516135178,13462,"21/03/2022@15:58:49","Mozilla/5.0 (Macintosh; Intel Mac OS X 10_15_7) AppleWebKit/537.36 (KHTML, like Gecko) Chrome/97.0.4692.71 Safari/537.36",1440,900,1346,707,"main",851733,136,14,13,"HE","Extreme","Harder than Reference","D","j","safeDeck","riskyDeck",28,0,14,"left",0,0,46,"present","safeDeck",393,1028,-1
"nw06shun0sq",629.346666666667,474.712516135178,13462,"21/03/2022@15:58:49","Mozilla/5.0 (Macintosh; Intel Mac OS X 10_15_7) AppleWebKit/537.36 (KHTML, like Gecko) Chrome/97.0.4692.71 Safari/537.36",1440,900,1346,707,"main",851733,137,14,13,"EM","Moderate","Easier than Reference","D","j","riskyDeck","safeDeck",-28,0,-14,"left",1,0,32,"present","riskyDeck",600,2207,-1
"nw06shun0sq",629.346666666667,474.712516135178,13462,"21/03/2022@15:58:49","Mozilla/5.0 (Macintosh; Intel Mac OS X 10_15_7) AppleWebKit/537.36 (KHTML, like Gecko) Chrome/97.0.4692.71 Safari/537.36",1440,900,1346,707,"main",851733,138,14,13,"HE","Extreme","Harder than Reference","F","k","safeDeck","riskyDeck",0,28,14,"right",1,0,60,"absent","riskyDeck",507,2524,1
"nw06shun0sq",629.346666666667,474.712516135178,13462,"21/03/2022@15:58:49","Mozilla/5.0 (Macintosh; Intel Mac OS X 10_15_7) AppleWebKit/537.36 (KHTML, like Gecko) Chrome/97.0.4692.71 Safari/537.36",1440,900,1346,707,"main",851733,139,14,13,"HM","Moderate","Harder than Reference","D","k","riskyDeck","safeDeck",0,14,7,"left",1,0,46,"absent","riskyDeck",600,1890,-1
"nw06shun0sq",629.346666666667,474.712516135178,13462,"21/03/2022@15:58:49","Mozilla/5.0 (Macintosh; Intel Mac OS X 10_15_7) AppleWebKit/537.36 (KHTML, like Gecko) Chrome/97.0.4692.71 Safari/537.36",1440,900,1346,707,"main",851733,140,14,13,"EE","Extreme","Easier than Reference","D","k","riskyDeck","safeDeck",0,-14,-7,"left",1,0,32,"absent","riskyDeck",401,2298,-1
"nw06shun0sq",629.346666666667,474.712516135178,13462,"21/03/2022@15:58:49","Mozilla/5.0 (Macintosh; Intel Mac OS X 10_15_7) AppleWebKit/537.36 (KHTML, like Gecko) Chrome/97.0.4692.71 Safari/537.36",1440,900,1346,707,"main",851733,141,14,13,"EM","Moderate","Easier than Reference","D","k","safeDeck","riskyDeck",-28,0,-14,"left",0,0,18,"absent","safeDeck",554,1759,-1
"nw06shun0sq",629.346666666667,474.712516135178,13462,"21/03/2022@15:58:49","Mozilla/5.0 (Macintosh; Intel Mac OS X 10_15_7) AppleWebKit/537.36 (KHTML, like Gecko) Chrome/97.0.4692.71 Safari/537.36",1440,900,1346,707,"main",851733,142,14,13,"EE","Extreme","Easier than Reference","D","j","safeDeck","riskyDeck",0,-14,-7,"left",0,0,25,"present","safeDeck",415,873,-1
"nw06shun0sq",629.346666666667,474.712516135178,13462,"21/03/2022@15:58:49","Mozilla/5.0 (Macintosh; Intel Mac OS X 10_15_7) AppleWebKit/537.36 (KHTML, like Gecko) Chrome/97.0.4692.71 Safari/537.36",1440,900,1346,707,"main",851733,143,14,13,"HM","Moderate","Harder than Reference","F","k","safeDeck","riskyDeck",0,14,7,"right",1,1,46,"present","riskyDeck",567,2642,1
"nw06shun0sq",629.346666666667,474.712516135178,13462,"21/03/2022@15:58:49","Mozilla/5.0 (Macintosh; Intel Mac OS X 10_15_7) AppleWebKit/537.36 (KHTML, like Gecko) Chrome/97.0.4692.71 Safari/537.36",1440,900,1346,707,"main",851733,144,14,14,"HE","Extreme","Harder than Reference","D","j","safeDeck","riskyDeck",28,0,14,"left",0,0,46,"present","safeDeck",524,1007,-1
"nw06shun0sq",629.346666666667,474.712516135178,13462,"21/03/2022@15:58:49","Mozilla/5.0 (Macintosh; Intel Mac OS X 10_15_7) AppleWebKit/537.36 (KHTML, like Gecko) Chrome/97.0.4692.71 Safari/537.36",1440,900,1346,707,"main",851733,145,15,14,"HM","Moderate","Harder than Reference","F","j","safeDeck","riskyDeck",0,14,7,"right",1,0,46,"present","riskyDeck",618,1597,1
"nw06shun0sq",629.346666666667,474.712516135178,13462,"21/03/2022@15:58:49","Mozilla/5.0 (Macintosh; Intel Mac OS X 10_15_7) AppleWebKit/537.36 (KHTML, like Gecko) Chrome/97.0.4692.71 Safari/537.36",1440,900,1346,707,"main",851733,146,15,14,"HE","Extreme","Harder than Reference","F","k","safeDeck","riskyDeck",28,0,14,"right",1,0,60,"absent","riskyDeck",643,2163,1
"nw06shun0sq",629.346666666667,474.712516135178,13462,"21/03/2022@15:58:49","Mozilla/5.0 (Macintosh; Intel Mac OS X 10_15_7) AppleWebKit/537.36 (KHTML, like Gecko) Chrome/97.0.4692.71 Safari/537.36",1440,900,1346,707,"main",851733,147,15,14,"EM","Moderate","Easier than Reference","F","j","riskyDeck","safeDeck",-28,0,-14,"right",0,0,18,"present","safeDeck",649,820,1
"nw06shun0sq",629.346666666667,474.712516135178,13462,"21/03/2022@15:58:49","Mozilla/5.0 (Macintosh; Intel Mac OS X 10_15_7) AppleWebKit/537.36 (KHTML, like Gecko) Chrome/97.0.4692.71 Safari/537.36",1440,900,1346,707,"main",851733,148,15,14,"EE","Extreme","Easier than Reference","F","j","safeDeck","riskyDeck",0,-14,-7,"right",1,0,32,"present","riskyDeck",524,1478,1
"nw06shun0sq",629.346666666667,474.712516135178,13462,"21/03/2022@15:58:49","Mozilla/5.0 (Macintosh; Intel Mac OS X 10_15_7) AppleWebKit/537.36 (KHTML, like Gecko) Chrome/97.0.4692.71 Safari/537.36",1440,900,1346,707,"main",851733,149,15,14,"HE","Extreme","Harder than Reference","F","k","riskyDeck","safeDeck",0,28,14,"right",0,0,46,"absent","safeDeck",832,2053,1
"nw06shun0sq",629.346666666667,474.712516135178,13462,"21/03/2022@15:58:49","Mozilla/5.0 (Macintosh; Intel Mac OS X 10_15_7) AppleWebKit/537.36 (KHTML, like Gecko) Chrome/97.0.4692.71 Safari/537.36",1440,900,1346,707,"main",851733,150,15,14,"EE","Extreme","Easier than Reference","D","k","riskyDeck","safeDeck",0,-14,-7,"left",1,0,32,"absent","riskyDeck",456,2996,-1
"nw06shun0sq",629.346666666667,474.712516135178,13462,"21/03/2022@15:58:49","Mozilla/5.0 (Macintosh; Intel Mac OS X 10_15_7) AppleWebKit/537.36 (KHTML, like Gecko) Chrome/97.0.4692.71 Safari/537.36",1440,900,1346,707,"main",851733,151,15,14,"EM","Moderate","Easier than Reference","D","k","safeDeck","riskyDeck",0,-28,-14,"left",0,0,18,"absent","safeDeck",957,1727,-1
"nw06shun0sq",629.346666666667,474.712516135178,13462,"21/03/2022@15:58:49","Mozilla/5.0 (Macintosh; Intel Mac OS X 10_15_7) AppleWebKit/537.36 (KHTML, like Gecko) Chrome/97.0.4692.71 Safari/537.36",1440,900,1346,707,"main",851733,152,15,14,"HM","Moderate","Harder than Reference","D","k","riskyDeck","safeDeck",0,14,7,"left",1,1,32,"present","riskyDeck",622,2303,-1
