subject,sona_id,curTime,userAgent,screenWidth,screenHeight,windowWidth,windowHeight,phase,phase_run_time,trial,exp_runtime_mins,phase_runtime_mins,condition,magnitude,direction,choice_response_key,search_response_key,left_deck_id,right_deck_id,risky_deck_outcome_top,risky_deck_outcome_bottom,safe_deck_outcome,selected_deck_location,selectedRiskyDeck,error,n_stimuli,present_or_absent,chosenDeckId,choice_rt,search_rt
07iuiut1t9rh,13424,06/03/2022@00:34:21,"Mozilla/5.0 (Macintosh; Intel Mac OS X 10_15_7) AppleWebKit/605.1.15 (KHTML, like Gecko) Version/15.3 Safari/605.1.15",1440,900,1440,820,main,1620374,1,4,2,HM,Moderate,Harder than Reference,F,j,riskyDeck,safeDeck,14,0,7,right,0,0,39,present,safeDeck,2512,1599
07iuiut1t9rh,13424,06/03/2022@00:34:21,"Mozilla/5.0 (Macintosh; Intel Mac OS X 10_15_7) AppleWebKit/605.1.15 (KHTML, like Gecko) Version/15.3 Safari/605.1.15",1440,900,1440,820,main,1620374,2,4,3,EE,Extreme,Easier than Reference,F,k,safeDeck,riskyDeck,-14,0,-7,right,1,0,18,absent,riskyDeck,1831,3564
07iuiut1t9rh,13424,06/03/2022@00:34:21,"Mozilla/5.0 (Macintosh; Intel Mac OS X 10_15_7) AppleWebKit/605.1.15 (KHTML, like Gecko) Version/15.3 Safari/605.1.15",1440,900,1440,820,main,1620374,3,4,3,EM,Moderate,Easier than Reference,D,j,riskyDeck,safeDeck,0,-28,-14,left,1,0,4,present,riskyDeck,1924,1132
07iuiut1t9rh,13424,06/03/2022@00:34:21,"Mozilla/5.0 (Macintosh; Intel Mac OS X 10_15_7) AppleWebKit/605.1.15 (KHTML, like Gecko) Version/15.3 Safari/605.1.15",1440,900,1440,820,main,1620374,4,5,3,HE,Extreme,Harder than Reference,F,j,riskyDeck,safeDeck,28,0,14,right,0,0,46,present,safeDeck,1368,4055
07iuiut1t9rh,13424,06/03/2022@00:34:21,"Mozilla/5.0 (Macintosh; Intel Mac OS X 10_15_7) AppleWebKit/605.1.15 (KHTML, like Gecko) Version/15.3 Safari/605.1.15",1440,900,1440,820,main,1620374,5,5,3,HE,Extreme,Harder than Reference,F,j,safeDeck,riskyDeck,0,28,14,right,1,0,32,present,riskyDeck,1935,1987
07iuiut1t9rh,13424,06/03/2022@00:34:21,"Mozilla/5.0 (Macintosh; Intel Mac OS X 10_15_7) AppleWebKit/605.1.15 (KHTML, like Gecko) Version/15.3 Safari/605.1.15",1440,900,1440,820,main,1620374,6,5,3,EE,Extreme,Easier than Reference,F,k,safeDeck,riskyDeck,0,-14,-7,right,1,1,32,present,riskyDeck,1328,4040
07iuiut1t9rh,13424,06/03/2022@00:34:21,"Mozilla/5.0 (Macintosh; Intel Mac OS X 10_15_7) AppleWebKit/605.1.15 (KHTML, like Gecko) Version/15.3 Safari/605.1.15",1440,900,1440,820,main,1620374,7,5,3,EM,Moderate,Easier than Reference,F,j,safeDeck,riskyDeck,0,-28,-14,right,1,0,4,present,riskyDeck,1001,846
07iuiut1t9rh,13424,06/03/2022@00:34:21,"Mozilla/5.0 (Macintosh; Intel Mac OS X 10_15_7) AppleWebKit/605.1.15 (KHTML, like Gecko) Version/15.3 Safari/605.1.15",1440,900,1440,820,main,1620374,8,5,3,HM,Moderate,Harder than Reference,F,k,safeDeck,riskyDeck,0,14,7,right,1,0,32,absent,riskyDeck,1310,8125
07iuiut1t9rh,13424,06/03/2022@00:34:21,"Mozilla/5.0 (Macintosh; Intel Mac OS X 10_15_7) AppleWebKit/605.1.15 (KHTML, like Gecko) Version/15.3 Safari/605.1.15",1440,900,1440,820,main,1620374,9,5,3,HM,Moderate,Harder than Reference,F,k,riskyDeck,safeDeck,0,14,7,right,0,0,39,absent,safeDeck,969,6181
07iuiut1t9rh,13424,06/03/2022@00:34:21,"Mozilla/5.0 (Macintosh; Intel Mac OS X 10_15_7) AppleWebKit/605.1.15 (KHTML, like Gecko) Version/15.3 Safari/605.1.15",1440,900,1440,820,main,1620374,10,5,3,EM,Moderate,Easier than Reference,F,j,safeDeck,riskyDeck,-28,0,-14,right,1,0,4,present,riskyDeck,891,829
07iuiut1t9rh,13424,06/03/2022@00:34:21,"Mozilla/5.0 (Macintosh; Intel Mac OS X 10_15_7) AppleWebKit/605.1.15 (KHTML, like Gecko) Version/15.3 Safari/605.1.15",1440,900,1440,820,main,1620374,11,5,3,EE,Extreme,Easier than Reference,D,j,riskyDeck,safeDeck,-14,0,-7,left,1,0,18,present,riskyDeck,808,1358
07iuiut1t9rh,13424,06/03/2022@00:34:21,"Mozilla/5.0 (Macintosh; Intel Mac OS X 10_15_7) AppleWebKit/605.1.15 (KHTML, like Gecko) Version/15.3 Safari/605.1.15",1440,900,1440,820,main,1620374,12,5,4,HE,Extreme,Harder than Reference,D,j,riskyDeck,safeDeck,28,0,14,left,1,0,32,present,riskyDeck,877,1395
07iuiut1t9rh,13424,06/03/2022@00:34:21,"Mozilla/5.0 (Macintosh; Intel Mac OS X 10_15_7) AppleWebKit/605.1.15 (KHTML, like Gecko) Version/15.3 Safari/605.1.15",1440,900,1440,820,main,1620374,13,5,4,EM,Moderate,Easier than Reference,F,k,safeDeck,riskyDeck,-28,0,-14,right,1,0,4,absent,riskyDeck,701,1336
07iuiut1t9rh,13424,06/03/2022@00:34:21,"Mozilla/5.0 (Macintosh; Intel Mac OS X 10_15_7) AppleWebKit/605.1.15 (KHTML, like Gecko) Version/15.3 Safari/605.1.15",1440,900,1440,820,main,1620374,14,5,4,EE,Extreme,Easier than Reference,F,j,safeDeck,riskyDeck,-14,0,-7,right,1,0,32,present,riskyDeck,605,1132
07iuiut1t9rh,13424,06/03/2022@00:34:21,"Mozilla/5.0 (Macintosh; Intel Mac OS X 10_15_7) AppleWebKit/605.1.15 (KHTML, like Gecko) Version/15.3 Safari/605.1.15",1440,900,1440,820,main,1620374,15,6,4,HE,Extreme,Harder than Reference,D,k,riskyDeck,safeDeck,28,0,14,left,1,0,60,absent,riskyDeck,1146,4724
07iuiut1t9rh,13424,06/03/2022@00:34:21,"Mozilla/5.0 (Macintosh; Intel Mac OS X 10_15_7) AppleWebKit/605.1.15 (KHTML, like Gecko) Version/15.3 Safari/605.1.15",1440,900,1440,820,main,1620374,16,6,4,HM,Moderate,Harder than Reference,F,k,safeDeck,riskyDeck,14,0,7,right,1,0,46,absent,riskyDeck,793,7789
07iuiut1t9rh,13424,06/03/2022@00:34:21,"Mozilla/5.0 (Macintosh; Intel Mac OS X 10_15_7) AppleWebKit/605.1.15 (KHTML, like Gecko) Version/15.3 Safari/605.1.15",1440,900,1440,820,main,1620374,17,6,4,HM,Moderate,Harder than Reference,D,j,riskyDeck,safeDeck,0,14,7,left,1,0,32,present,riskyDeck,638,3332
07iuiut1t9rh,13424,06/03/2022@00:34:21,"Mozilla/5.0 (Macintosh; Intel Mac OS X 10_15_7) AppleWebKit/605.1.15 (KHTML, like Gecko) Version/15.3 Safari/605.1.15",1440,900,1440,820,main,1620374,18,6,4,EE,Extreme,Easier than Reference,D,k,riskyDeck,safeDeck,-14,0,-7,left,1,0,32,absent,riskyDeck,538,4650
07iuiut1t9rh,13424,06/03/2022@00:34:21,"Mozilla/5.0 (Macintosh; Intel Mac OS X 10_15_7) AppleWebKit/605.1.15 (KHTML, like Gecko) Version/15.3 Safari/605.1.15",1440,900,1440,820,main,1620374,19,6,4,HE,Extreme,Harder than Reference,D,j,riskyDeck,safeDeck,0,28,14,left,1,0,60,present,riskyDeck,751,7460
07iuiut1t9rh,13424,06/03/2022@00:34:21,"Mozilla/5.0 (Macintosh; Intel Mac OS X 10_15_7) AppleWebKit/605.1.15 (KHTML, like Gecko) Version/15.3 Safari/605.1.15",1440,900,1440,820,main,1620374,20,6,4,EM,Moderate,Easier than Reference,F,j,safeDeck,riskyDeck,0,-28,-14,right,1,0,4,present,riskyDeck,925,831
07iuiut1t9rh,13424,06/03/2022@00:34:21,"Mozilla/5.0 (Macintosh; Intel Mac OS X 10_15_7) AppleWebKit/605.1.15 (KHTML, like Gecko) Version/15.3 Safari/605.1.15",1440,900,1440,820,main,1620374,21,6,4,HM,Moderate,Harder than Reference,F,k,safeDeck,riskyDeck,14,0,7,right,1,0,46,absent,riskyDeck,765,7405
07iuiut1t9rh,13424,06/03/2022@00:34:21,"Mozilla/5.0 (Macintosh; Intel Mac OS X 10_15_7) AppleWebKit/605.1.15 (KHTML, like Gecko) Version/15.3 Safari/605.1.15",1440,900,1440,820,main,1620374,22,6,5,HE,Extreme,Harder than Reference,F,k,riskyDeck,safeDeck,0,28,14,right,0,0,46,absent,safeDeck,814,6906
07iuiut1t9rh,13424,06/03/2022@00:34:21,"Mozilla/5.0 (Macintosh; Intel Mac OS X 10_15_7) AppleWebKit/605.1.15 (KHTML, like Gecko) Version/15.3 Safari/605.1.15",1440,900,1440,820,main,1620374,23,7,5,EE,Extreme,Easier than Reference,D,j,riskyDeck,safeDeck,0,-14,-7,left,1,0,18,present,riskyDeck,637,1135
07iuiut1t9rh,13424,06/03/2022@00:34:21,"Mozilla/5.0 (Macintosh; Intel Mac OS X 10_15_7) AppleWebKit/605.1.15 (KHTML, like Gecko) Version/15.3 Safari/605.1.15",1440,900,1440,820,main,1620374,24,7,5,EM,Moderate,Easier than Reference,D,j,riskyDeck,safeDeck,0,-28,-14,left,1,0,4,present,riskyDeck,504,671
07iuiut1t9rh,13424,06/03/2022@00:34:21,"Mozilla/5.0 (Macintosh; Intel Mac OS X 10_15_7) AppleWebKit/605.1.15 (KHTML, like Gecko) Version/15.3 Safari/605.1.15",1440,900,1440,820,main,1620374,25,7,5,HM,Moderate,Harder than Reference,F,j,riskyDeck,safeDeck,0,14,7,right,0,0,39,present,safeDeck,661,1837
07iuiut1t9rh,13424,06/03/2022@00:34:21,"Mozilla/5.0 (Macintosh; Intel Mac OS X 10_15_7) AppleWebKit/605.1.15 (KHTML, like Gecko) Version/15.3 Safari/605.1.15",1440,900,1440,820,main,1620374,26,7,5,HE,Extreme,Harder than Reference,F,k,safeDeck,riskyDeck,0,28,14,right,1,1,60,present,riskyDeck,672,8257
07iuiut1t9rh,13424,06/03/2022@00:34:21,"Mozilla/5.0 (Macintosh; Intel Mac OS X 10_15_7) AppleWebKit/605.1.15 (KHTML, like Gecko) Version/15.3 Safari/605.1.15",1440,900,1440,820,main,1620374,27,7,5,EE,Extreme,Easier than Reference,D,j,riskyDeck,safeDeck,-14,0,-7,left,1,0,18,present,riskyDeck,740,2471
07iuiut1t9rh,13424,06/03/2022@00:34:21,"Mozilla/5.0 (Macintosh; Intel Mac OS X 10_15_7) AppleWebKit/605.1.15 (KHTML, like Gecko) Version/15.3 Safari/605.1.15",1440,900,1440,820,main,1620374,28,7,5,EM,Moderate,Easier than Reference,F,k,safeDeck,riskyDeck,-28,0,-14,right,1,0,4,absent,riskyDeck,859,1049
07iuiut1t9rh,13424,06/03/2022@00:34:21,"Mozilla/5.0 (Macintosh; Intel Mac OS X 10_15_7) AppleWebKit/605.1.15 (KHTML, like Gecko) Version/15.3 Safari/605.1.15",1440,900,1440,820,main,1620374,29,7,5,HM,Moderate,Harder than Reference,D,j,riskyDeck,safeDeck,14,0,7,left,1,0,32,present,riskyDeck,952,2696
07iuiut1t9rh,13424,06/03/2022@00:34:21,"Mozilla/5.0 (Macintosh; Intel Mac OS X 10_15_7) AppleWebKit/605.1.15 (KHTML, like Gecko) Version/15.3 Safari/605.1.15",1440,900,1440,820,main,1620374,30,7,5,HE,Extreme,Harder than Reference,F,j,safeDeck,riskyDeck,0,28,14,right,1,0,60,present,riskyDeck,726,1291
07iuiut1t9rh,13424,06/03/2022@00:34:21,"Mozilla/5.0 (Macintosh; Intel Mac OS X 10_15_7) AppleWebKit/605.1.15 (KHTML, like Gecko) Version/15.3 Safari/605.1.15",1440,900,1440,820,main,1620374,31,7,5,EE,Extreme,Easier than Reference,F,j,safeDeck,riskyDeck,0,-14,-7,right,1,0,32,present,riskyDeck,536,2314
07iuiut1t9rh,13424,06/03/2022@00:34:21,"Mozilla/5.0 (Macintosh; Intel Mac OS X 10_15_7) AppleWebKit/605.1.15 (KHTML, like Gecko) Version/15.3 Safari/605.1.15",1440,900,1440,820,main,1620374,32,7,5,EM,Moderate,Easier than Reference,F,k,safeDeck,riskyDeck,-28,0,-14,right,1,0,4,absent,riskyDeck,833,903
07iuiut1t9rh,13424,06/03/2022@00:34:21,"Mozilla/5.0 (Macintosh; Intel Mac OS X 10_15_7) AppleWebKit/605.1.15 (KHTML, like Gecko) Version/15.3 Safari/605.1.15",1440,900,1440,820,main,1620374,33,7,5,HE,Extreme,Harder than Reference,F,j,safeDeck,riskyDeck,28,0,14,right,1,0,32,present,riskyDeck,726,890
07iuiut1t9rh,13424,06/03/2022@00:34:21,"Mozilla/5.0 (Macintosh; Intel Mac OS X 10_15_7) AppleWebKit/605.1.15 (KHTML, like Gecko) Version/15.3 Safari/605.1.15",1440,900,1440,820,main,1620374,34,7,6,EE,Extreme,Easier than Reference,D,k,riskyDeck,safeDeck,0,-14,-7,left,1,0,32,absent,riskyDeck,542,2884
07iuiut1t9rh,13424,06/03/2022@00:34:21,"Mozilla/5.0 (Macintosh; Intel Mac OS X 10_15_7) AppleWebKit/605.1.15 (KHTML, like Gecko) Version/15.3 Safari/605.1.15",1440,900,1440,820,main,1620374,35,7,6,EM,Moderate,Easier than Reference,D,j,riskyDeck,safeDeck,0,-28,-14,left,1,0,4,present,riskyDeck,581,606
07iuiut1t9rh,13424,06/03/2022@00:34:21,"Mozilla/5.0 (Macintosh; Intel Mac OS X 10_15_7) AppleWebKit/605.1.15 (KHTML, like Gecko) Version/15.3 Safari/605.1.15",1440,900,1440,820,main,1620374,36,8,6,HM,Moderate,Harder than Reference,D,k,riskyDeck,safeDeck,14,0,7,left,1,0,46,absent,riskyDeck,699,5180
07iuiut1t9rh,13424,06/03/2022@00:34:21,"Mozilla/5.0 (Macintosh; Intel Mac OS X 10_15_7) AppleWebKit/605.1.15 (KHTML, like Gecko) Version/15.3 Safari/605.1.15",1440,900,1440,820,main,1620374,37,8,6,EM,Moderate,Easier than Reference,F,j,safeDeck,riskyDeck,-28,0,-14,right,1,0,32,present,riskyDeck,689,2501
07iuiut1t9rh,13424,06/03/2022@00:34:21,"Mozilla/5.0 (Macintosh; Intel Mac OS X 10_15_7) AppleWebKit/605.1.15 (KHTML, like Gecko) Version/15.3 Safari/605.1.15",1440,900,1440,820,main,1620374,38,8,6,HE,Extreme,Harder than Reference,F,j,safeDeck,riskyDeck,0,28,14,right,1,0,60,present,riskyDeck,664,2989
07iuiut1t9rh,13424,06/03/2022@00:34:21,"Mozilla/5.0 (Macintosh; Intel Mac OS X 10_15_7) AppleWebKit/605.1.15 (KHTML, like Gecko) Version/15.3 Safari/605.1.15",1440,900,1440,820,main,1620374,39,8,6,HM,Moderate,Harder than Reference,F,k,safeDeck,riskyDeck,0,14,7,right,1,0,32,absent,riskyDeck,891,4866
07iuiut1t9rh,13424,06/03/2022@00:34:21,"Mozilla/5.0 (Macintosh; Intel Mac OS X 10_15_7) AppleWebKit/605.1.15 (KHTML, like Gecko) Version/15.3 Safari/605.1.15",1440,900,1440,820,main,1620374,40,8,6,EE,Extreme,Easier than Reference,D,k,riskyDeck,safeDeck,0,-14,-7,left,1,0,32,absent,riskyDeck,581,4534
07iuiut1t9rh,13424,06/03/2022@00:34:21,"Mozilla/5.0 (Macintosh; Intel Mac OS X 10_15_7) AppleWebKit/605.1.15 (KHTML, like Gecko) Version/15.3 Safari/605.1.15",1440,900,1440,820,main,1620374,41,8,6,HM,Moderate,Harder than Reference,D,k,riskyDeck,safeDeck,14,0,7,left,1,1,32,present,riskyDeck,488,1803
07iuiut1t9rh,13424,06/03/2022@00:34:21,"Mozilla/5.0 (Macintosh; Intel Mac OS X 10_15_7) AppleWebKit/605.1.15 (KHTML, like Gecko) Version/15.3 Safari/605.1.15",1440,900,1440,820,main,1620374,42,8,6,EE,Extreme,Easier than Reference,D,k,riskyDeck,safeDeck,0,-14,-7,left,1,0,32,absent,riskyDeck,429,3326
07iuiut1t9rh,13424,06/03/2022@00:34:21,"Mozilla/5.0 (Macintosh; Intel Mac OS X 10_15_7) AppleWebKit/605.1.15 (KHTML, like Gecko) Version/15.3 Safari/605.1.15",1440,900,1440,820,main,1620374,43,8,6,HE,Extreme,Harder than Reference,F,k,safeDeck,riskyDeck,0,28,14,right,1,0,60,absent,riskyDeck,584,7077
07iuiut1t9rh,13424,06/03/2022@00:34:21,"Mozilla/5.0 (Macintosh; Intel Mac OS X 10_15_7) AppleWebKit/605.1.15 (KHTML, like Gecko) Version/15.3 Safari/605.1.15",1440,900,1440,820,main,1620374,44,8,7,EM,Moderate,Easier than Reference,D,j,riskyDeck,safeDeck,0,-28,-14,left,1,0,32,present,riskyDeck,1521,1352
07iuiut1t9rh,13424,06/03/2022@00:34:21,"Mozilla/5.0 (Macintosh; Intel Mac OS X 10_15_7) AppleWebKit/605.1.15 (KHTML, like Gecko) Version/15.3 Safari/605.1.15",1440,900,1440,820,main,1620374,45,8,7,EE,Extreme,Easier than Reference,D,j,riskyDeck,safeDeck,0,-14,-7,left,1,0,18,present,riskyDeck,1856,815
07iuiut1t9rh,13424,06/03/2022@00:34:21,"Mozilla/5.0 (Macintosh; Intel Mac OS X 10_15_7) AppleWebKit/605.1.15 (KHTML, like Gecko) Version/15.3 Safari/605.1.15",1440,900,1440,820,main,1620374,46,9,7,EM,Moderate,Easier than Reference,D,j,riskyDeck,safeDeck,0,-28,-14,left,1,0,4,present,riskyDeck,583,890
07iuiut1t9rh,13424,06/03/2022@00:34:21,"Mozilla/5.0 (Macintosh; Intel Mac OS X 10_15_7) AppleWebKit/605.1.15 (KHTML, like Gecko) Version/15.3 Safari/605.1.15",1440,900,1440,820,main,1620374,47,9,7,HM,Moderate,Harder than Reference,D,k,riskyDeck,safeDeck,14,0,7,left,1,1,46,present,riskyDeck,701,2697
07iuiut1t9rh,13424,06/03/2022@00:34:21,"Mozilla/5.0 (Macintosh; Intel Mac OS X 10_15_7) AppleWebKit/605.1.15 (KHTML, like Gecko) Version/15.3 Safari/605.1.15",1440,900,1440,820,main,1620374,48,9,7,HE,Extreme,Harder than Reference,F,j,safeDeck,riskyDeck,28,0,14,right,1,0,60,present,riskyDeck,644,3420
07iuiut1t9rh,13424,06/03/2022@00:34:21,"Mozilla/5.0 (Macintosh; Intel Mac OS X 10_15_7) AppleWebKit/605.1.15 (KHTML, like Gecko) Version/15.3 Safari/605.1.15",1440,900,1440,820,main,1620374,49,9,7,HM,Moderate,Harder than Reference,D,j,riskyDeck,safeDeck,0,14,7,left,1,0,46,present,riskyDeck,501,2358
07iuiut1t9rh,13424,06/03/2022@00:34:21,"Mozilla/5.0 (Macintosh; Intel Mac OS X 10_15_7) AppleWebKit/605.1.15 (KHTML, like Gecko) Version/15.3 Safari/605.1.15",1440,900,1440,820,main,1620374,50,9,7,HE,Extreme,Harder than Reference,F,j,safeDeck,riskyDeck,0,28,14,right,1,0,32,present,riskyDeck,617,3325
07iuiut1t9rh,13424,06/03/2022@00:34:21,"Mozilla/5.0 (Macintosh; Intel Mac OS X 10_15_7) AppleWebKit/605.1.15 (KHTML, like Gecko) Version/15.3 Safari/605.1.15",1440,900,1440,820,main,1620374,51,9,7,EE,Extreme,Easier than Reference,D,k,riskyDeck,safeDeck,-14,0,-7,left,1,0,18,absent,riskyDeck,832,4655
07iuiut1t9rh,13424,06/03/2022@00:34:21,"Mozilla/5.0 (Macintosh; Intel Mac OS X 10_15_7) AppleWebKit/605.1.15 (KHTML, like Gecko) Version/15.3 Safari/605.1.15",1440,900,1440,820,main,1620374,52,9,7,EM,Moderate,Easier than Reference,D,j,riskyDeck,safeDeck,-28,0,-14,left,1,0,4,present,riskyDeck,447,773
07iuiut1t9rh,13424,06/03/2022@00:34:21,"Mozilla/5.0 (Macintosh; Intel Mac OS X 10_15_7) AppleWebKit/605.1.15 (KHTML, like Gecko) Version/15.3 Safari/605.1.15",1440,900,1440,820,main,1620374,53,9,7,EE,Extreme,Easier than Reference,F,k,safeDeck,riskyDeck,-14,0,-7,right,1,0,18,absent,riskyDeck,541,2433
07iuiut1t9rh,13424,06/03/2022@00:34:21,"Mozilla/5.0 (Macintosh; Intel Mac OS X 10_15_7) AppleWebKit/605.1.15 (KHTML, like Gecko) Version/15.3 Safari/605.1.15",1440,900,1440,820,main,1620374,54,9,7,HM,Moderate,Harder than Reference,F,k,safeDeck,riskyDeck,14,0,7,right,1,0,32,absent,riskyDeck,582,2447
07iuiut1t9rh,13424,06/03/2022@00:34:21,"Mozilla/5.0 (Macintosh; Intel Mac OS X 10_15_7) AppleWebKit/605.1.15 (KHTML, like Gecko) Version/15.3 Safari/605.1.15",1440,900,1440,820,main,1620374,55,9,8,HE,Extreme,Harder than Reference,F,k,safeDeck,riskyDeck,0,28,14,right,1,0,60,absent,riskyDeck,564,6826
07iuiut1t9rh,13424,06/03/2022@00:34:21,"Mozilla/5.0 (Macintosh; Intel Mac OS X 10_15_7) AppleWebKit/605.1.15 (KHTML, like Gecko) Version/15.3 Safari/605.1.15",1440,900,1440,820,main,1620374,56,9,8,EM,Moderate,Easier than Reference,D,j,riskyDeck,safeDeck,0,-28,-14,left,1,0,32,present,riskyDeck,677,2032
07iuiut1t9rh,13424,06/03/2022@00:34:21,"Mozilla/5.0 (Macintosh; Intel Mac OS X 10_15_7) AppleWebKit/605.1.15 (KHTML, like Gecko) Version/15.3 Safari/605.1.15",1440,900,1440,820,main,1620374,57,10,8,EM,Moderate,Easier than Reference,D,k,riskyDeck,safeDeck,0,-28,-14,left,1,0,32,absent,riskyDeck,462,2253
07iuiut1t9rh,13424,06/03/2022@00:34:21,"Mozilla/5.0 (Macintosh; Intel Mac OS X 10_15_7) AppleWebKit/605.1.15 (KHTML, like Gecko) Version/15.3 Safari/605.1.15",1440,900,1440,820,main,1620374,58,10,8,HE,Extreme,Harder than Reference,D,j,riskyDeck,safeDeck,0,28,14,left,1,0,32,present,riskyDeck,666,865
07iuiut1t9rh,13424,06/03/2022@00:34:21,"Mozilla/5.0 (Macintosh; Intel Mac OS X 10_15_7) AppleWebKit/605.1.15 (KHTML, like Gecko) Version/15.3 Safari/605.1.15",1440,900,1440,820,main,1620374,59,10,8,EE,Extreme,Easier than Reference,D,k,riskyDeck,safeDeck,0,-14,-7,left,1,0,32,absent,riskyDeck,537,2679
07iuiut1t9rh,13424,06/03/2022@00:34:21,"Mozilla/5.0 (Macintosh; Intel Mac OS X 10_15_7) AppleWebKit/605.1.15 (KHTML, like Gecko) Version/15.3 Safari/605.1.15",1440,900,1440,820,main,1620374,60,10,8,HM,Moderate,Harder than Reference,D,k,riskyDeck,safeDeck,14,0,7,left,1,0,32,absent,riskyDeck,696,3490
07iuiut1t9rh,13424,06/03/2022@00:34:21,"Mozilla/5.0 (Macintosh; Intel Mac OS X 10_15_7) AppleWebKit/605.1.15 (KHTML, like Gecko) Version/15.3 Safari/605.1.15",1440,900,1440,820,main,1620374,61,10,8,HM,Moderate,Harder than Reference,D,j,riskyDeck,safeDeck,0,14,7,left,1,0,32,present,riskyDeck,632,1027
07iuiut1t9rh,13424,06/03/2022@00:34:21,"Mozilla/5.0 (Macintosh; Intel Mac OS X 10_15_7) AppleWebKit/605.1.15 (KHTML, like Gecko) Version/15.3 Safari/605.1.15",1440,900,1440,820,main,1620374,62,10,8,HE,Extreme,Harder than Reference,D,j,riskyDeck,safeDeck,28,0,14,left,1,0,60,present,riskyDeck,538,1046
07iuiut1t9rh,13424,06/03/2022@00:34:21,"Mozilla/5.0 (Macintosh; Intel Mac OS X 10_15_7) AppleWebKit/605.1.15 (KHTML, like Gecko) Version/15.3 Safari/605.1.15",1440,900,1440,820,main,1620374,63,10,8,EM,Moderate,Easier than Reference,D,j,riskyDeck,safeDeck,-28,0,-14,left,1,0,32,present,riskyDeck,478,943
07iuiut1t9rh,13424,06/03/2022@00:34:21,"Mozilla/5.0 (Macintosh; Intel Mac OS X 10_15_7) AppleWebKit/605.1.15 (KHTML, like Gecko) Version/15.3 Safari/605.1.15",1440,900,1440,820,main,1620374,64,10,8,EE,Extreme,Easier than Reference,D,k,riskyDeck,safeDeck,-14,0,-7,left,1,1,32,present,riskyDeck,465,2975
07iuiut1t9rh,13424,06/03/2022@00:34:21,"Mozilla/5.0 (Macintosh; Intel Mac OS X 10_15_7) AppleWebKit/605.1.15 (KHTML, like Gecko) Version/15.3 Safari/605.1.15",1440,900,1440,820,main,1620374,65,10,8,EE,Extreme,Easier than Reference,F,j,safeDeck,riskyDeck,-14,0,-7,right,1,0,32,present,riskyDeck,677,2861
07iuiut1t9rh,13424,06/03/2022@00:34:21,"Mozilla/5.0 (Macintosh; Intel Mac OS X 10_15_7) AppleWebKit/605.1.15 (KHTML, like Gecko) Version/15.3 Safari/605.1.15",1440,900,1440,820,main,1620374,66,10,8,HM,Moderate,Harder than Reference,D,j,riskyDeck,safeDeck,0,14,7,left,1,0,46,present,riskyDeck,461,1697
07iuiut1t9rh,13424,06/03/2022@00:34:21,"Mozilla/5.0 (Macintosh; Intel Mac OS X 10_15_7) AppleWebKit/605.1.15 (KHTML, like Gecko) Version/15.3 Safari/605.1.15",1440,900,1440,820,main,1620374,67,10,8,EM,Moderate,Easier than Reference,D,k,riskyDeck,safeDeck,0,-28,-14,left,1,0,32,absent,riskyDeck,403,4358
07iuiut1t9rh,13424,06/03/2022@00:34:21,"Mozilla/5.0 (Macintosh; Intel Mac OS X 10_15_7) AppleWebKit/605.1.15 (KHTML, like Gecko) Version/15.3 Safari/605.1.15",1440,900,1440,820,main,1620374,68,10,9,HE,Extreme,Harder than Reference,F,j,safeDeck,riskyDeck,28,0,14,right,1,0,60,present,riskyDeck,696,2022
07iuiut1t9rh,13424,06/03/2022@00:34:21,"Mozilla/5.0 (Macintosh; Intel Mac OS X 10_15_7) AppleWebKit/605.1.15 (KHTML, like Gecko) Version/15.3 Safari/605.1.15",1440,900,1440,820,main,1620374,69,10,9,EM,Moderate,Easier than Reference,D,k,riskyDeck,safeDeck,0,-28,-14,left,1,0,4,absent,riskyDeck,720,786
07iuiut1t9rh,13424,06/03/2022@00:34:21,"Mozilla/5.0 (Macintosh; Intel Mac OS X 10_15_7) AppleWebKit/605.1.15 (KHTML, like Gecko) Version/15.3 Safari/605.1.15",1440,900,1440,820,main,1620374,70,10,9,HM,Moderate,Harder than Reference,D,k,riskyDeck,safeDeck,14,0,7,left,1,0,32,absent,riskyDeck,502,2323
07iuiut1t9rh,13424,06/03/2022@00:34:21,"Mozilla/5.0 (Macintosh; Intel Mac OS X 10_15_7) AppleWebKit/605.1.15 (KHTML, like Gecko) Version/15.3 Safari/605.1.15",1440,900,1440,820,main,1620374,71,11,9,HE,Extreme,Harder than Reference,D,j,riskyDeck,safeDeck,0,28,14,left,1,0,60,present,riskyDeck,627,1962
07iuiut1t9rh,13424,06/03/2022@00:34:21,"Mozilla/5.0 (Macintosh; Intel Mac OS X 10_15_7) AppleWebKit/605.1.15 (KHTML, like Gecko) Version/15.3 Safari/605.1.15",1440,900,1440,820,main,1620374,72,11,9,EE,Extreme,Easier than Reference,F,j,safeDeck,riskyDeck,0,-14,-7,right,1,0,32,present,riskyDeck,710,1146
07iuiut1t9rh,13424,06/03/2022@00:34:21,"Mozilla/5.0 (Macintosh; Intel Mac OS X 10_15_7) AppleWebKit/605.1.15 (KHTML, like Gecko) Version/15.3 Safari/605.1.15",1440,900,1440,820,main,1620374,73,11,9,HE,Extreme,Harder than Reference,F,k,safeDeck,riskyDeck,0,28,14,right,1,0,60,absent,riskyDeck,814,6288
07iuiut1t9rh,13424,06/03/2022@00:34:21,"Mozilla/5.0 (Macintosh; Intel Mac OS X 10_15_7) AppleWebKit/605.1.15 (KHTML, like Gecko) Version/15.3 Safari/605.1.15",1440,900,1440,820,main,1620374,74,11,9,EM,Moderate,Easier than Reference,F,k,safeDeck,riskyDeck,-28,0,-14,right,1,0,4,absent,riskyDeck,546,872
07iuiut1t9rh,13424,06/03/2022@00:34:21,"Mozilla/5.0 (Macintosh; Intel Mac OS X 10_15_7) AppleWebKit/605.1.15 (KHTML, like Gecko) Version/15.3 Safari/605.1.15",1440,900,1440,820,main,1620374,75,11,9,HM,Moderate,Harder than Reference,F,j,safeDeck,riskyDeck,0,14,7,right,1,0,32,present,riskyDeck,569,1773
07iuiut1t9rh,13424,06/03/2022@00:34:21,"Mozilla/5.0 (Macintosh; Intel Mac OS X 10_15_7) AppleWebKit/605.1.15 (KHTML, like Gecko) Version/15.3 Safari/605.1.15",1440,900,1440,820,main,1620374,76,11,9,EE,Extreme,Easier than Reference,D,k,riskyDeck,safeDeck,0,-14,-7,left,1,0,32,absent,riskyDeck,683,3154
07iuiut1t9rh,13424,06/03/2022@00:34:21,"Mozilla/5.0 (Macintosh; Intel Mac OS X 10_15_7) AppleWebKit/605.1.15 (KHTML, like Gecko) Version/15.3 Safari/605.1.15",1440,900,1440,820,main,1620374,77,11,9,EE,Extreme,Easier than Reference,F,k,safeDeck,riskyDeck,0,-14,-7,right,1,0,32,absent,riskyDeck,537,2030
07iuiut1t9rh,13424,06/03/2022@00:34:21,"Mozilla/5.0 (Macintosh; Intel Mac OS X 10_15_7) AppleWebKit/605.1.15 (KHTML, like Gecko) Version/15.3 Safari/605.1.15",1440,900,1440,820,main,1620374,78,11,9,EM,Moderate,Easier than Reference,F,j,safeDeck,riskyDeck,-28,0,-14,right,1,0,32,present,riskyDeck,501,1530
07iuiut1t9rh,13424,06/03/2022@00:34:21,"Mozilla/5.0 (Macintosh; Intel Mac OS X 10_15_7) AppleWebKit/605.1.15 (KHTML, like Gecko) Version/15.3 Safari/605.1.15",1440,900,1440,820,main,1620374,79,11,9,HM,Moderate,Harder than Reference,F,k,safeDeck,riskyDeck,14,0,7,right,1,0,32,absent,riskyDeck,638,2717
07iuiut1t9rh,13424,06/03/2022@00:34:21,"Mozilla/5.0 (Macintosh; Intel Mac OS X 10_15_7) AppleWebKit/605.1.15 (KHTML, like Gecko) Version/15.3 Safari/605.1.15",1440,900,1440,820,main,1620374,80,11,9,HE,Extreme,Harder than Reference,D,k,riskyDeck,safeDeck,28,0,14,left,1,0,60,absent,riskyDeck,589,6920
07iuiut1t9rh,13424,06/03/2022@00:34:21,"Mozilla/5.0 (Macintosh; Intel Mac OS X 10_15_7) AppleWebKit/605.1.15 (KHTML, like Gecko) Version/15.3 Safari/605.1.15",1440,900,1440,820,main,1620374,81,11,10,EE,Extreme,Easier than Reference,D,k,riskyDeck,safeDeck,-14,0,-7,left,1,0,32,absent,riskyDeck,511,2057
07iuiut1t9rh,13424,06/03/2022@00:34:21,"Mozilla/5.0 (Macintosh; Intel Mac OS X 10_15_7) AppleWebKit/605.1.15 (KHTML, like Gecko) Version/15.3 Safari/605.1.15",1440,900,1440,820,main,1620374,82,11,10,HM,Moderate,Harder than Reference,F,k,safeDeck,riskyDeck,0,14,7,right,1,1,46,present,riskyDeck,575,3771
07iuiut1t9rh,13424,06/03/2022@00:34:21,"Mozilla/5.0 (Macintosh; Intel Mac OS X 10_15_7) AppleWebKit/605.1.15 (KHTML, like Gecko) Version/15.3 Safari/605.1.15",1440,900,1440,820,main,1620374,83,12,10,EM,Moderate,Easier than Reference,F,j,safeDeck,riskyDeck,0,-28,-14,right,1,0,4,present,riskyDeck,329,891
07iuiut1t9rh,13424,06/03/2022@00:34:21,"Mozilla/5.0 (Macintosh; Intel Mac OS X 10_15_7) AppleWebKit/605.1.15 (KHTML, like Gecko) Version/15.3 Safari/605.1.15",1440,900,1440,820,main,1620374,84,12,10,HE,Extreme,Harder than Reference,F,k,safeDeck,riskyDeck,28,0,14,right,1,0,60,absent,riskyDeck,569,5159
07iuiut1t9rh,13424,06/03/2022@00:34:21,"Mozilla/5.0 (Macintosh; Intel Mac OS X 10_15_7) AppleWebKit/605.1.15 (KHTML, like Gecko) Version/15.3 Safari/605.1.15",1440,900,1440,820,main,1620374,85,12,10,HM,Moderate,Harder than Reference,F,j,safeDeck,riskyDeck,14,0,7,right,1,0,32,present,riskyDeck,480,2069
07iuiut1t9rh,13424,06/03/2022@00:34:21,"Mozilla/5.0 (Macintosh; Intel Mac OS X 10_15_7) AppleWebKit/605.1.15 (KHTML, like Gecko) Version/15.3 Safari/605.1.15",1440,900,1440,820,main,1620374,86,12,10,EM,Moderate,Easier than Reference,F,j,safeDeck,riskyDeck,-28,0,-14,right,1,0,4,present,riskyDeck,550,704
07iuiut1t9rh,13424,06/03/2022@00:34:21,"Mozilla/5.0 (Macintosh; Intel Mac OS X 10_15_7) AppleWebKit/605.1.15 (KHTML, like Gecko) Version/15.3 Safari/605.1.15",1440,900,1440,820,main,1620374,87,12,10,EE,Extreme,Easier than Reference,D,k,riskyDeck,safeDeck,-14,0,-7,left,1,0,18,absent,riskyDeck,647,1331
07iuiut1t9rh,13424,06/03/2022@00:34:21,"Mozilla/5.0 (Macintosh; Intel Mac OS X 10_15_7) AppleWebKit/605.1.15 (KHTML, like Gecko) Version/15.3 Safari/605.1.15",1440,900,1440,820,main,1620374,88,12,10,HE,Extreme,Harder than Reference,D,j,safeDeck,riskyDeck,0,28,14,left,0,0,46,present,safeDeck,815,1570
07iuiut1t9rh,13424,06/03/2022@00:34:21,"Mozilla/5.0 (Macintosh; Intel Mac OS X 10_15_7) AppleWebKit/605.1.15 (KHTML, like Gecko) Version/15.3 Safari/605.1.15",1440,900,1440,820,main,1620374,89,13,11,HM,Moderate,Harder than Reference,F,j,safeDeck,riskyDeck,14,0,7,right,1,0,46,present,riskyDeck,743,937
07iuiut1t9rh,13424,06/03/2022@00:34:21,"Mozilla/5.0 (Macintosh; Intel Mac OS X 10_15_7) AppleWebKit/605.1.15 (KHTML, like Gecko) Version/15.3 Safari/605.1.15",1440,900,1440,820,main,1620374,90,13,11,EE,Extreme,Easier than Reference,F,k,safeDeck,riskyDeck,0,-14,-7,right,1,0,32,absent,riskyDeck,365,2016
07iuiut1t9rh,13424,06/03/2022@00:34:21,"Mozilla/5.0 (Macintosh; Intel Mac OS X 10_15_7) AppleWebKit/605.1.15 (KHTML, like Gecko) Version/15.3 Safari/605.1.15",1440,900,1440,820,main,1620374,91,13,11,HE,Extreme,Harder than Reference,F,j,safeDeck,riskyDeck,0,28,14,right,1,0,32,present,riskyDeck,481,792
07iuiut1t9rh,13424,06/03/2022@00:34:21,"Mozilla/5.0 (Macintosh; Intel Mac OS X 10_15_7) AppleWebKit/605.1.15 (KHTML, like Gecko) Version/15.3 Safari/605.1.15",1440,900,1440,820,main,1620374,92,13,11,EM,Moderate,Easier than Reference,F,j,safeDeck,riskyDeck,-28,0,-14,right,1,0,32,present,riskyDeck,438,869
07iuiut1t9rh,13424,06/03/2022@00:34:21,"Mozilla/5.0 (Macintosh; Intel Mac OS X 10_15_7) AppleWebKit/605.1.15 (KHTML, like Gecko) Version/15.3 Safari/605.1.15",1440,900,1440,820,main,1620374,93,13,11,EM,Moderate,Easier than Reference,F,j,safeDeck,riskyDeck,0,-28,-14,right,1,0,4,present,riskyDeck,416,632
07iuiut1t9rh,13424,06/03/2022@00:34:21,"Mozilla/5.0 (Macintosh; Intel Mac OS X 10_15_7) AppleWebKit/605.1.15 (KHTML, like Gecko) Version/15.3 Safari/605.1.15",1440,900,1440,820,main,1620374,94,13,11,HE,Extreme,Harder than Reference,F,j,safeDeck,riskyDeck,0,28,14,right,1,0,60,present,riskyDeck,897,740
07iuiut1t9rh,13424,06/03/2022@00:34:21,"Mozilla/5.0 (Macintosh; Intel Mac OS X 10_15_7) AppleWebKit/605.1.15 (KHTML, like Gecko) Version/15.3 Safari/605.1.15",1440,900,1440,820,main,1620374,95,13,12,EE,Extreme,Easier than Reference,F,k,safeDeck,riskyDeck,0,-14,-7,right,1,1,32,present,riskyDeck,479,2264
07iuiut1t9rh,13424,06/03/2022@00:34:21,"Mozilla/5.0 (Macintosh; Intel Mac OS X 10_15_7) AppleWebKit/605.1.15 (KHTML, like Gecko) Version/15.3 Safari/605.1.15",1440,900,1440,820,main,1620374,96,13,12,HM,Moderate,Harder than Reference,F,j,safeDeck,riskyDeck,0,14,7,right,1,0,46,present,riskyDeck,341,2698
07iuiut1t9rh,13424,06/03/2022@00:34:21,"Mozilla/5.0 (Macintosh; Intel Mac OS X 10_15_7) AppleWebKit/605.1.15 (KHTML, like Gecko) Version/15.3 Safari/605.1.15",1440,900,1440,820,main,1620374,97,14,12,HE,Extreme,Harder than Reference,F,k,riskyDeck,safeDeck,0,28,14,right,0,1,46,present,safeDeck,332,5143
07iuiut1t9rh,13424,06/03/2022@00:34:21,"Mozilla/5.0 (Macintosh; Intel Mac OS X 10_15_7) AppleWebKit/605.1.15 (KHTML, like Gecko) Version/15.3 Safari/605.1.15",1440,900,1440,820,main,1620374,98,14,12,EM,Moderate,Easier than Reference,D,j,riskyDeck,safeDeck,0,-28,-14,left,1,0,32,present,riskyDeck,419,1915
07iuiut1t9rh,13424,06/03/2022@00:34:21,"Mozilla/5.0 (Macintosh; Intel Mac OS X 10_15_7) AppleWebKit/605.1.15 (KHTML, like Gecko) Version/15.3 Safari/605.1.15",1440,900,1440,820,main,1620374,99,14,12,HM,Moderate,Harder than Reference,F,j,riskyDeck,safeDeck,0,14,7,right,0,0,39,present,safeDeck,554,1240
07iuiut1t9rh,13424,06/03/2022@00:34:21,"Mozilla/5.0 (Macintosh; Intel Mac OS X 10_15_7) AppleWebKit/605.1.15 (KHTML, like Gecko) Version/15.3 Safari/605.1.15",1440,900,1440,820,main,1620374,100,14,12,EE,Extreme,Easier than Reference,F,k,safeDeck,riskyDeck,-14,0,-7,right,1,0,18,absent,riskyDeck,613,2299
07iuiut1t9rh,13424,06/03/2022@00:34:21,"Mozilla/5.0 (Macintosh; Intel Mac OS X 10_15_7) AppleWebKit/605.1.15 (KHTML, like Gecko) Version/15.3 Safari/605.1.15",1440,900,1440,820,main,1620374,101,14,12,HM,Moderate,Harder than Reference,F,k,safeDeck,riskyDeck,14,0,7,right,1,0,32,absent,riskyDeck,326,3502
07iuiut1t9rh,13424,06/03/2022@00:34:21,"Mozilla/5.0 (Macintosh; Intel Mac OS X 10_15_7) AppleWebKit/605.1.15 (KHTML, like Gecko) Version/15.3 Safari/605.1.15",1440,900,1440,820,main,1620374,102,14,12,EM,Moderate,Easier than Reference,D,k,riskyDeck,safeDeck,0,-28,-14,left,1,0,4,absent,riskyDeck,494,1068
07iuiut1t9rh,13424,06/03/2022@00:34:21,"Mozilla/5.0 (Macintosh; Intel Mac OS X 10_15_7) AppleWebKit/605.1.15 (KHTML, like Gecko) Version/15.3 Safari/605.1.15",1440,900,1440,820,main,1620374,103,14,12,HE,Extreme,Harder than Reference,F,j,safeDeck,riskyDeck,28,0,14,right,1,0,32,present,riskyDeck,666,887
07iuiut1t9rh,13424,06/03/2022@00:34:21,"Mozilla/5.0 (Macintosh; Intel Mac OS X 10_15_7) AppleWebKit/605.1.15 (KHTML, like Gecko) Version/15.3 Safari/605.1.15",1440,900,1440,820,main,1620374,104,14,12,EE,Extreme,Easier than Reference,F,j,safeDeck,riskyDeck,0,-14,-7,right,1,0,18,present,riskyDeck,521,1235
07iuiut1t9rh,13424,06/03/2022@00:34:21,"Mozilla/5.0 (Macintosh; Intel Mac OS X 10_15_7) AppleWebKit/605.1.15 (KHTML, like Gecko) Version/15.3 Safari/605.1.15",1440,900,1440,820,main,1620374,105,14,12,HE,Extreme,Harder than Reference,D,j,riskyDeck,safeDeck,28,0,14,left,1,0,32,present,riskyDeck,473,1002
07iuiut1t9rh,13424,06/03/2022@00:34:21,"Mozilla/5.0 (Macintosh; Intel Mac OS X 10_15_7) AppleWebKit/605.1.15 (KHTML, like Gecko) Version/15.3 Safari/605.1.15",1440,900,1440,820,main,1620374,106,14,12,EM,Moderate,Easier than Reference,D,k,riskyDeck,safeDeck,-28,0,-14,left,1,0,4,absent,riskyDeck,961,752
07iuiut1t9rh,13424,06/03/2022@00:34:21,"Mozilla/5.0 (Macintosh; Intel Mac OS X 10_15_7) AppleWebKit/605.1.15 (KHTML, like Gecko) Version/15.3 Safari/605.1.15",1440,900,1440,820,main,1620374,107,14,12,HM,Moderate,Harder than Reference,F,k,safeDeck,riskyDeck,14,0,7,right,1,0,46,absent,riskyDeck,585,5971
07iuiut1t9rh,13424,06/03/2022@00:34:21,"Mozilla/5.0 (Macintosh; Intel Mac OS X 10_15_7) AppleWebKit/605.1.15 (KHTML, like Gecko) Version/15.3 Safari/605.1.15",1440,900,1440,820,main,1620374,108,14,13,EE,Extreme,Easier than Reference,D,j,riskyDeck,safeDeck,0,-14,-7,left,1,0,18,present,riskyDeck,514,1175
07iuiut1t9rh,13424,06/03/2022@00:34:21,"Mozilla/5.0 (Macintosh; Intel Mac OS X 10_15_7) AppleWebKit/605.1.15 (KHTML, like Gecko) Version/15.3 Safari/605.1.15",1440,900,1440,820,main,1620374,109,14,13,HM,Moderate,Harder than Reference,F,j,safeDeck,riskyDeck,0,14,7,right,1,0,32,present,riskyDeck,301,711
07iuiut1t9rh,13424,06/03/2022@00:34:21,"Mozilla/5.0 (Macintosh; Intel Mac OS X 10_15_7) AppleWebKit/605.1.15 (KHTML, like Gecko) Version/15.3 Safari/605.1.15",1440,900,1440,820,main,1620374,110,14,13,EM,Moderate,Easier than Reference,F,k,safeDeck,riskyDeck,-28,0,-14,right,1,1,32,present,riskyDeck,598,2389
07iuiut1t9rh,13424,06/03/2022@00:34:21,"Mozilla/5.0 (Macintosh; Intel Mac OS X 10_15_7) AppleWebKit/605.1.15 (KHTML, like Gecko) Version/15.3 Safari/605.1.15",1440,900,1440,820,main,1620374,111,15,13,HE,Extreme,Harder than Reference,D,k,riskyDeck,safeDeck,0,28,14,left,1,0,32,absent,riskyDeck,193,3238
07iuiut1t9rh,13424,06/03/2022@00:34:21,"Mozilla/5.0 (Macintosh; Intel Mac OS X 10_15_7) AppleWebKit/605.1.15 (KHTML, like Gecko) Version/15.3 Safari/605.1.15",1440,900,1440,820,main,1620374,112,15,13,EE,Extreme,Easier than Reference,F,j,riskyDeck,safeDeck,0,-14,-7,right,0,0,25,present,safeDeck,327,991
07iuiut1t9rh,13424,06/03/2022@00:34:21,"Mozilla/5.0 (Macintosh; Intel Mac OS X 10_15_7) AppleWebKit/605.1.15 (KHTML, like Gecko) Version/15.3 Safari/605.1.15",1440,900,1440,820,main,1620374,113,15,13,EE,Extreme,Easier than Reference,F,k,safeDeck,riskyDeck,0,-14,-7,right,1,0,32,absent,riskyDeck,488,2645
07iuiut1t9rh,13424,06/03/2022@00:34:21,"Mozilla/5.0 (Macintosh; Intel Mac OS X 10_15_7) AppleWebKit/605.1.15 (KHTML, like Gecko) Version/15.3 Safari/605.1.15",1440,900,1440,820,main,1620374,114,15,13,EM,Moderate,Easier than Reference,F,j,safeDeck,riskyDeck,0,-28,-14,right,1,0,4,present,riskyDeck,379,924
07iuiut1t9rh,13424,06/03/2022@00:34:21,"Mozilla/5.0 (Macintosh; Intel Mac OS X 10_15_7) AppleWebKit/605.1.15 (KHTML, like Gecko) Version/15.3 Safari/605.1.15",1440,900,1440,820,main,1620374,115,15,13,HM,Moderate,Harder than Reference,F,k,safeDeck,riskyDeck,14,0,7,right,1,0,46,absent,riskyDeck,400,5879
07iuiut1t9rh,13424,06/03/2022@00:34:21,"Mozilla/5.0 (Macintosh; Intel Mac OS X 10_15_7) AppleWebKit/605.1.15 (KHTML, like Gecko) Version/15.3 Safari/605.1.15",1440,900,1440,820,main,1620374,116,15,13,HE,Extreme,Harder than Reference,F,k,safeDeck,riskyDeck,0,28,14,right,1,0,60,absent,riskyDeck,477,3740
07iuiut1t9rh,13424,06/03/2022@00:34:21,"Mozilla/5.0 (Macintosh; Intel Mac OS X 10_15_7) AppleWebKit/605.1.15 (KHTML, like Gecko) Version/15.3 Safari/605.1.15",1440,900,1440,820,main,1620374,117,15,13,HE,Extreme,Harder than Reference,F,k,safeDeck,riskyDeck,0,28,14,right,1,0,32,absent,riskyDeck,326,2631
07iuiut1t9rh,13424,06/03/2022@00:34:21,"Mozilla/5.0 (Macintosh; Intel Mac OS X 10_15_7) AppleWebKit/605.1.15 (KHTML, like Gecko) Version/15.3 Safari/605.1.15",1440,900,1440,820,main,1620374,118,15,13,EM,Moderate,Easier than Reference,F,j,safeDeck,riskyDeck,0,-28,-14,right,1,0,4,present,riskyDeck,517,593
07iuiut1t9rh,13424,06/03/2022@00:34:21,"Mozilla/5.0 (Macintosh; Intel Mac OS X 10_15_7) AppleWebKit/605.1.15 (KHTML, like Gecko) Version/15.3 Safari/605.1.15",1440,900,1440,820,main,1620374,119,15,13,HM,Moderate,Harder than Reference,F,j,safeDeck,riskyDeck,0,14,7,right,1,0,32,present,riskyDeck,360,965
07iuiut1t9rh,13424,06/03/2022@00:34:21,"Mozilla/5.0 (Macintosh; Intel Mac OS X 10_15_7) AppleWebKit/605.1.15 (KHTML, like Gecko) Version/15.3 Safari/605.1.15",1440,900,1440,820,main,1620374,120,15,13,EE,Extreme,Easier than Reference,D,k,riskyDeck,safeDeck,-14,0,-7,left,1,0,18,absent,riskyDeck,702,1571
07iuiut1t9rh,13424,06/03/2022@00:34:21,"Mozilla/5.0 (Macintosh; Intel Mac OS X 10_15_7) AppleWebKit/605.1.15 (KHTML, like Gecko) Version/15.3 Safari/605.1.15",1440,900,1440,820,main,1620374,121,15,13,EM,Moderate,Easier than Reference,F,k,riskyDeck,safeDeck,0,-28,-14,right,0,0,18,absent,safeDeck,260,1089
07iuiut1t9rh,13424,06/03/2022@00:34:21,"Mozilla/5.0 (Macintosh; Intel Mac OS X 10_15_7) AppleWebKit/605.1.15 (KHTML, like Gecko) Version/15.3 Safari/605.1.15",1440,900,1440,820,main,1620374,122,15,14,HM,Moderate,Harder than Reference,F,k,safeDeck,riskyDeck,0,14,7,right,1,0,46,absent,riskyDeck,593,4811
07iuiut1t9rh,13424,06/03/2022@00:34:21,"Mozilla/5.0 (Macintosh; Intel Mac OS X 10_15_7) AppleWebKit/605.1.15 (KHTML, like Gecko) Version/15.3 Safari/605.1.15",1440,900,1440,820,main,1620374,123,15,14,HE,Extreme,Harder than Reference,F,j,safeDeck,riskyDeck,0,28,14,right,1,0,32,present,riskyDeck,503,1111
07iuiut1t9rh,13424,06/03/2022@00:34:21,"Mozilla/5.0 (Macintosh; Intel Mac OS X 10_15_7) AppleWebKit/605.1.15 (KHTML, like Gecko) Version/15.3 Safari/605.1.15",1440,900,1440,820,main,1620374,124,15,14,EE,Extreme,Easier than Reference,F,j,safeDeck,riskyDeck,-14,0,-7,right,1,0,32,present,riskyDeck,417,1126
07iuiut1t9rh,13424,06/03/2022@00:34:21,"Mozilla/5.0 (Macintosh; Intel Mac OS X 10_15_7) AppleWebKit/605.1.15 (KHTML, like Gecko) Version/15.3 Safari/605.1.15",1440,900,1440,820,main,1620374,125,16,14,EM,Moderate,Easier than Reference,F,j,safeDeck,riskyDeck,-28,0,-14,right,1,0,32,present,riskyDeck,237,2190
07iuiut1t9rh,13424,06/03/2022@00:34:21,"Mozilla/5.0 (Macintosh; Intel Mac OS X 10_15_7) AppleWebKit/605.1.15 (KHTML, like Gecko) Version/15.3 Safari/605.1.15",1440,900,1440,820,main,1620374,126,16,14,HE,Extreme,Harder than Reference,F,k,riskyDeck,safeDeck,28,0,14,right,0,0,46,absent,safeDeck,293,3848
07iuiut1t9rh,13424,06/03/2022@00:34:21,"Mozilla/5.0 (Macintosh; Intel Mac OS X 10_15_7) AppleWebKit/605.1.15 (KHTML, like Gecko) Version/15.3 Safari/605.1.15",1440,900,1440,820,main,1620374,127,16,14,EE,Extreme,Easier than Reference,F,k,riskyDeck,safeDeck,-14,0,-7,right,0,0,25,absent,safeDeck,263,2587
07iuiut1t9rh,13424,06/03/2022@00:34:21,"Mozilla/5.0 (Macintosh; Intel Mac OS X 10_15_7) AppleWebKit/605.1.15 (KHTML, like Gecko) Version/15.3 Safari/605.1.15",1440,900,1440,820,main,1620374,128,16,14,HM,Moderate,Harder than Reference,F,j,safeDeck,riskyDeck,0,14,7,right,1,0,46,present,riskyDeck,775,3190
07iuiut1t9rh,13424,06/03/2022@00:34:21,"Mozilla/5.0 (Macintosh; Intel Mac OS X 10_15_7) AppleWebKit/605.1.15 (KHTML, like Gecko) Version/15.3 Safari/605.1.15",1440,900,1440,820,main,1620374,129,16,14,EM,Moderate,Easier than Reference,F,j,riskyDeck,safeDeck,0,-28,-14,right,0,0,18,present,safeDeck,222,1908
07iuiut1t9rh,13424,06/03/2022@00:34:21,"Mozilla/5.0 (Macintosh; Intel Mac OS X 10_15_7) AppleWebKit/605.1.15 (KHTML, like Gecko) Version/15.3 Safari/605.1.15",1440,900,1440,820,main,1620374,130,16,14,EE,Extreme,Easier than Reference,F,k,riskyDeck,safeDeck,-14,0,-7,right,0,0,25,absent,safeDeck,349,3652
07iuiut1t9rh,13424,06/03/2022@00:34:21,"Mozilla/5.0 (Macintosh; Intel Mac OS X 10_15_7) AppleWebKit/605.1.15 (KHTML, like Gecko) Version/15.3 Safari/605.1.15",1440,900,1440,820,main,1620374,131,16,14,HM,Moderate,Harder than Reference,F,k,safeDeck,riskyDeck,0,14,7,right,1,0,46,absent,riskyDeck,492,6948
07iuiut1t9rh,13424,06/03/2022@00:34:21,"Mozilla/5.0 (Macintosh; Intel Mac OS X 10_15_7) AppleWebKit/605.1.15 (KHTML, like Gecko) Version/15.3 Safari/605.1.15",1440,900,1440,820,main,1620374,132,16,14,HE,Extreme,Harder than Reference,F,j,riskyDeck,safeDeck,0,28,14,right,0,0,46,present,safeDeck,380,1830
07iuiut1t9rh,13424,06/03/2022@00:34:21,"Mozilla/5.0 (Macintosh; Intel Mac OS X 10_15_7) AppleWebKit/605.1.15 (KHTML, like Gecko) Version/15.3 Safari/605.1.15",1440,900,1440,820,main,1620374,133,16,14,HM,Moderate,Harder than Reference,F,k,safeDeck,riskyDeck,14,0,7,right,1,0,46,absent,riskyDeck,1337,3405
07iuiut1t9rh,13424,06/03/2022@00:34:21,"Mozilla/5.0 (Macintosh; Intel Mac OS X 10_15_7) AppleWebKit/605.1.15 (KHTML, like Gecko) Version/15.3 Safari/605.1.15",1440,900,1440,820,main,1620374,134,16,15,EE,Extreme,Easier than Reference,F,j,riskyDeck,safeDeck,-14,0,-7,right,0,0,25,present,safeDeck,170,1961
07iuiut1t9rh,13424,06/03/2022@00:34:21,"Mozilla/5.0 (Macintosh; Intel Mac OS X 10_15_7) AppleWebKit/605.1.15 (KHTML, like Gecko) Version/15.3 Safari/605.1.15",1440,900,1440,820,main,1620374,135,16,15,HE,Extreme,Harder than Reference,F,k,riskyDeck,safeDeck,28,0,14,right,0,0,46,absent,safeDeck,347,5440
07iuiut1t9rh,13424,06/03/2022@00:34:21,"Mozilla/5.0 (Macintosh; Intel Mac OS X 10_15_7) AppleWebKit/605.1.15 (KHTML, like Gecko) Version/15.3 Safari/605.1.15",1440,900,1440,820,main,1620374,136,17,15,EM,Moderate,Easier than Reference,F,j,safeDeck,riskyDeck,0,-28,-14,right,1,0,4,present,riskyDeck,710,952
07iuiut1t9rh,13424,06/03/2022@00:34:21,"Mozilla/5.0 (Macintosh; Intel Mac OS X 10_15_7) AppleWebKit/605.1.15 (KHTML, like Gecko) Version/15.3 Safari/605.1.15",1440,900,1440,820,main,1620374,137,17,15,EM,Moderate,Easier than Reference,F,k,riskyDeck,safeDeck,-28,0,-14,right,0,1,18,present,safeDeck,340,919
07iuiut1t9rh,13424,06/03/2022@00:34:21,"Mozilla/5.0 (Macintosh; Intel Mac OS X 10_15_7) AppleWebKit/605.1.15 (KHTML, like Gecko) Version/15.3 Safari/605.1.15",1440,900,1440,820,main,1620374,138,17,15,HE,Extreme,Harder than Reference,F,j,riskyDeck,safeDeck,28,0,14,right,0,0,46,present,safeDeck,18,2263
07iuiut1t9rh,13424,06/03/2022@00:34:21,"Mozilla/5.0 (Macintosh; Intel Mac OS X 10_15_7) AppleWebKit/605.1.15 (KHTML, like Gecko) Version/15.3 Safari/605.1.15",1440,900,1440,820,main,1620374,139,17,15,EE,Extreme,Easier than Reference,F,j,safeDeck,riskyDeck,-14,0,-7,right,1,0,32,present,riskyDeck,327,2962
07iuiut1t9rh,13424,06/03/2022@00:34:21,"Mozilla/5.0 (Macintosh; Intel Mac OS X 10_15_7) AppleWebKit/605.1.15 (KHTML, like Gecko) Version/15.3 Safari/605.1.15",1440,900,1440,820,main,1620374,140,17,15,HM,Moderate,Harder than Reference,F,j,safeDeck,riskyDeck,14,0,7,right,1,0,46,present,riskyDeck,521,3319
07iuiut1t9rh,13424,06/03/2022@00:34:21,"Mozilla/5.0 (Macintosh; Intel Mac OS X 10_15_7) AppleWebKit/605.1.15 (KHTML, like Gecko) Version/15.3 Safari/605.1.15",1440,900,1440,820,main,1620374,141,17,15,HE,Extreme,Harder than Reference,F,k,safeDeck,riskyDeck,0,28,14,right,1,0,32,absent,riskyDeck,487,4620
07iuiut1t9rh,13424,06/03/2022@00:34:21,"Mozilla/5.0 (Macintosh; Intel Mac OS X 10_15_7) AppleWebKit/605.1.15 (KHTML, like Gecko) Version/15.3 Safari/605.1.15",1440,900,1440,820,main,1620374,142,17,15,EE,Extreme,Easier than Reference,F,k,safeDeck,riskyDeck,0,-14,-7,right,1,0,18,absent,riskyDeck,451,1668
07iuiut1t9rh,13424,06/03/2022@00:34:21,"Mozilla/5.0 (Macintosh; Intel Mac OS X 10_15_7) AppleWebKit/605.1.15 (KHTML, like Gecko) Version/15.3 Safari/605.1.15",1440,900,1440,820,main,1620374,143,17,15,EM,Moderate,Easier than Reference,F,j,safeDeck,riskyDeck,-28,0,-14,right,1,0,4,present,riskyDeck,464,761
07iuiut1t9rh,13424,06/03/2022@00:34:21,"Mozilla/5.0 (Macintosh; Intel Mac OS X 10_15_7) AppleWebKit/605.1.15 (KHTML, like Gecko) Version/15.3 Safari/605.1.15",1440,900,1440,820,main,1620374,144,17,15,HM,Moderate,Harder than Reference,F,k,safeDeck,riskyDeck,14,0,7,right,1,0,32,absent,riskyDeck,619,3059
07iuiut1t9rh,13424,06/03/2022@00:34:21,"Mozilla/5.0 (Macintosh; Intel Mac OS X 10_15_7) AppleWebKit/605.1.15 (KHTML, like Gecko) Version/15.3 Safari/605.1.15",1440,900,1440,820,main,1620374,145,17,15,EM,Moderate,Easier than Reference,F,k,safeDeck,riskyDeck,-28,0,-14,right,1,0,32,absent,riskyDeck,923,4140
07iuiut1t9rh,13424,06/03/2022@00:34:21,"Mozilla/5.0 (Macintosh; Intel Mac OS X 10_15_7) AppleWebKit/605.1.15 (KHTML, like Gecko) Version/15.3 Safari/605.1.15",1440,900,1440,820,main,1620374,146,17,15,EE,Extreme,Easier than Reference,F,j,safeDeck,riskyDeck,0,-14,-7,right,1,0,18,present,riskyDeck,435,1184
07iuiut1t9rh,13424,06/03/2022@00:34:21,"Mozilla/5.0 (Macintosh; Intel Mac OS X 10_15_7) AppleWebKit/605.1.15 (KHTML, like Gecko) Version/15.3 Safari/605.1.15",1440,900,1440,820,main,1620374,147,17,16,HE,Extreme,Harder than Reference,F,j,safeDeck,riskyDeck,28,0,14,right,1,1,60,absent,riskyDeck,481,6596
07iuiut1t9rh,13424,06/03/2022@00:34:21,"Mozilla/5.0 (Macintosh; Intel Mac OS X 10_15_7) AppleWebKit/605.1.15 (KHTML, like Gecko) Version/15.3 Safari/605.1.15",1440,900,1440,820,main,1620374,148,18,16,HM,Moderate,Harder than Reference,F,j,riskyDeck,safeDeck,0,14,7,right,0,0,39,present,safeDeck,574,899
07iuiut1t9rh,13424,06/03/2022@00:34:21,"Mozilla/5.0 (Macintosh; Intel Mac OS X 10_15_7) AppleWebKit/605.1.15 (KHTML, like Gecko) Version/15.3 Safari/605.1.15",1440,900,1440,820,main,1620374,149,18,16,EM,Moderate,Easier than Reference,F,k,riskyDeck,safeDeck,0,-28,-14,right,0,0,18,absent,safeDeck,956,1682
07iuiut1t9rh,13424,06/03/2022@00:34:21,"Mozilla/5.0 (Macintosh; Intel Mac OS X 10_15_7) AppleWebKit/605.1.15 (KHTML, like Gecko) Version/15.3 Safari/605.1.15",1440,900,1440,820,main,1620374,150,18,16,HE,Extreme,Harder than Reference,F,j,safeDeck,riskyDeck,0,28,14,right,1,0,32,present,riskyDeck,512,842
07iuiut1t9rh,13424,06/03/2022@00:34:21,"Mozilla/5.0 (Macintosh; Intel Mac OS X 10_15_7) AppleWebKit/605.1.15 (KHTML, like Gecko) Version/15.3 Safari/605.1.15",1440,900,1440,820,main,1620374,151,18,16,EE,Extreme,Easier than Reference,F,k,safeDeck,riskyDeck,-14,0,-7,right,1,0,18,absent,riskyDeck,503,1387
07iuiut1t9rh,13424,06/03/2022@00:34:21,"Mozilla/5.0 (Macintosh; Intel Mac OS X 10_15_7) AppleWebKit/605.1.15 (KHTML, like Gecko) Version/15.3 Safari/605.1.15",1440,900,1440,820,main,1620374,152,18,16,HM,Moderate,Harder than Reference,F,k,riskyDeck,safeDeck,0,14,7,right,0,0,39,absent,safeDeck,575,1621
07iuiut1t9rh,13424,06/03/2022@00:34:21,"Mozilla/5.0 (Macintosh; Intel Mac OS X 10_15_7) AppleWebKit/605.1.15 (KHTML, like Gecko) Version/15.3 Safari/605.1.15",1440,900,1440,820,main,1620374,153,18,16,EM,Moderate,Easier than Reference,F,k,riskyDeck,safeDeck,-28,0,-14,right,0,0,18,absent,safeDeck,225,1578
07iuiut1t9rh,13424,06/03/2022@00:34:21,"Mozilla/5.0 (Macintosh; Intel Mac OS X 10_15_7) AppleWebKit/605.1.15 (KHTML, like Gecko) Version/15.3 Safari/605.1.15",1440,900,1440,820,main,1620374,154,18,16,EE,Extreme,Easier than Reference,F,k,safeDeck,riskyDeck,0,-14,-7,right,1,0,18,absent,riskyDeck,244,1292
07iuiut1t9rh,13424,06/03/2022@00:34:21,"Mozilla/5.0 (Macintosh; Intel Mac OS X 10_15_7) AppleWebKit/605.1.15 (KHTML, like Gecko) Version/15.3 Safari/605.1.15",1440,900,1440,820,main,1620374,155,18,16,HE,Extreme,Harder than Reference,F,k,riskyDeck,safeDeck,28,0,14,right,0,0,46,absent,safeDeck,573,2628
07iuiut1t9rh,13424,06/03/2022@00:34:21,"Mozilla/5.0 (Macintosh; Intel Mac OS X 10_15_7) AppleWebKit/605.1.15 (KHTML, like Gecko) Version/15.3 Safari/605.1.15",1440,900,1440,820,main,1620374,156,18,16,HM,Moderate,Harder than Reference,F,j,safeDeck,riskyDeck,14,0,7,right,1,0,32,present,riskyDeck,237,1913
07iuiut1t9rh,13424,06/03/2022@00:34:21,"Mozilla/5.0 (Macintosh; Intel Mac OS X 10_15_7) AppleWebKit/605.1.15 (KHTML, like Gecko) Version/15.3 Safari/605.1.15",1440,900,1440,820,main,1620374,157,18,16,EE,Extreme,Easier than Reference,F,k,safeDeck,riskyDeck,0,-14,-7,right,1,0,18,absent,riskyDeck,186,994
07iuiut1t9rh,13424,06/03/2022@00:34:21,"Mozilla/5.0 (Macintosh; Intel Mac OS X 10_15_7) AppleWebKit/605.1.15 (KHTML, like Gecko) Version/15.3 Safari/605.1.15",1440,900,1440,820,main,1620374,158,18,16,HE,Extreme,Harder than Reference,F,j,riskyDeck,safeDeck,0,28,14,right,0,0,46,present,safeDeck,223,1389
07iuiut1t9rh,13424,06/03/2022@00:34:21,"Mozilla/5.0 (Macintosh; Intel Mac OS X 10_15_7) AppleWebKit/605.1.15 (KHTML, like Gecko) Version/15.3 Safari/605.1.15",1440,900,1440,820,main,1620374,159,18,16,HM,Moderate,Harder than Reference,F,k,safeDeck,riskyDeck,14,0,7,right,1,1,46,present,riskyDeck,292,2519
07iuiut1t9rh,13424,06/03/2022@00:34:21,"Mozilla/5.0 (Macintosh; Intel Mac OS X 10_15_7) AppleWebKit/605.1.15 (KHTML, like Gecko) Version/15.3 Safari/605.1.15",1440,900,1440,820,main,1620374,160,18,16,EM,Moderate,Easier than Reference,F,k,safeDeck,riskyDeck,0,-28,-14,right,1,0,4,absent,riskyDeck,364,694
07iuiut1t9rh,13424,06/03/2022@00:34:21,"Mozilla/5.0 (Macintosh; Intel Mac OS X 10_15_7) AppleWebKit/605.1.15 (KHTML, like Gecko) Version/15.3 Safari/605.1.15",1440,900,1440,820,main,1620374,161,18,17,HE,Extreme,Harder than Reference,F,k,riskyDeck,safeDeck,0,28,14,right,0,0,46,absent,safeDeck,340,3610
07iuiut1t9rh,13424,06/03/2022@00:34:21,"Mozilla/5.0 (Macintosh; Intel Mac OS X 10_15_7) AppleWebKit/605.1.15 (KHTML, like Gecko) Version/15.3 Safari/605.1.15",1440,900,1440,820,main,1620374,162,18,17,EM,Moderate,Easier than Reference,F,k,riskyDeck,safeDeck,0,-28,-14,right,0,0,18,absent,safeDeck,219,1417
07iuiut1t9rh,13424,06/03/2022@00:34:21,"Mozilla/5.0 (Macintosh; Intel Mac OS X 10_15_7) AppleWebKit/605.1.15 (KHTML, like Gecko) Version/15.3 Safari/605.1.15",1440,900,1440,820,main,1620374,163,18,17,HM,Moderate,Harder than Reference,F,k,safeDeck,riskyDeck,14,0,7,right,1,0,32,absent,riskyDeck,165,2084
07iuiut1t9rh,13424,06/03/2022@00:34:21,"Mozilla/5.0 (Macintosh; Intel Mac OS X 10_15_7) AppleWebKit/605.1.15 (KHTML, like Gecko) Version/15.3 Safari/605.1.15",1440,900,1440,820,main,1620374,164,19,17,EE,Extreme,Easier than Reference,F,j,safeDeck,riskyDeck,-14,0,-7,right,1,0,32,present,riskyDeck,224,1739
07iuiut1t9rh,13424,06/03/2022@00:34:21,"Mozilla/5.0 (Macintosh; Intel Mac OS X 10_15_7) AppleWebKit/605.1.15 (KHTML, like Gecko) Version/15.3 Safari/605.1.15",1440,900,1440,820,main,1620374,165,19,17,EM,Moderate,Easier than Reference,F,k,safeDeck,riskyDeck,0,-28,-14,right,1,0,32,absent,riskyDeck,273,3175
07iuiut1t9rh,13424,06/03/2022@00:34:21,"Mozilla/5.0 (Macintosh; Intel Mac OS X 10_15_7) AppleWebKit/605.1.15 (KHTML, like Gecko) Version/15.3 Safari/605.1.15",1440,900,1440,820,main,1620374,166,19,17,HE,Extreme,Harder than Reference,F,k,riskyDeck,safeDeck,28,0,14,right,0,0,46,absent,safeDeck,135,8517
07iuiut1t9rh,13424,06/03/2022@00:34:21,"Mozilla/5.0 (Macintosh; Intel Mac OS X 10_15_7) AppleWebKit/605.1.15 (KHTML, like Gecko) Version/15.3 Safari/605.1.15",1440,900,1440,820,main,1620374,167,19,17,EE,Extreme,Easier than Reference,F,j,safeDeck,riskyDeck,0,-14,-7,right,1,0,18,present,riskyDeck,160,1201
07iuiut1t9rh,13424,06/03/2022@00:34:21,"Mozilla/5.0 (Macintosh; Intel Mac OS X 10_15_7) AppleWebKit/605.1.15 (KHTML, like Gecko) Version/15.3 Safari/605.1.15",1440,900,1440,820,main,1620374,168,19,17,HM,Moderate,Harder than Reference,F,k,safeDeck,riskyDeck,14,0,7,right,1,0,32,absent,riskyDeck,259,1773
07iuiut1t9rh,13424,06/03/2022@00:34:21,"Mozilla/5.0 (Macintosh; Intel Mac OS X 10_15_7) AppleWebKit/605.1.15 (KHTML, like Gecko) Version/15.3 Safari/605.1.15",1440,900,1440,820,main,1620374,169,19,17,HM,Moderate,Harder than Reference,F,j,riskyDeck,safeDeck,0,14,7,right,0,0,39,present,safeDeck,156,1410
07iuiut1t9rh,13424,06/03/2022@00:34:21,"Mozilla/5.0 (Macintosh; Intel Mac OS X 10_15_7) AppleWebKit/605.1.15 (KHTML, like Gecko) Version/15.3 Safari/605.1.15",1440,900,1440,820,main,1620374,170,19,17,EM,Moderate,Easier than Reference,F,j,safeDeck,riskyDeck,-28,0,-14,right,1,0,32,present,riskyDeck,82,1470
07iuiut1t9rh,13424,06/03/2022@00:34:21,"Mozilla/5.0 (Macintosh; Intel Mac OS X 10_15_7) AppleWebKit/605.1.15 (KHTML, like Gecko) Version/15.3 Safari/605.1.15",1440,900,1440,820,main,1620374,171,19,17,EE,Extreme,Easier than Reference,F,k,riskyDeck,safeDeck,0,-14,-7,right,0,0,25,absent,safeDeck,144,2983
07iuiut1t9rh,13424,06/03/2022@00:34:21,"Mozilla/5.0 (Macintosh; Intel Mac OS X 10_15_7) AppleWebKit/605.1.15 (KHTML, like Gecko) Version/15.3 Safari/605.1.15",1440,900,1440,820,main,1620374,172,19,17,HE,Extreme,Harder than Reference,F,j,riskyDeck,safeDeck,28,0,14,right,0,0,46,present,safeDeck,154,978
07iuiut1t9rh,13424,06/03/2022@00:34:21,"Mozilla/5.0 (Macintosh; Intel Mac OS X 10_15_7) AppleWebKit/605.1.15 (KHTML, like Gecko) Version/15.3 Safari/605.1.15",1440,900,1440,820,main,1620374,173,19,17,EM,Moderate,Easier than Reference,F,j,safeDeck,riskyDeck,-28,0,-14,right,1,0,4,present,riskyDeck,91,726
07iuiut1t9rh,13424,06/03/2022@00:34:21,"Mozilla/5.0 (Macintosh; Intel Mac OS X 10_15_7) AppleWebKit/605.1.15 (KHTML, like Gecko) Version/15.3 Safari/605.1.15",1440,900,1440,820,main,1620374,174,19,17,HM,Moderate,Harder than Reference,F,k,safeDeck,riskyDeck,14,0,7,right,1,0,32,absent,riskyDeck,319,3651
07iuiut1t9rh,13424,06/03/2022@00:34:21,"Mozilla/5.0 (Macintosh; Intel Mac OS X 10_15_7) AppleWebKit/605.1.15 (KHTML, like Gecko) Version/15.3 Safari/605.1.15",1440,900,1440,820,main,1620374,175,19,17,HE,Extreme,Harder than Reference,F,j,safeDeck,riskyDeck,0,28,14,right,1,0,32,present,riskyDeck,182,932
07iuiut1t9rh,13424,06/03/2022@00:34:21,"Mozilla/5.0 (Macintosh; Intel Mac OS X 10_15_7) AppleWebKit/605.1.15 (KHTML, like Gecko) Version/15.3 Safari/605.1.15",1440,900,1440,820,main,1620374,176,19,18,EE,Extreme,Easier than Reference,F,k,riskyDeck,safeDeck,-14,0,-7,right,0,0,25,absent,safeDeck,122,2574
07iuiut1t9rh,13424,06/03/2022@00:34:21,"Mozilla/5.0 (Macintosh; Intel Mac OS X 10_15_7) AppleWebKit/605.1.15 (KHTML, like Gecko) Version/15.3 Safari/605.1.15",1440,900,1440,820,main,1620374,177,19,18,HM,Moderate,Harder than Reference,F,k,riskyDeck,safeDeck,14,0,7,right,0,0,39,absent,safeDeck,1474,1828
07iuiut1t9rh,13424,06/03/2022@00:34:21,"Mozilla/5.0 (Macintosh; Intel Mac OS X 10_15_7) AppleWebKit/605.1.15 (KHTML, like Gecko) Version/15.3 Safari/605.1.15",1440,900,1440,820,main,1620374,178,20,18,HE,Extreme,Harder than Reference,F,k,riskyDeck,safeDeck,28,0,14,right,0,0,46,absent,safeDeck,173,3370
07iuiut1t9rh,13424,06/03/2022@00:34:21,"Mozilla/5.0 (Macintosh; Intel Mac OS X 10_15_7) AppleWebKit/605.1.15 (KHTML, like Gecko) Version/15.3 Safari/605.1.15",1440,900,1440,820,main,1620374,179,20,18,EM,Moderate,Easier than Reference,F,j,safeDeck,riskyDeck,0,-28,-14,right,1,0,32,present,riskyDeck,264,1878
07iuiut1t9rh,13424,06/03/2022@00:34:21,"Mozilla/5.0 (Macintosh; Intel Mac OS X 10_15_7) AppleWebKit/605.1.15 (KHTML, like Gecko) Version/15.3 Safari/605.1.15",1440,900,1440,820,main,1620374,180,20,18,EE,Extreme,Easier than Reference,F,k,riskyDeck,safeDeck,-14,0,-7,right,0,0,25,absent,safeDeck,46,2505
07iuiut1t9rh,13424,06/03/2022@00:34:21,"Mozilla/5.0 (Macintosh; Intel Mac OS X 10_15_7) AppleWebKit/605.1.15 (KHTML, like Gecko) Version/15.3 Safari/605.1.15",1440,900,1440,820,main,1620374,181,20,18,EE,Extreme,Easier than Reference,F,j,riskyDeck,safeDeck,-14,0,-7,right,0,0,25,present,safeDeck,72,1296
07iuiut1t9rh,13424,06/03/2022@00:34:21,"Mozilla/5.0 (Macintosh; Intel Mac OS X 10_15_7) AppleWebKit/605.1.15 (KHTML, like Gecko) Version/15.3 Safari/605.1.15",1440,900,1440,820,main,1620374,182,20,18,HE,Extreme,Harder than Reference,F,j,safeDeck,riskyDeck,0,28,14,right,1,0,60,present,riskyDeck,213,1707
07iuiut1t9rh,13424,06/03/2022@00:34:21,"Mozilla/5.0 (Macintosh; Intel Mac OS X 10_15_7) AppleWebKit/605.1.15 (KHTML, like Gecko) Version/15.3 Safari/605.1.15",1440,900,1440,820,main,1620374,183,20,18,EM,Moderate,Easier than Reference,F,k,riskyDeck,safeDeck,-28,0,-14,right,0,0,18,absent,safeDeck,77,1455
07iuiut1t9rh,13424,06/03/2022@00:34:21,"Mozilla/5.0 (Macintosh; Intel Mac OS X 10_15_7) AppleWebKit/605.1.15 (KHTML, like Gecko) Version/15.3 Safari/605.1.15",1440,900,1440,820,main,1620374,184,20,18,HM,Moderate,Harder than Reference,F,k,riskyDeck,safeDeck,0,14,7,right,0,0,39,absent,safeDeck,27,3853
07iuiut1t9rh,13424,06/03/2022@00:34:21,"Mozilla/5.0 (Macintosh; Intel Mac OS X 10_15_7) AppleWebKit/605.1.15 (KHTML, like Gecko) Version/15.3 Safari/605.1.15",1440,900,1440,820,main,1620374,185,20,18,EE,Extreme,Easier than Reference,F,j,safeDeck,riskyDeck,-14,0,-7,right,1,0,32,present,riskyDeck,463,1014
07iuiut1t9rh,13424,06/03/2022@00:34:21,"Mozilla/5.0 (Macintosh; Intel Mac OS X 10_15_7) AppleWebKit/605.1.15 (KHTML, like Gecko) Version/15.3 Safari/605.1.15",1440,900,1440,820,main,1620374,186,20,18,EM,Moderate,Easier than Reference,F,k,safeDeck,riskyDeck,-28,0,-14,right,1,0,32,absent,riskyDeck,118,2358
07iuiut1t9rh,13424,06/03/2022@00:34:21,"Mozilla/5.0 (Macintosh; Intel Mac OS X 10_15_7) AppleWebKit/605.1.15 (KHTML, like Gecko) Version/15.3 Safari/605.1.15",1440,900,1440,820,main,1620374,187,20,18,HM,Moderate,Harder than Reference,F,k,safeDeck,riskyDeck,0,14,7,right,1,0,46,absent,riskyDeck,217,2359
07iuiut1t9rh,13424,06/03/2022@00:34:21,"Mozilla/5.0 (Macintosh; Intel Mac OS X 10_15_7) AppleWebKit/605.1.15 (KHTML, like Gecko) Version/15.3 Safari/605.1.15",1440,900,1440,820,main,1620374,188,20,18,HE,Extreme,Harder than Reference,F,j,safeDeck,riskyDeck,0,28,14,right,1,0,32,present,riskyDeck,270,1124
07iuiut1t9rh,13424,06/03/2022@00:34:21,"Mozilla/5.0 (Macintosh; Intel Mac OS X 10_15_7) AppleWebKit/605.1.15 (KHTML, like Gecko) Version/15.3 Safari/605.1.15",1440,900,1440,820,main,1620374,189,20,18,HE,Extreme,Harder than Reference,F,k,safeDeck,riskyDeck,28,0,14,right,1,0,32,absent,riskyDeck,487,2677
07iuiut1t9rh,13424,06/03/2022@00:34:21,"Mozilla/5.0 (Macintosh; Intel Mac OS X 10_15_7) AppleWebKit/605.1.15 (KHTML, like Gecko) Version/15.3 Safari/605.1.15",1440,900,1440,820,main,1620374,190,20,18,EM,Moderate,Easier than Reference,F,k,safeDeck,riskyDeck,-28,0,-14,right,1,0,4,absent,riskyDeck,191,813
07iuiut1t9rh,13424,06/03/2022@00:34:21,"Mozilla/5.0 (Macintosh; Intel Mac OS X 10_15_7) AppleWebKit/605.1.15 (KHTML, like Gecko) Version/15.3 Safari/605.1.15",1440,900,1440,820,main,1620374,191,20,19,EE,Extreme,Easier than Reference,F,k,safeDeck,riskyDeck,-14,0,-7,right,1,0,32,absent,riskyDeck,76,2710
07iuiut1t9rh,13424,06/03/2022@00:34:21,"Mozilla/5.0 (Macintosh; Intel Mac OS X 10_15_7) AppleWebKit/605.1.15 (KHTML, like Gecko) Version/15.3 Safari/605.1.15",1440,900,1440,820,main,1620374,192,20,19,HM,Moderate,Harder than Reference,F,j,riskyDeck,safeDeck,14,0,7,right,0,0,39,present,safeDeck,113,1389
07iuiut1t9rh,13424,06/03/2022@00:34:21,"Mozilla/5.0 (Macintosh; Intel Mac OS X 10_15_7) AppleWebKit/605.1.15 (KHTML, like Gecko) Version/15.3 Safari/605.1.15",1440,900,1440,820,main,1620374,193,20,19,HM,Moderate,Harder than Reference,F,j,riskyDeck,safeDeck,14,0,7,right,0,0,39,present,safeDeck,176,923
07iuiut1t9rh,13424,06/03/2022@00:34:21,"Mozilla/5.0 (Macintosh; Intel Mac OS X 10_15_7) AppleWebKit/605.1.15 (KHTML, like Gecko) Version/15.3 Safari/605.1.15",1440,900,1440,820,main,1620374,194,21,19,EM,Moderate,Easier than Reference,F,k,safeDeck,riskyDeck,-28,0,-14,right,1,0,4,absent,riskyDeck,119,648
07iuiut1t9rh,13424,06/03/2022@00:34:21,"Mozilla/5.0 (Macintosh; Intel Mac OS X 10_15_7) AppleWebKit/605.1.15 (KHTML, like Gecko) Version/15.3 Safari/605.1.15",1440,900,1440,820,main,1620374,195,21,19,EE,Extreme,Easier than Reference,F,k,riskyDeck,safeDeck,0,-14,-7,right,0,0,25,absent,safeDeck,197,1643
07iuiut1t9rh,13424,06/03/2022@00:34:21,"Mozilla/5.0 (Macintosh; Intel Mac OS X 10_15_7) AppleWebKit/605.1.15 (KHTML, like Gecko) Version/15.3 Safari/605.1.15",1440,900,1440,820,main,1620374,196,21,19,HE,Extreme,Harder than Reference,F,k,safeDeck,riskyDeck,0,28,14,right,1,0,32,absent,riskyDeck,146,1926
07iuiut1t9rh,13424,06/03/2022@00:34:21,"Mozilla/5.0 (Macintosh; Intel Mac OS X 10_15_7) AppleWebKit/605.1.15 (KHTML, like Gecko) Version/15.3 Safari/605.1.15",1440,900,1440,820,main,1620374,197,21,19,EM,Moderate,Easier than Reference,F,k,safeDeck,riskyDeck,-28,0,-14,right,1,0,4,absent,riskyDeck,171,657
07iuiut1t9rh,13424,06/03/2022@00:34:21,"Mozilla/5.0 (Macintosh; Intel Mac OS X 10_15_7) AppleWebKit/605.1.15 (KHTML, like Gecko) Version/15.3 Safari/605.1.15",1440,900,1440,820,main,1620374,198,21,19,HM,Moderate,Harder than Reference,F,k,safeDeck,riskyDeck,14,0,7,right,1,0,32,absent,riskyDeck,377,1713
07iuiut1t9rh,13424,06/03/2022@00:34:21,"Mozilla/5.0 (Macintosh; Intel Mac OS X 10_15_7) AppleWebKit/605.1.15 (KHTML, like Gecko) Version/15.3 Safari/605.1.15",1440,900,1440,820,main,1620374,199,21,19,EE,Extreme,Easier than Reference,F,k,safeDeck,riskyDeck,0,-14,-7,right,1,0,18,absent,riskyDeck,82,1568
07iuiut1t9rh,13424,06/03/2022@00:34:21,"Mozilla/5.0 (Macintosh; Intel Mac OS X 10_15_7) AppleWebKit/605.1.15 (KHTML, like Gecko) Version/15.3 Safari/605.1.15",1440,900,1440,820,main,1620374,200,21,19,HE,Extreme,Harder than Reference,F,k,safeDeck,riskyDeck,28,0,14,right,1,0,32,absent,riskyDeck,231,1705
07iuiut1t9rh,13424,06/03/2022@00:34:21,"Mozilla/5.0 (Macintosh; Intel Mac OS X 10_15_7) AppleWebKit/605.1.15 (KHTML, like Gecko) Version/15.3 Safari/605.1.15",1440,900,1440,820,main,1620374,201,21,19,EM,Moderate,Easier than Reference,F,k,riskyDeck,safeDeck,-28,0,-14,right,0,0,18,absent,safeDeck,82,1322
07iuiut1t9rh,13424,06/03/2022@00:34:21,"Mozilla/5.0 (Macintosh; Intel Mac OS X 10_15_7) AppleWebKit/605.1.15 (KHTML, like Gecko) Version/15.3 Safari/605.1.15",1440,900,1440,820,main,1620374,202,21,19,HE,Extreme,Harder than Reference,F,k,riskyDeck,safeDeck,0,28,14,right,0,0,46,absent,safeDeck,417,5742
07iuiut1t9rh,13424,06/03/2022@00:34:21,"Mozilla/5.0 (Macintosh; Intel Mac OS X 10_15_7) AppleWebKit/605.1.15 (KHTML, like Gecko) Version/15.3 Safari/605.1.15",1440,900,1440,820,main,1620374,203,21,19,HM,Moderate,Harder than Reference,F,j,riskyDeck,safeDeck,0,14,7,right,0,0,39,present,safeDeck,110,1769
07iuiut1t9rh,13424,06/03/2022@00:34:21,"Mozilla/5.0 (Macintosh; Intel Mac OS X 10_15_7) AppleWebKit/605.1.15 (KHTML, like Gecko) Version/15.3 Safari/605.1.15",1440,900,1440,820,main,1620374,204,21,19,EE,Extreme,Easier than Reference,F,k,safeDeck,riskyDeck,-14,0,-7,right,1,0,32,absent,riskyDeck,76,3991
07iuiut1t9rh,13424,06/03/2022@00:34:21,"Mozilla/5.0 (Macintosh; Intel Mac OS X 10_15_7) AppleWebKit/605.1.15 (KHTML, like Gecko) Version/15.3 Safari/605.1.15",1440,900,1440,820,main,1620374,205,21,19,EM,Moderate,Easier than Reference,F,k,riskyDeck,safeDeck,-28,0,-14,right,0,0,18,absent,safeDeck,271,1335
07iuiut1t9rh,13424,06/03/2022@00:34:21,"Mozilla/5.0 (Macintosh; Intel Mac OS X 10_15_7) AppleWebKit/605.1.15 (KHTML, like Gecko) Version/15.3 Safari/605.1.15",1440,900,1440,820,main,1620374,206,21,19,HM,Moderate,Harder than Reference,F,k,safeDeck,riskyDeck,14,0,7,right,1,0,32,absent,riskyDeck,281,2542
07iuiut1t9rh,13424,06/03/2022@00:34:21,"Mozilla/5.0 (Macintosh; Intel Mac OS X 10_15_7) AppleWebKit/605.1.15 (KHTML, like Gecko) Version/15.3 Safari/605.1.15",1440,900,1440,820,main,1620374,207,21,20,EE,Extreme,Easier than Reference,F,k,riskyDeck,safeDeck,-14,0,-7,right,0,0,25,absent,safeDeck,252,2206
07iuiut1t9rh,13424,06/03/2022@00:34:21,"Mozilla/5.0 (Macintosh; Intel Mac OS X 10_15_7) AppleWebKit/605.1.15 (KHTML, like Gecko) Version/15.3 Safari/605.1.15",1440,900,1440,820,main,1620374,208,21,20,HE,Extreme,Harder than Reference,F,j,safeDeck,riskyDeck,0,28,14,right,1,0,60,present,riskyDeck,461,4862
07iuiut1t9rh,13424,06/03/2022@00:34:21,"Mozilla/5.0 (Macintosh; Intel Mac OS X 10_15_7) AppleWebKit/605.1.15 (KHTML, like Gecko) Version/15.3 Safari/605.1.15",1440,900,1440,820,main,1620374,209,22,20,HM,Moderate,Harder than Reference,F,k,safeDeck,riskyDeck,0,14,7,right,1,0,46,absent,riskyDeck,174,2011
07iuiut1t9rh,13424,06/03/2022@00:34:21,"Mozilla/5.0 (Macintosh; Intel Mac OS X 10_15_7) AppleWebKit/605.1.15 (KHTML, like Gecko) Version/15.3 Safari/605.1.15",1440,900,1440,820,main,1620374,210,22,20,HE,Extreme,Harder than Reference,F,k,riskyDeck,safeDeck,0,28,14,right,0,0,46,absent,safeDeck,338,3274
07iuiut1t9rh,13424,06/03/2022@00:34:21,"Mozilla/5.0 (Macintosh; Intel Mac OS X 10_15_7) AppleWebKit/605.1.15 (KHTML, like Gecko) Version/15.3 Safari/605.1.15",1440,900,1440,820,main,1620374,211,22,20,EE,Extreme,Easier than Reference,D,j,riskyDeck,safeDeck,-14,0,-7,left,1,0,32,present,riskyDeck,466,1646
07iuiut1t9rh,13424,06/03/2022@00:34:21,"Mozilla/5.0 (Macintosh; Intel Mac OS X 10_15_7) AppleWebKit/605.1.15 (KHTML, like Gecko) Version/15.3 Safari/605.1.15",1440,900,1440,820,main,1620374,212,22,20,EM,Moderate,Easier than Reference,F,k,riskyDeck,safeDeck,-28,0,-14,right,0,0,18,absent,safeDeck,442,1779
07iuiut1t9rh,13424,06/03/2022@00:34:21,"Mozilla/5.0 (Macintosh; Intel Mac OS X 10_15_7) AppleWebKit/605.1.15 (KHTML, like Gecko) Version/15.3 Safari/605.1.15",1440,900,1440,820,main,1620374,213,22,20,EM,Moderate,Easier than Reference,D,j,riskyDeck,safeDeck,0,-28,-14,left,1,0,4,present,riskyDeck,513,640
07iuiut1t9rh,13424,06/03/2022@00:34:21,"Mozilla/5.0 (Macintosh; Intel Mac OS X 10_15_7) AppleWebKit/605.1.15 (KHTML, like Gecko) Version/15.3 Safari/605.1.15",1440,900,1440,820,main,1620374,214,22,20,EE,Extreme,Easier than Reference,D,j,riskyDeck,safeDeck,-14,0,-7,left,1,0,32,present,riskyDeck,596,1222
07iuiut1t9rh,13424,06/03/2022@00:34:21,"Mozilla/5.0 (Macintosh; Intel Mac OS X 10_15_7) AppleWebKit/605.1.15 (KHTML, like Gecko) Version/15.3 Safari/605.1.15",1440,900,1440,820,main,1620374,215,22,20,HM,Moderate,Harder than Reference,F,k,safeDeck,riskyDeck,14,0,7,right,1,0,46,absent,riskyDeck,753,6109
07iuiut1t9rh,13424,06/03/2022@00:34:21,"Mozilla/5.0 (Macintosh; Intel Mac OS X 10_15_7) AppleWebKit/605.1.15 (KHTML, like Gecko) Version/15.3 Safari/605.1.15",1440,900,1440,820,main,1620374,216,22,20,HE,Extreme,Harder than Reference,F,j,riskyDeck,safeDeck,0,28,14,right,0,0,46,present,safeDeck,869,2920
07iuiut1t9rh,13424,06/03/2022@00:34:21,"Mozilla/5.0 (Macintosh; Intel Mac OS X 10_15_7) AppleWebKit/605.1.15 (KHTML, like Gecko) Version/15.3 Safari/605.1.15",1440,900,1440,820,main,1620374,217,22,20,HE,Extreme,Harder than Reference,F,k,safeDeck,riskyDeck,0,28,14,right,1,1,60,present,riskyDeck,602,4086
07iuiut1t9rh,13424,06/03/2022@00:34:21,"Mozilla/5.0 (Macintosh; Intel Mac OS X 10_15_7) AppleWebKit/605.1.15 (KHTML, like Gecko) Version/15.3 Safari/605.1.15",1440,900,1440,820,main,1620374,218,22,20,EM,Moderate,Easier than Reference,F,j,safeDeck,riskyDeck,-28,0,-14,right,1,0,4,present,riskyDeck,226,590
07iuiut1t9rh,13424,06/03/2022@00:34:21,"Mozilla/5.0 (Macintosh; Intel Mac OS X 10_15_7) AppleWebKit/605.1.15 (KHTML, like Gecko) Version/15.3 Safari/605.1.15",1440,900,1440,820,main,1620374,219,22,20,EE,Extreme,Easier than Reference,F,j,riskyDeck,safeDeck,0,-14,-7,right,0,0,25,present,safeDeck,273,2275
07iuiut1t9rh,13424,06/03/2022@00:34:21,"Mozilla/5.0 (Macintosh; Intel Mac OS X 10_15_7) AppleWebKit/605.1.15 (KHTML, like Gecko) Version/15.3 Safari/605.1.15",1440,900,1440,820,main,1620374,220,22,21,HM,Moderate,Harder than Reference,F,k,riskyDeck,safeDeck,0,14,7,right,0,1,39,present,safeDeck,564,1938
07iuiut1t9rh,13424,06/03/2022@00:34:21,"Mozilla/5.0 (Macintosh; Intel Mac OS X 10_15_7) AppleWebKit/605.1.15 (KHTML, like Gecko) Version/15.3 Safari/605.1.15",1440,900,1440,820,main,1620374,221,23,21,HM,Moderate,Harder than Reference,F,j,riskyDeck,safeDeck,0,14,7,right,0,0,39,present,safeDeck,1433,1921
07iuiut1t9rh,13424,06/03/2022@00:34:21,"Mozilla/5.0 (Macintosh; Intel Mac OS X 10_15_7) AppleWebKit/605.1.15 (KHTML, like Gecko) Version/15.3 Safari/605.1.15",1440,900,1440,820,main,1620374,222,23,21,HE,Extreme,Harder than Reference,F,j,riskyDeck,safeDeck,0,28,14,right,0,0,46,present,safeDeck,538,1136
07iuiut1t9rh,13424,06/03/2022@00:34:21,"Mozilla/5.0 (Macintosh; Intel Mac OS X 10_15_7) AppleWebKit/605.1.15 (KHTML, like Gecko) Version/15.3 Safari/605.1.15",1440,900,1440,820,main,1620374,223,23,21,EE,Extreme,Easier than Reference,F,j,safeDeck,riskyDeck,-14,0,-7,right,1,0,18,present,riskyDeck,333,691
07iuiut1t9rh,13424,06/03/2022@00:34:21,"Mozilla/5.0 (Macintosh; Intel Mac OS X 10_15_7) AppleWebKit/605.1.15 (KHTML, like Gecko) Version/15.3 Safari/605.1.15",1440,900,1440,820,main,1620374,224,23,22,EM,Moderate,Easier than Reference,F,j,riskyDeck,safeDeck,-28,0,-14,right,0,0,18,present,safeDeck,512,930
07iuiut1t9rh,13424,06/03/2022@00:34:21,"Mozilla/5.0 (Macintosh; Intel Mac OS X 10_15_7) AppleWebKit/605.1.15 (KHTML, like Gecko) Version/15.3 Safari/605.1.15",1440,900,1440,820,main,1620374,225,23,22,HM,Moderate,Harder than Reference,F,k,riskyDeck,safeDeck,0,14,7,right,0,0,39,absent,safeDeck,176,235
07iuiut1t9rh,13424,06/03/2022@00:34:21,"Mozilla/5.0 (Macintosh; Intel Mac OS X 10_15_7) AppleWebKit/605.1.15 (KHTML, like Gecko) Version/15.3 Safari/605.1.15",1440,900,1440,820,main,1620374,226,23,22,EE,Extreme,Easier than Reference,F,j,riskyDeck,safeDeck,0,-14,-7,right,0,0,25,present,safeDeck,562,1051
07iuiut1t9rh,13424,06/03/2022@00:34:21,"Mozilla/5.0 (Macintosh; Intel Mac OS X 10_15_7) AppleWebKit/605.1.15 (KHTML, like Gecko) Version/15.3 Safari/605.1.15",1440,900,1440,820,main,1620374,227,23,22,HE,Extreme,Harder than Reference,F,k,riskyDeck,safeDeck,0,28,14,right,0,1,46,present,safeDeck,532,3225
07iuiut1t9rh,13424,06/03/2022@00:34:21,"Mozilla/5.0 (Macintosh; Intel Mac OS X 10_15_7) AppleWebKit/605.1.15 (KHTML, like Gecko) Version/15.3 Safari/605.1.15",1440,900,1440,820,main,1620374,228,24,22,EM,Moderate,Easier than Reference,F,j,riskyDeck,safeDeck,0,-28,-14,right,0,0,18,present,safeDeck,283,1107
07iuiut1t9rh,13424,06/03/2022@00:34:21,"Mozilla/5.0 (Macintosh; Intel Mac OS X 10_15_7) AppleWebKit/605.1.15 (KHTML, like Gecko) Version/15.3 Safari/605.1.15",1440,900,1440,820,main,1620374,229,24,22,EE,Extreme,Easier than Reference,F,j,riskyDeck,safeDeck,-14,0,-7,right,0,0,25,present,safeDeck,424,1512
07iuiut1t9rh,13424,06/03/2022@00:34:21,"Mozilla/5.0 (Macintosh; Intel Mac OS X 10_15_7) AppleWebKit/605.1.15 (KHTML, like Gecko) Version/15.3 Safari/605.1.15",1440,900,1440,820,main,1620374,230,24,22,EM,Moderate,Easier than Reference,D,j,riskyDeck,safeDeck,-28,0,-14,left,1,0,4,present,riskyDeck,583,995
07iuiut1t9rh,13424,06/03/2022@00:34:21,"Mozilla/5.0 (Macintosh; Intel Mac OS X 10_15_7) AppleWebKit/605.1.15 (KHTML, like Gecko) Version/15.3 Safari/605.1.15",1440,900,1440,820,main,1620374,231,24,22,HE,Extreme,Harder than Reference,D,k,riskyDeck,safeDeck,28,0,14,left,1,0,32,absent,riskyDeck,826,2269
07iuiut1t9rh,13424,06/03/2022@00:34:21,"Mozilla/5.0 (Macintosh; Intel Mac OS X 10_15_7) AppleWebKit/605.1.15 (KHTML, like Gecko) Version/15.3 Safari/605.1.15",1440,900,1440,820,main,1620374,232,24,22,HM,Moderate,Harder than Reference,F,k,safeDeck,riskyDeck,14,0,7,right,1,0,46,absent,riskyDeck,528,2629
07iuiut1t9rh,13424,06/03/2022@00:34:21,"Mozilla/5.0 (Macintosh; Intel Mac OS X 10_15_7) AppleWebKit/605.1.15 (KHTML, like Gecko) Version/15.3 Safari/605.1.15",1440,900,1440,820,main,1620374,233,24,22,EE,Extreme,Easier than Reference,F,j,safeDeck,riskyDeck,-14,0,-7,right,1,0,18,present,riskyDeck,759,1298
07iuiut1t9rh,13424,06/03/2022@00:34:21,"Mozilla/5.0 (Macintosh; Intel Mac OS X 10_15_7) AppleWebKit/605.1.15 (KHTML, like Gecko) Version/15.3 Safari/605.1.15",1440,900,1440,820,main,1620374,234,24,22,HM,Moderate,Harder than Reference,D,k,riskyDeck,safeDeck,0,14,7,left,1,0,46,absent,riskyDeck,712,3150
07iuiut1t9rh,13424,06/03/2022@00:34:21,"Mozilla/5.0 (Macintosh; Intel Mac OS X 10_15_7) AppleWebKit/605.1.15 (KHTML, like Gecko) Version/15.3 Safari/605.1.15",1440,900,1440,820,main,1620374,235,24,22,HE,Extreme,Harder than Reference,F,k,safeDeck,riskyDeck,0,28,14,right,1,0,32,absent,riskyDeck,532,2094
07iuiut1t9rh,13424,06/03/2022@00:34:21,"Mozilla/5.0 (Macintosh; Intel Mac OS X 10_15_7) AppleWebKit/605.1.15 (KHTML, like Gecko) Version/15.3 Safari/605.1.15",1440,900,1440,820,main,1620374,236,24,22,EM,Moderate,Easier than Reference,D,j,riskyDeck,safeDeck,0,-28,-14,left,1,0,32,present,riskyDeck,696,1569
07iuiut1t9rh,13424,06/03/2022@00:34:21,"Mozilla/5.0 (Macintosh; Intel Mac OS X 10_15_7) AppleWebKit/605.1.15 (KHTML, like Gecko) Version/15.3 Safari/605.1.15",1440,900,1440,820,main,1620374,237,24,22,HE,Extreme,Harder than Reference,D,k,riskyDeck,safeDeck,0,28,14,left,1,0,32,absent,riskyDeck,643,1576
07iuiut1t9rh,13424,06/03/2022@00:34:21,"Mozilla/5.0 (Macintosh; Intel Mac OS X 10_15_7) AppleWebKit/605.1.15 (KHTML, like Gecko) Version/15.3 Safari/605.1.15",1440,900,1440,820,main,1620374,238,24,22,EM,Moderate,Easier than Reference,F,k,safeDeck,riskyDeck,-28,0,-14,right,1,0,4,absent,riskyDeck,453,717
07iuiut1t9rh,13424,06/03/2022@00:34:21,"Mozilla/5.0 (Macintosh; Intel Mac OS X 10_15_7) AppleWebKit/605.1.15 (KHTML, like Gecko) Version/15.3 Safari/605.1.15",1440,900,1440,820,main,1620374,239,24,22,EE,Extreme,Easier than Reference,F,j,safeDeck,riskyDeck,0,-14,-7,right,1,0,18,present,riskyDeck,515,900
07iuiut1t9rh,13424,06/03/2022@00:34:21,"Mozilla/5.0 (Macintosh; Intel Mac OS X 10_15_7) AppleWebKit/605.1.15 (KHTML, like Gecko) Version/15.3 Safari/605.1.15",1440,900,1440,820,main,1620374,240,24,23,HM,Moderate,Harder than Reference,F,k,safeDeck,riskyDeck,14,0,7,right,1,0,32,absent,riskyDeck,621,1517
07iuiut1t9rh,13424,06/03/2022@00:34:21,"Mozilla/5.0 (Macintosh; Intel Mac OS X 10_15_7) AppleWebKit/605.1.15 (KHTML, like Gecko) Version/15.3 Safari/605.1.15",1440,900,1440,820,main,1620374,241,24,23,EE,Extreme,Easier than Reference,F,k,safeDeck,riskyDeck,0,-14,-7,right,1,0,32,absent,riskyDeck,437,1881
07iuiut1t9rh,13424,06/03/2022@00:34:21,"Mozilla/5.0 (Macintosh; Intel Mac OS X 10_15_7) AppleWebKit/605.1.15 (KHTML, like Gecko) Version/15.3 Safari/605.1.15",1440,900,1440,820,main,1620374,242,24,23,EM,Moderate,Easier than Reference,F,j,safeDeck,riskyDeck,-28,0,-14,right,1,0,4,present,riskyDeck,399,721
07iuiut1t9rh,13424,06/03/2022@00:34:21,"Mozilla/5.0 (Macintosh; Intel Mac OS X 10_15_7) AppleWebKit/605.1.15 (KHTML, like Gecko) Version/15.3 Safari/605.1.15",1440,900,1440,820,main,1620374,243,25,23,HE,Extreme,Harder than Reference,D,j,riskyDeck,safeDeck,0,28,14,left,1,0,32,present,riskyDeck,690,982
07iuiut1t9rh,13424,06/03/2022@00:34:21,"Mozilla/5.0 (Macintosh; Intel Mac OS X 10_15_7) AppleWebKit/605.1.15 (KHTML, like Gecko) Version/15.3 Safari/605.1.15",1440,900,1440,820,main,1620374,244,25,23,HM,Moderate,Harder than Reference,F,k,safeDeck,riskyDeck,14,0,7,right,1,0,32,absent,riskyDeck,449,2112
07iuiut1t9rh,13424,06/03/2022@00:34:21,"Mozilla/5.0 (Macintosh; Intel Mac OS X 10_15_7) AppleWebKit/605.1.15 (KHTML, like Gecko) Version/15.3 Safari/605.1.15",1440,900,1440,820,main,1620374,245,25,23,HM,Moderate,Harder than Reference,D,k,riskyDeck,safeDeck,0,14,7,left,1,0,32,absent,riskyDeck,740,2717
07iuiut1t9rh,13424,06/03/2022@00:34:21,"Mozilla/5.0 (Macintosh; Intel Mac OS X 10_15_7) AppleWebKit/605.1.15 (KHTML, like Gecko) Version/15.3 Safari/605.1.15",1440,900,1440,820,main,1620374,246,25,23,EM,Moderate,Easier than Reference,D,j,riskyDeck,safeDeck,-28,0,-14,left,1,0,32,present,riskyDeck,614,1074
07iuiut1t9rh,13424,06/03/2022@00:34:21,"Mozilla/5.0 (Macintosh; Intel Mac OS X 10_15_7) AppleWebKit/605.1.15 (KHTML, like Gecko) Version/15.3 Safari/605.1.15",1440,900,1440,820,main,1620374,247,25,23,EE,Extreme,Easier than Reference,F,k,safeDeck,riskyDeck,-14,0,-7,right,1,0,32,absent,riskyDeck,510,2264
07iuiut1t9rh,13424,06/03/2022@00:34:21,"Mozilla/5.0 (Macintosh; Intel Mac OS X 10_15_7) AppleWebKit/605.1.15 (KHTML, like Gecko) Version/15.3 Safari/605.1.15",1440,900,1440,820,main,1620374,248,25,23,HE,Extreme,Harder than Reference,D,k,riskyDeck,safeDeck,0,28,14,left,1,0,60,absent,riskyDeck,628,4225
07iuiut1t9rh,13424,06/03/2022@00:34:21,"Mozilla/5.0 (Macintosh; Intel Mac OS X 10_15_7) AppleWebKit/605.1.15 (KHTML, like Gecko) Version/15.3 Safari/605.1.15",1440,900,1440,820,main,1620374,249,25,23,HE,Extreme,Harder than Reference,D,j,riskyDeck,safeDeck,0,28,14,left,1,0,60,present,riskyDeck,722,1892
07iuiut1t9rh,13424,06/03/2022@00:34:21,"Mozilla/5.0 (Macintosh; Intel Mac OS X 10_15_7) AppleWebKit/605.1.15 (KHTML, like Gecko) Version/15.3 Safari/605.1.15",1440,900,1440,820,main,1620374,250,25,23,HM,Moderate,Harder than Reference,F,k,safeDeck,riskyDeck,0,14,7,right,1,0,46,absent,riskyDeck,472,3804
07iuiut1t9rh,13424,06/03/2022@00:34:21,"Mozilla/5.0 (Macintosh; Intel Mac OS X 10_15_7) AppleWebKit/605.1.15 (KHTML, like Gecko) Version/15.3 Safari/605.1.15",1440,900,1440,820,main,1620374,251,25,23,EE,Extreme,Easier than Reference,F,k,safeDeck,riskyDeck,-14,0,-7,right,1,0,32,absent,riskyDeck,415,1971
07iuiut1t9rh,13424,06/03/2022@00:34:21,"Mozilla/5.0 (Macintosh; Intel Mac OS X 10_15_7) AppleWebKit/605.1.15 (KHTML, like Gecko) Version/15.3 Safari/605.1.15",1440,900,1440,820,main,1620374,252,25,23,EM,Moderate,Easier than Reference,F,j,safeDeck,riskyDeck,-28,0,-14,right,1,0,32,present,riskyDeck,359,863
07iuiut1t9rh,13424,06/03/2022@00:34:21,"Mozilla/5.0 (Macintosh; Intel Mac OS X 10_15_7) AppleWebKit/605.1.15 (KHTML, like Gecko) Version/15.3 Safari/605.1.15",1440,900,1440,820,main,1620374,253,25,23,EE,Extreme,Easier than Reference,D,j,riskyDeck,safeDeck,0,-14,-7,left,1,0,18,present,riskyDeck,627,856
07iuiut1t9rh,13424,06/03/2022@00:34:21,"Mozilla/5.0 (Macintosh; Intel Mac OS X 10_15_7) AppleWebKit/605.1.15 (KHTML, like Gecko) Version/15.3 Safari/605.1.15",1440,900,1440,820,main,1620374,254,25,23,HM,Moderate,Harder than Reference,D,k,riskyDeck,safeDeck,0,14,7,left,1,0,32,absent,riskyDeck,669,1726
07iuiut1t9rh,13424,06/03/2022@00:34:21,"Mozilla/5.0 (Macintosh; Intel Mac OS X 10_15_7) AppleWebKit/605.1.15 (KHTML, like Gecko) Version/15.3 Safari/605.1.15",1440,900,1440,820,main,1620374,255,25,24,HE,Extreme,Harder than Reference,F,j,safeDeck,riskyDeck,28,0,14,right,1,0,60,present,riskyDeck,436,2252
07iuiut1t9rh,13424,06/03/2022@00:34:21,"Mozilla/5.0 (Macintosh; Intel Mac OS X 10_15_7) AppleWebKit/605.1.15 (KHTML, like Gecko) Version/15.3 Safari/605.1.15",1440,900,1440,820,main,1620374,256,25,24,EM,Moderate,Easier than Reference,D,k,riskyDeck,safeDeck,-28,0,-14,left,1,0,4,absent,riskyDeck,509,726
07iuiut1t9rh,13424,06/03/2022@00:34:21,"Mozilla/5.0 (Macintosh; Intel Mac OS X 10_15_7) AppleWebKit/605.1.15 (KHTML, like Gecko) Version/15.3 Safari/605.1.15",1440,900,1440,820,main,1620374,257,25,24,HE,Extreme,Harder than Reference,F,k,safeDeck,riskyDeck,28,0,14,right,1,0,60,absent,riskyDeck,461,3226
07iuiut1t9rh,13424,06/03/2022@00:34:21,"Mozilla/5.0 (Macintosh; Intel Mac OS X 10_15_7) AppleWebKit/605.1.15 (KHTML, like Gecko) Version/15.3 Safari/605.1.15",1440,900,1440,820,main,1620374,258,26,24,EE,Extreme,Easier than Reference,F,j,safeDeck,riskyDeck,-14,0,-7,right,1,0,18,present,riskyDeck,471,1033
07iuiut1t9rh,13424,06/03/2022@00:34:21,"Mozilla/5.0 (Macintosh; Intel Mac OS X 10_15_7) AppleWebKit/605.1.15 (KHTML, like Gecko) Version/15.3 Safari/605.1.15",1440,900,1440,820,main,1620374,259,26,24,EM,Moderate,Easier than Reference,D,k,riskyDeck,safeDeck,0,-28,-14,left,1,0,4,absent,riskyDeck,569,952
07iuiut1t9rh,13424,06/03/2022@00:34:21,"Mozilla/5.0 (Macintosh; Intel Mac OS X 10_15_7) AppleWebKit/605.1.15 (KHTML, like Gecko) Version/15.3 Safari/605.1.15",1440,900,1440,820,main,1620374,260,26,24,HM,Moderate,Harder than Reference,D,j,riskyDeck,safeDeck,0,14,7,left,1,0,32,present,riskyDeck,660,1062
07iuiut1t9rh,13424,06/03/2022@00:34:21,"Mozilla/5.0 (Macintosh; Intel Mac OS X 10_15_7) AppleWebKit/605.1.15 (KHTML, like Gecko) Version/15.3 Safari/605.1.15",1440,900,1440,820,main,1620374,261,26,24,HE,Extreme,Harder than Reference,D,k,riskyDeck,safeDeck,0,28,14,left,1,0,32,absent,riskyDeck,684,1170
07iuiut1t9rh,13424,06/03/2022@00:34:21,"Mozilla/5.0 (Macintosh; Intel Mac OS X 10_15_7) AppleWebKit/605.1.15 (KHTML, like Gecko) Version/15.3 Safari/605.1.15",1440,900,1440,820,main,1620374,262,26,24,EE,Extreme,Easier than Reference,D,k,riskyDeck,safeDeck,-14,0,-7,left,1,0,32,absent,riskyDeck,525,1338
07iuiut1t9rh,13424,06/03/2022@00:34:21,"Mozilla/5.0 (Macintosh; Intel Mac OS X 10_15_7) AppleWebKit/605.1.15 (KHTML, like Gecko) Version/15.3 Safari/605.1.15",1440,900,1440,820,main,1620374,263,26,24,HM,Moderate,Harder than Reference,F,j,safeDeck,riskyDeck,14,0,7,right,1,0,32,present,riskyDeck,432,1582
07iuiut1t9rh,13424,06/03/2022@00:34:21,"Mozilla/5.0 (Macintosh; Intel Mac OS X 10_15_7) AppleWebKit/605.1.15 (KHTML, like Gecko) Version/15.3 Safari/605.1.15",1440,900,1440,820,main,1620374,264,26,24,EM,Moderate,Easier than Reference,F,k,safeDeck,riskyDeck,-28,0,-14,right,1,0,32,absent,riskyDeck,401,1476
07iuiut1t9rh,13424,06/03/2022@00:34:21,"Mozilla/5.0 (Macintosh; Intel Mac OS X 10_15_7) AppleWebKit/605.1.15 (KHTML, like Gecko) Version/15.3 Safari/605.1.15",1440,900,1440,820,main,1620374,265,26,24,EE,Extreme,Easier than Reference,F,j,safeDeck,riskyDeck,-14,0,-7,right,1,0,18,present,riskyDeck,1544,815
07iuiut1t9rh,13424,06/03/2022@00:34:21,"Mozilla/5.0 (Macintosh; Intel Mac OS X 10_15_7) AppleWebKit/605.1.15 (KHTML, like Gecko) Version/15.3 Safari/605.1.15",1440,900,1440,820,main,1620374,266,26,24,HM,Moderate,Harder than Reference,F,k,safeDeck,riskyDeck,14,0,7,right,1,1,32,present,riskyDeck,583,1593
07iuiut1t9rh,13424,06/03/2022@00:34:21,"Mozilla/5.0 (Macintosh; Intel Mac OS X 10_15_7) AppleWebKit/605.1.15 (KHTML, like Gecko) Version/15.3 Safari/605.1.15",1440,900,1440,820,main,1620374,267,26,24,HE,Extreme,Harder than Reference,D,j,riskyDeck,safeDeck,0,28,14,left,1,0,32,present,riskyDeck,569,1141
07iuiut1t9rh,13424,06/03/2022@00:34:21,"Mozilla/5.0 (Macintosh; Intel Mac OS X 10_15_7) AppleWebKit/605.1.15 (KHTML, like Gecko) Version/15.3 Safari/605.1.15",1440,900,1440,820,main,1620374,268,26,24,EM,Moderate,Easier than Reference,F,k,safeDeck,riskyDeck,-28,0,-14,right,1,0,32,absent,riskyDeck,137,1470
07iuiut1t9rh,13424,06/03/2022@00:34:21,"Mozilla/5.0 (Macintosh; Intel Mac OS X 10_15_7) AppleWebKit/605.1.15 (KHTML, like Gecko) Version/15.3 Safari/605.1.15",1440,900,1440,820,main,1620374,269,26,24,HM,Moderate,Harder than Reference,F,k,riskyDeck,safeDeck,0,14,7,right,0,0,39,absent,safeDeck,208,2190
07iuiut1t9rh,13424,06/03/2022@00:34:21,"Mozilla/5.0 (Macintosh; Intel Mac OS X 10_15_7) AppleWebKit/605.1.15 (KHTML, like Gecko) Version/15.3 Safari/605.1.15",1440,900,1440,820,main,1620374,270,26,25,EM,Moderate,Easier than Reference,D,k,riskyDeck,safeDeck,-28,0,-14,left,1,0,32,absent,riskyDeck,183,1863
07iuiut1t9rh,13424,06/03/2022@00:34:21,"Mozilla/5.0 (Macintosh; Intel Mac OS X 10_15_7) AppleWebKit/605.1.15 (KHTML, like Gecko) Version/15.3 Safari/605.1.15",1440,900,1440,820,main,1620374,271,26,25,HE,Extreme,Harder than Reference,D,j,riskyDeck,safeDeck,28,0,14,left,1,0,32,present,riskyDeck,873,1312
07iuiut1t9rh,13424,06/03/2022@00:34:21,"Mozilla/5.0 (Macintosh; Intel Mac OS X 10_15_7) AppleWebKit/605.1.15 (KHTML, like Gecko) Version/15.3 Safari/605.1.15",1440,900,1440,820,main,1620374,272,26,25,EE,Extreme,Easier than Reference,F,k,safeDeck,riskyDeck,0,-14,-7,right,1,0,32,absent,riskyDeck,730,2109
07iuiut1t9rh,13424,06/03/2022@00:34:21,"Mozilla/5.0 (Macintosh; Intel Mac OS X 10_15_7) AppleWebKit/605.1.15 (KHTML, like Gecko) Version/15.3 Safari/605.1.15",1440,900,1440,820,main,1620374,273,27,25,HE,Extreme,Harder than Reference,F,j,safeDeck,riskyDeck,28,0,14,right,1,0,32,present,riskyDeck,433,1068
07iuiut1t9rh,13424,06/03/2022@00:34:21,"Mozilla/5.0 (Macintosh; Intel Mac OS X 10_15_7) AppleWebKit/605.1.15 (KHTML, like Gecko) Version/15.3 Safari/605.1.15",1440,900,1440,820,main,1620374,274,27,25,EM,Moderate,Easier than Reference,D,k,riskyDeck,safeDeck,0,-28,-14,left,1,0,4,absent,riskyDeck,420,661
07iuiut1t9rh,13424,06/03/2022@00:34:21,"Mozilla/5.0 (Macintosh; Intel Mac OS X 10_15_7) AppleWebKit/605.1.15 (KHTML, like Gecko) Version/15.3 Safari/605.1.15",1440,900,1440,820,main,1620374,275,27,25,HM,Moderate,Harder than Reference,D,k,riskyDeck,safeDeck,14,0,7,left,1,0,46,absent,riskyDeck,642,2762
07iuiut1t9rh,13424,06/03/2022@00:34:21,"Mozilla/5.0 (Macintosh; Intel Mac OS X 10_15_7) AppleWebKit/605.1.15 (KHTML, like Gecko) Version/15.3 Safari/605.1.15",1440,900,1440,820,main,1620374,276,27,25,EE,Extreme,Easier than Reference,F,k,safeDeck,riskyDeck,0,-14,-7,right,1,1,18,present,riskyDeck,90,1322
07iuiut1t9rh,13424,06/03/2022@00:34:21,"Mozilla/5.0 (Macintosh; Intel Mac OS X 10_15_7) AppleWebKit/605.1.15 (KHTML, like Gecko) Version/15.3 Safari/605.1.15",1440,900,1440,820,main,1620374,277,27,25,HE,Extreme,Harder than Reference,F,k,riskyDeck,safeDeck,28,0,14,right,0,1,46,present,safeDeck,163,2663
07iuiut1t9rh,13424,06/03/2022@00:34:21,"Mozilla/5.0 (Macintosh; Intel Mac OS X 10_15_7) AppleWebKit/605.1.15 (KHTML, like Gecko) Version/15.3 Safari/605.1.15",1440,900,1440,820,main,1620374,278,27,25,EM,Moderate,Easier than Reference,D,j,riskyDeck,safeDeck,-28,0,-14,left,1,0,32,present,riskyDeck,302,1716
07iuiut1t9rh,13424,06/03/2022@00:34:21,"Mozilla/5.0 (Macintosh; Intel Mac OS X 10_15_7) AppleWebKit/605.1.15 (KHTML, like Gecko) Version/15.3 Safari/605.1.15",1440,900,1440,820,main,1620374,279,27,25,HM,Moderate,Harder than Reference,F,k,riskyDeck,safeDeck,0,14,7,right,0,0,39,absent,safeDeck,496,2325
07iuiut1t9rh,13424,06/03/2022@00:34:21,"Mozilla/5.0 (Macintosh; Intel Mac OS X 10_15_7) AppleWebKit/605.1.15 (KHTML, like Gecko) Version/15.3 Safari/605.1.15",1440,900,1440,820,main,1620374,280,27,25,EE,Extreme,Easier than Reference,F,k,riskyDeck,safeDeck,-14,0,-7,right,0,0,25,absent,safeDeck,263,1355
07iuiut1t9rh,13424,06/03/2022@00:34:21,"Mozilla/5.0 (Macintosh; Intel Mac OS X 10_15_7) AppleWebKit/605.1.15 (KHTML, like Gecko) Version/15.3 Safari/605.1.15",1440,900,1440,820,main,1620374,281,27,25,HE,Extreme,Harder than Reference,D,k,safeDeck,riskyDeck,0,28,14,left,0,0,46,absent,safeDeck,217,2065
07iuiut1t9rh,13424,06/03/2022@00:34:21,"Mozilla/5.0 (Macintosh; Intel Mac OS X 10_15_7) AppleWebKit/605.1.15 (KHTML, like Gecko) Version/15.3 Safari/605.1.15",1440,900,1440,820,main,1620374,282,27,25,HM,Moderate,Harder than Reference,F,j,safeDeck,riskyDeck,0,14,7,right,1,0,32,present,riskyDeck,266,881
07iuiut1t9rh,13424,06/03/2022@00:34:21,"Mozilla/5.0 (Macintosh; Intel Mac OS X 10_15_7) AppleWebKit/605.1.15 (KHTML, like Gecko) Version/15.3 Safari/605.1.15",1440,900,1440,820,main,1620374,283,27,25,EE,Extreme,Easier than Reference,D,j,riskyDeck,safeDeck,0,-14,-7,left,1,0,18,present,riskyDeck,367,1227
07iuiut1t9rh,13424,06/03/2022@00:34:21,"Mozilla/5.0 (Macintosh; Intel Mac OS X 10_15_7) AppleWebKit/605.1.15 (KHTML, like Gecko) Version/15.3 Safari/605.1.15",1440,900,1440,820,main,1620374,284,27,25,EM,Moderate,Easier than Reference,D,k,riskyDeck,safeDeck,-28,0,-14,left,1,0,32,absent,riskyDeck,515,1662
07iuiut1t9rh,13424,06/03/2022@00:34:21,"Mozilla/5.0 (Macintosh; Intel Mac OS X 10_15_7) AppleWebKit/605.1.15 (KHTML, like Gecko) Version/15.3 Safari/605.1.15",1440,900,1440,820,main,1620374,285,27,25,EM,Moderate,Easier than Reference,F,j,riskyDeck,safeDeck,0,-28,-14,right,0,0,18,present,safeDeck,209,757
07iuiut1t9rh,13424,06/03/2022@00:34:21,"Mozilla/5.0 (Macintosh; Intel Mac OS X 10_15_7) AppleWebKit/605.1.15 (KHTML, like Gecko) Version/15.3 Safari/605.1.15",1440,900,1440,820,main,1620374,286,27,26,HE,Extreme,Harder than Reference,F,k,safeDeck,riskyDeck,28,0,14,right,1,0,60,absent,riskyDeck,720,3337
07iuiut1t9rh,13424,06/03/2022@00:34:21,"Mozilla/5.0 (Macintosh; Intel Mac OS X 10_15_7) AppleWebKit/605.1.15 (KHTML, like Gecko) Version/15.3 Safari/605.1.15",1440,900,1440,820,main,1620374,287,27,26,EE,Extreme,Easier than Reference,D,k,riskyDeck,safeDeck,-14,0,-7,left,1,0,32,absent,riskyDeck,801,1904
07iuiut1t9rh,13424,06/03/2022@00:34:21,"Mozilla/5.0 (Macintosh; Intel Mac OS X 10_15_7) AppleWebKit/605.1.15 (KHTML, like Gecko) Version/15.3 Safari/605.1.15",1440,900,1440,820,main,1620374,288,28,26,HM,Moderate,Harder than Reference,F,j,safeDeck,riskyDeck,14,0,7,right,1,0,32,present,riskyDeck,575,1474
07iuiut1t9rh,13424,06/03/2022@00:34:21,"Mozilla/5.0 (Macintosh; Intel Mac OS X 10_15_7) AppleWebKit/605.1.15 (KHTML, like Gecko) Version/15.3 Safari/605.1.15",1440,900,1440,820,main,1620374,289,28,26,HM,Moderate,Harder than Reference,F,k,safeDeck,riskyDeck,0,14,7,right,1,0,32,absent,riskyDeck,107,1405
07iuiut1t9rh,13424,06/03/2022@00:34:21,"Mozilla/5.0 (Macintosh; Intel Mac OS X 10_15_7) AppleWebKit/605.1.15 (KHTML, like Gecko) Version/15.3 Safari/605.1.15",1440,900,1440,820,main,1620374,290,28,26,EM,Moderate,Easier than Reference,F,k,riskyDeck,safeDeck,-28,0,-14,right,0,0,18,absent,safeDeck,270,1010
07iuiut1t9rh,13424,06/03/2022@00:34:21,"Mozilla/5.0 (Macintosh; Intel Mac OS X 10_15_7) AppleWebKit/605.1.15 (KHTML, like Gecko) Version/15.3 Safari/605.1.15",1440,900,1440,820,main,1620374,291,28,26,EE,Extreme,Easier than Reference,D,k,riskyDeck,safeDeck,0,-14,-7,left,1,0,18,absent,riskyDeck,460,812
07iuiut1t9rh,13424,06/03/2022@00:34:21,"Mozilla/5.0 (Macintosh; Intel Mac OS X 10_15_7) AppleWebKit/605.1.15 (KHTML, like Gecko) Version/15.3 Safari/605.1.15",1440,900,1440,820,main,1620374,292,28,26,HE,Extreme,Harder than Reference,F,k,safeDeck,riskyDeck,28,0,14,right,1,1,60,present,riskyDeck,494,3516
07iuiut1t9rh,13424,06/03/2022@00:34:21,"Mozilla/5.0 (Macintosh; Intel Mac OS X 10_15_7) AppleWebKit/605.1.15 (KHTML, like Gecko) Version/15.3 Safari/605.1.15",1440,900,1440,820,main,1620374,293,28,26,HM,Moderate,Harder than Reference,F,j,safeDeck,riskyDeck,14,0,7,right,1,0,32,present,riskyDeck,269,1777
07iuiut1t9rh,13424,06/03/2022@00:34:21,"Mozilla/5.0 (Macintosh; Intel Mac OS X 10_15_7) AppleWebKit/605.1.15 (KHTML, like Gecko) Version/15.3 Safari/605.1.15",1440,900,1440,820,main,1620374,294,28,26,EM,Moderate,Easier than Reference,D,j,riskyDeck,safeDeck,-28,0,-14,left,1,0,32,present,riskyDeck,623,1576
07iuiut1t9rh,13424,06/03/2022@00:34:21,"Mozilla/5.0 (Macintosh; Intel Mac OS X 10_15_7) AppleWebKit/605.1.15 (KHTML, like Gecko) Version/15.3 Safari/605.1.15",1440,900,1440,820,main,1620374,295,28,26,EE,Extreme,Easier than Reference,D,k,riskyDeck,safeDeck,-14,0,-7,left,1,0,18,absent,riskyDeck,502,1534
07iuiut1t9rh,13424,06/03/2022@00:34:21,"Mozilla/5.0 (Macintosh; Intel Mac OS X 10_15_7) AppleWebKit/605.1.15 (KHTML, like Gecko) Version/15.3 Safari/605.1.15",1440,900,1440,820,main,1620374,296,28,26,HE,Extreme,Harder than Reference,D,k,riskyDeck,safeDeck,28,0,14,left,1,1,60,present,riskyDeck,631,5364
07iuiut1t9rh,13424,06/03/2022@00:34:21,"Mozilla/5.0 (Macintosh; Intel Mac OS X 10_15_7) AppleWebKit/605.1.15 (KHTML, like Gecko) Version/15.3 Safari/605.1.15",1440,900,1440,820,main,1620374,297,28,26,HE,Extreme,Harder than Reference,F,j,safeDeck,riskyDeck,28,0,14,right,1,0,32,present,riskyDeck,297,1280
07iuiut1t9rh,13424,06/03/2022@00:34:21,"Mozilla/5.0 (Macintosh; Intel Mac OS X 10_15_7) AppleWebKit/605.1.15 (KHTML, like Gecko) Version/15.3 Safari/605.1.15",1440,900,1440,820,main,1620374,298,28,26,HM,Moderate,Harder than Reference,D,j,safeDeck,riskyDeck,14,0,7,left,0,0,39,present,safeDeck,130,875
07iuiut1t9rh,13424,06/03/2022@00:34:21,"Mozilla/5.0 (Macintosh; Intel Mac OS X 10_15_7) AppleWebKit/605.1.15 (KHTML, like Gecko) Version/15.3 Safari/605.1.15",1440,900,1440,820,main,1620374,299,28,26,EE,Extreme,Easier than Reference,F,k,safeDeck,riskyDeck,-14,0,-7,right,1,0,18,absent,riskyDeck,64,1434
07iuiut1t9rh,13424,06/03/2022@00:34:21,"Mozilla/5.0 (Macintosh; Intel Mac OS X 10_15_7) AppleWebKit/605.1.15 (KHTML, like Gecko) Version/15.3 Safari/605.1.15",1440,900,1440,820,main,1620374,300,28,26,EM,Moderate,Easier than Reference,F,j,riskyDeck,safeDeck,-28,0,-14,right,0,0,18,present,safeDeck,159,830
07iuiut1t9rh,13424,06/03/2022@00:34:21,"Mozilla/5.0 (Macintosh; Intel Mac OS X 10_15_7) AppleWebKit/605.1.15 (KHTML, like Gecko) Version/15.3 Safari/605.1.15",1440,900,1440,820,main,1620374,301,28,27,EM,Moderate,Easier than Reference,D,j,riskyDeck,safeDeck,0,-28,-14,left,1,0,32,present,riskyDeck,484,1914
07iuiut1t9rh,13424,06/03/2022@00:34:21,"Mozilla/5.0 (Macintosh; Intel Mac OS X 10_15_7) AppleWebKit/605.1.15 (KHTML, like Gecko) Version/15.3 Safari/605.1.15",1440,900,1440,820,main,1620374,302,28,27,EE,Extreme,Easier than Reference,F,j,riskyDeck,safeDeck,0,-14,-7,right,0,0,25,present,safeDeck,305,871
07iuiut1t9rh,13424,06/03/2022@00:34:21,"Mozilla/5.0 (Macintosh; Intel Mac OS X 10_15_7) AppleWebKit/605.1.15 (KHTML, like Gecko) Version/15.3 Safari/605.1.15",1440,900,1440,820,main,1620374,303,28,27,HE,Extreme,Harder than Reference,F,j,safeDeck,riskyDeck,28,0,14,right,1,0,32,present,riskyDeck,541,1107
07iuiut1t9rh,13424,06/03/2022@00:34:21,"Mozilla/5.0 (Macintosh; Intel Mac OS X 10_15_7) AppleWebKit/605.1.15 (KHTML, like Gecko) Version/15.3 Safari/605.1.15",1440,900,1440,820,main,1620374,304,29,27,HM,Moderate,Harder than Reference,D,k,riskyDeck,safeDeck,0,14,7,left,1,0,32,absent,riskyDeck,687,2724
07iuiut1t9rh,13424,06/03/2022@00:34:21,"Mozilla/5.0 (Macintosh; Intel Mac OS X 10_15_7) AppleWebKit/605.1.15 (KHTML, like Gecko) Version/15.3 Safari/605.1.15",1440,900,1440,820,main,1620374,305,29,27,EM,Moderate,Easier than Reference,F,k,safeDeck,riskyDeck,0,-28,-14,right,1,0,4,absent,riskyDeck,417,898
07iuiut1t9rh,13424,06/03/2022@00:34:21,"Mozilla/5.0 (Macintosh; Intel Mac OS X 10_15_7) AppleWebKit/605.1.15 (KHTML, like Gecko) Version/15.3 Safari/605.1.15",1440,900,1440,820,main,1620374,306,29,27,HM,Moderate,Harder than Reference,D,j,riskyDeck,safeDeck,0,14,7,left,1,0,46,present,riskyDeck,651,2244
07iuiut1t9rh,13424,06/03/2022@00:34:21,"Mozilla/5.0 (Macintosh; Intel Mac OS X 10_15_7) AppleWebKit/605.1.15 (KHTML, like Gecko) Version/15.3 Safari/605.1.15",1440,900,1440,820,main,1620374,307,29,27,EE,Extreme,Easier than Reference,F,j,safeDeck,riskyDeck,-14,0,-7,right,1,0,18,present,riskyDeck,526,1461
07iuiut1t9rh,13424,06/03/2022@00:34:21,"Mozilla/5.0 (Macintosh; Intel Mac OS X 10_15_7) AppleWebKit/605.1.15 (KHTML, like Gecko) Version/15.3 Safari/605.1.15",1440,900,1440,820,main,1620374,308,29,27,HE,Extreme,Harder than Reference,F,j,riskyDeck,safeDeck,0,28,14,right,0,0,46,present,safeDeck,612,3019
12ca06vw3bvp,13608,01/03/2022@11:57:23,"Mozilla/5.0 (Windows NT 10.0; Win64; x64) AppleWebKit/537.36 (KHTML, like Gecko) Chrome/98.0.4758.102 Safari/537.36",1707,960,1707,849,main,1846905,1,5,3,HM,Moderate,Harder than Reference,D,k,riskyDeck,safeDeck,14,0,7,left,1,0,46,absent,riskyDeck,3983,13001
12ca06vw3bvp,13608,01/03/2022@11:57:23,"Mozilla/5.0 (Windows NT 10.0; Win64; x64) AppleWebKit/537.36 (KHTML, like Gecko) Chrome/98.0.4758.102 Safari/537.36",1707,960,1707,849,main,1846905,2,5,3,EE,Extreme,Easier than Reference,F,j,safeDeck,riskyDeck,0,-14,-7,right,1,0,32,present,riskyDeck,3665,1446
12ca06vw3bvp,13608,01/03/2022@11:57:23,"Mozilla/5.0 (Windows NT 10.0; Win64; x64) AppleWebKit/537.36 (KHTML, like Gecko) Chrome/98.0.4758.102 Safari/537.36",1707,960,1707,849,main,1846905,3,6,3,HE,Extreme,Harder than Reference,F,j,riskyDeck,safeDeck,28,0,14,right,0,0,46,present,safeDeck,3279,4376
12ca06vw3bvp,13608,01/03/2022@11:57:23,"Mozilla/5.0 (Windows NT 10.0; Win64; x64) AppleWebKit/537.36 (KHTML, like Gecko) Chrome/98.0.4758.102 Safari/537.36",1707,960,1707,849,main,1846905,4,6,3,EM,Moderate,Easier than Reference,D,j,riskyDeck,safeDeck,-28,0,-14,left,1,0,32,present,riskyDeck,2917,3012
12ca06vw3bvp,13608,01/03/2022@11:57:23,"Mozilla/5.0 (Windows NT 10.0; Win64; x64) AppleWebKit/537.36 (KHTML, like Gecko) Chrome/98.0.4758.102 Safari/537.36",1707,960,1707,849,main,1846905,5,6,3,HM,Moderate,Harder than Reference,D,k,safeDeck,riskyDeck,0,14,7,left,0,0,39,absent,safeDeck,2548,10362
12ca06vw3bvp,13608,01/03/2022@11:57:23,"Mozilla/5.0 (Windows NT 10.0; Win64; x64) AppleWebKit/537.36 (KHTML, like Gecko) Chrome/98.0.4758.102 Safari/537.36",1707,960,1707,849,main,1846905,6,6,3,EE,Extreme,Easier than Reference,D,j,safeDeck,riskyDeck,-14,0,-7,left,0,0,25,present,safeDeck,2761,1009
12ca06vw3bvp,13608,01/03/2022@11:57:23,"Mozilla/5.0 (Windows NT 10.0; Win64; x64) AppleWebKit/537.36 (KHTML, like Gecko) Chrome/98.0.4758.102 Safari/537.36",1707,960,1707,849,main,1846905,7,6,3,EM,Moderate,Easier than Reference,D,k,safeDeck,riskyDeck,0,-28,-14,left,0,0,18,absent,safeDeck,1882,3765
12ca06vw3bvp,13608,01/03/2022@11:57:23,"Mozilla/5.0 (Windows NT 10.0; Win64; x64) AppleWebKit/537.36 (KHTML, like Gecko) Chrome/98.0.4758.102 Safari/537.36",1707,960,1707,849,main,1846905,8,6,4,HE,Extreme,Harder than Reference,F,k,riskyDeck,safeDeck,28,0,14,right,0,0,46,absent,safeDeck,1457,11332
12ca06vw3bvp,13608,01/03/2022@11:57:23,"Mozilla/5.0 (Windows NT 10.0; Win64; x64) AppleWebKit/537.36 (KHTML, like Gecko) Chrome/98.0.4758.102 Safari/537.36",1707,960,1707,849,main,1846905,9,6,4,HM,Moderate,Harder than Reference,F,j,riskyDeck,safeDeck,14,0,7,right,0,0,39,present,safeDeck,1555,2145
12ca06vw3bvp,13608,01/03/2022@11:57:23,"Mozilla/5.0 (Windows NT 10.0; Win64; x64) AppleWebKit/537.36 (KHTML, like Gecko) Chrome/98.0.4758.102 Safari/537.36",1707,960,1707,849,main,1846905,10,7,4,HE,Extreme,Harder than Reference,D,k,safeDeck,riskyDeck,28,0,14,left,0,0,46,absent,safeDeck,2379,9931
12ca06vw3bvp,13608,01/03/2022@11:57:23,"Mozilla/5.0 (Windows NT 10.0; Win64; x64) AppleWebKit/537.36 (KHTML, like Gecko) Chrome/98.0.4758.102 Safari/537.36",1707,960,1707,849,main,1846905,11,7,4,EE,Extreme,Easier than Reference,F,k,safeDeck,riskyDeck,-14,0,-7,right,1,0,18,absent,riskyDeck,3278,4474
12ca06vw3bvp,13608,01/03/2022@11:57:23,"Mozilla/5.0 (Windows NT 10.0; Win64; x64) AppleWebKit/537.36 (KHTML, like Gecko) Chrome/98.0.4758.102 Safari/537.36",1707,960,1707,849,main,1846905,12,7,4,EM,Moderate,Easier than Reference,F,j,safeDeck,riskyDeck,-28,0,-14,right,1,0,4,present,riskyDeck,2222,933
12ca06vw3bvp,13608,01/03/2022@11:57:23,"Mozilla/5.0 (Windows NT 10.0; Win64; x64) AppleWebKit/537.36 (KHTML, like Gecko) Chrome/98.0.4758.102 Safari/537.36",1707,960,1707,849,main,1846905,13,7,4,HE,Extreme,Harder than Reference,F,j,safeDeck,riskyDeck,0,28,14,right,1,0,60,present,riskyDeck,2882,1583
12ca06vw3bvp,13608,01/03/2022@11:57:23,"Mozilla/5.0 (Windows NT 10.0; Win64; x64) AppleWebKit/537.36 (KHTML, like Gecko) Chrome/98.0.4758.102 Safari/537.36",1707,960,1707,849,main,1846905,14,7,5,EE,Extreme,Easier than Reference,D,j,riskyDeck,safeDeck,-14,0,-7,left,1,1,18,absent,riskyDeck,2353,8865
12ca06vw3bvp,13608,01/03/2022@11:57:23,"Mozilla/5.0 (Windows NT 10.0; Win64; x64) AppleWebKit/537.36 (KHTML, like Gecko) Chrome/98.0.4758.102 Safari/537.36",1707,960,1707,849,main,1846905,15,7,5,EM,Moderate,Easier than Reference,D,k,safeDeck,riskyDeck,-28,0,-14,left,0,0,18,absent,safeDeck,3630,3690
12ca06vw3bvp,13608,01/03/2022@11:57:23,"Mozilla/5.0 (Windows NT 10.0; Win64; x64) AppleWebKit/537.36 (KHTML, like Gecko) Chrome/98.0.4758.102 Safari/537.36",1707,960,1707,849,main,1846905,16,7,5,HM,Moderate,Harder than Reference,D,j,safeDeck,riskyDeck,14,0,7,left,0,0,39,present,safeDeck,1218,1824
12ca06vw3bvp,13608,01/03/2022@11:57:23,"Mozilla/5.0 (Windows NT 10.0; Win64; x64) AppleWebKit/537.36 (KHTML, like Gecko) Chrome/98.0.4758.102 Safari/537.36",1707,960,1707,849,main,1846905,17,8,5,EM,Moderate,Easier than Reference,D,j,riskyDeck,safeDeck,-28,0,-14,left,1,0,32,present,riskyDeck,1382,1292
12ca06vw3bvp,13608,01/03/2022@11:57:23,"Mozilla/5.0 (Windows NT 10.0; Win64; x64) AppleWebKit/537.36 (KHTML, like Gecko) Chrome/98.0.4758.102 Safari/537.36",1707,960,1707,849,main,1846905,18,8,5,EE,Extreme,Easier than Reference,D,j,riskyDeck,safeDeck,0,-14,-7,left,1,0,18,present,riskyDeck,868,900
12ca06vw3bvp,13608,01/03/2022@11:57:23,"Mozilla/5.0 (Windows NT 10.0; Win64; x64) AppleWebKit/537.36 (KHTML, like Gecko) Chrome/98.0.4758.102 Safari/537.36",1707,960,1707,849,main,1846905,19,8,5,HE,Extreme,Harder than Reference,D,k,safeDeck,riskyDeck,28,0,14,left,0,0,46,absent,safeDeck,1537,10199
12ca06vw3bvp,13608,01/03/2022@11:57:23,"Mozilla/5.0 (Windows NT 10.0; Win64; x64) AppleWebKit/537.36 (KHTML, like Gecko) Chrome/98.0.4758.102 Safari/537.36",1707,960,1707,849,main,1846905,20,8,5,HM,Moderate,Harder than Reference,F,j,riskyDeck,safeDeck,14,0,7,right,0,0,39,present,safeDeck,1253,1868
12ca06vw3bvp,13608,01/03/2022@11:57:23,"Mozilla/5.0 (Windows NT 10.0; Win64; x64) AppleWebKit/537.36 (KHTML, like Gecko) Chrome/98.0.4758.102 Safari/537.36",1707,960,1707,849,main,1846905,21,8,5,EE,Extreme,Easier than Reference,D,j,riskyDeck,safeDeck,0,-14,-7,left,1,0,18,present,riskyDeck,1802,804
