"subject","choice_rt_m","choice_rt_sd","sona_id","curTime","userAgent","screenWidth","screenHeight","windowWidth","windowHeight","phase","phase_run_time","trial","exp_runtime_mins","phase_runtime_mins","condition","magnitude","direction","choice_response_key","search_response_key","left_deck_id","right_deck_id","risky_deck_outcome_top","risky_deck_outcome_bottom","safe_deck_outcome","selected_deck_location","selectedRiskyDeck","error","n_stimuli","present_or_absent","chosenDeckId","choice_rt","search_rt","selected_deck_location_num"
"07iuiut1t9rh",633.815450643777,301.496719433585,13424,"06/03/2022@00:34:21","Mozilla/5.0 (Macintosh; Intel Mac OS X 10_15_7) AppleWebKit/605.1.15 (KHTML, like Gecko) Version/15.3 Safari/605.1.15",1440,900,1440,820,"main",1620374,7,5,3,"EM","Moderate","Easier than Reference","F","j","safeDeck","riskyDeck",0,-28,-14,"right",1,0,4,"present","riskyDeck",1001,846,1
"07iuiut1t9rh",633.815450643777,301.496719433585,13424,"06/03/2022@00:34:21","Mozilla/5.0 (Macintosh; Intel Mac OS X 10_15_7) AppleWebKit/605.1.15 (KHTML, like Gecko) Version/15.3 Safari/605.1.15",1440,900,1440,820,"main",1620374,9,5,3,"HM","Moderate","Harder than Reference","F","k","riskyDeck","safeDeck",0,14,7,"right",0,0,39,"absent","safeDeck",969,6181,1
"07iuiut1t9rh",633.815450643777,301.496719433585,13424,"06/03/2022@00:34:21","Mozilla/5.0 (Macintosh; Intel Mac OS X 10_15_7) AppleWebKit/605.1.15 (KHTML, like Gecko) Version/15.3 Safari/605.1.15",1440,900,1440,820,"main",1620374,10,5,3,"EM","Moderate","Easier than Reference","F","j","safeDeck","riskyDeck",-28,0,-14,"right",1,0,4,"present","riskyDeck",891,829,1
"07iuiut1t9rh",633.815450643777,301.496719433585,13424,"06/03/2022@00:34:21","Mozilla/5.0 (Macintosh; Intel Mac OS X 10_15_7) AppleWebKit/605.1.15 (KHTML, like Gecko) Version/15.3 Safari/605.1.15",1440,900,1440,820,"main",1620374,11,5,3,"EE","Extreme","Easier than Reference","D","j","riskyDeck","safeDeck",-14,0,-7,"left",1,0,18,"present","riskyDeck",808,1358,-1
"07iuiut1t9rh",633.815450643777,301.496719433585,13424,"06/03/2022@00:34:21","Mozilla/5.0 (Macintosh; Intel Mac OS X 10_15_7) AppleWebKit/605.1.15 (KHTML, like Gecko) Version/15.3 Safari/605.1.15",1440,900,1440,820,"main",1620374,12,5,4,"HE","Extreme","Harder than Reference","D","j","riskyDeck","safeDeck",28,0,14,"left",1,0,32,"present","riskyDeck",877,1395,-1
"07iuiut1t9rh",633.815450643777,301.496719433585,13424,"06/03/2022@00:34:21","Mozilla/5.0 (Macintosh; Intel Mac OS X 10_15_7) AppleWebKit/605.1.15 (KHTML, like Gecko) Version/15.3 Safari/605.1.15",1440,900,1440,820,"main",1620374,13,5,4,"EM","Moderate","Easier than Reference","F","k","safeDeck","riskyDeck",-28,0,-14,"right",1,0,4,"absent","riskyDeck",701,1336,1
"07iuiut1t9rh",633.815450643777,301.496719433585,13424,"06/03/2022@00:34:21","Mozilla/5.0 (Macintosh; Intel Mac OS X 10_15_7) AppleWebKit/605.1.15 (KHTML, like Gecko) Version/15.3 Safari/605.1.15",1440,900,1440,820,"main",1620374,14,5,4,"EE","Extreme","Easier than Reference","F","j","safeDeck","riskyDeck",-14,0,-7,"right",1,0,32,"present","riskyDeck",605,1132,1
"07iuiut1t9rh",633.815450643777,301.496719433585,13424,"06/03/2022@00:34:21","Mozilla/5.0 (Macintosh; Intel Mac OS X 10_15_7) AppleWebKit/605.1.15 (KHTML, like Gecko) Version/15.3 Safari/605.1.15",1440,900,1440,820,"main",1620374,15,6,4,"HE","Extreme","Harder than Reference","D","k","riskyDeck","safeDeck",28,0,14,"left",1,0,60,"absent","riskyDeck",1146,4724,-1
"07iuiut1t9rh",633.815450643777,301.496719433585,13424,"06/03/2022@00:34:21","Mozilla/5.0 (Macintosh; Intel Mac OS X 10_15_7) AppleWebKit/605.1.15 (KHTML, like Gecko) Version/15.3 Safari/605.1.15",1440,900,1440,820,"main",1620374,16,6,4,"HM","Moderate","Harder than Reference","F","k","safeDeck","riskyDeck",14,0,7,"right",1,0,46,"absent","riskyDeck",793,7789,1
"07iuiut1t9rh",633.815450643777,301.496719433585,13424,"06/03/2022@00:34:21","Mozilla/5.0 (Macintosh; Intel Mac OS X 10_15_7) AppleWebKit/605.1.15 (KHTML, like Gecko) Version/15.3 Safari/605.1.15",1440,900,1440,820,"main",1620374,17,6,4,"HM","Moderate","Harder than Reference","D","j","riskyDeck","safeDeck",0,14,7,"left",1,0,32,"present","riskyDeck",638,3332,-1
"07iuiut1t9rh",633.815450643777,301.496719433585,13424,"06/03/2022@00:34:21","Mozilla/5.0 (Macintosh; Intel Mac OS X 10_15_7) AppleWebKit/605.1.15 (KHTML, like Gecko) Version/15.3 Safari/605.1.15",1440,900,1440,820,"main",1620374,18,6,4,"EE","Extreme","Easier than Reference","D","k","riskyDeck","safeDeck",-14,0,-7,"left",1,0,32,"absent","riskyDeck",538,4650,-1
"07iuiut1t9rh",633.815450643777,301.496719433585,13424,"06/03/2022@00:34:21","Mozilla/5.0 (Macintosh; Intel Mac OS X 10_15_7) AppleWebKit/605.1.15 (KHTML, like Gecko) Version/15.3 Safari/605.1.15",1440,900,1440,820,"main",1620374,19,6,4,"HE","Extreme","Harder than Reference","D","j","riskyDeck","safeDeck",0,28,14,"left",1,0,60,"present","riskyDeck",751,7460,-1
"07iuiut1t9rh",633.815450643777,301.496719433585,13424,"06/03/2022@00:34:21","Mozilla/5.0 (Macintosh; Intel Mac OS X 10_15_7) AppleWebKit/605.1.15 (KHTML, like Gecko) Version/15.3 Safari/605.1.15",1440,900,1440,820,"main",1620374,20,6,4,"EM","Moderate","Easier than Reference","F","j","safeDeck","riskyDeck",0,-28,-14,"right",1,0,4,"present","riskyDeck",925,831,1
"07iuiut1t9rh",633.815450643777,301.496719433585,13424,"06/03/2022@00:34:21","Mozilla/5.0 (Macintosh; Intel Mac OS X 10_15_7) AppleWebKit/605.1.15 (KHTML, like Gecko) Version/15.3 Safari/605.1.15",1440,900,1440,820,"main",1620374,21,6,4,"HM","Moderate","Harder than Reference","F","k","safeDeck","riskyDeck",14,0,7,"right",1,0,46,"absent","riskyDeck",765,7405,1
"07iuiut1t9rh",633.815450643777,301.496719433585,13424,"06/03/2022@00:34:21","Mozilla/5.0 (Macintosh; Intel Mac OS X 10_15_7) AppleWebKit/605.1.15 (KHTML, like Gecko) Version/15.3 Safari/605.1.15",1440,900,1440,820,"main",1620374,22,6,5,"HE","Extreme","Harder than Reference","F","k","riskyDeck","safeDeck",0,28,14,"right",0,0,46,"absent","safeDeck",814,6906,1
"07iuiut1t9rh",633.815450643777,301.496719433585,13424,"06/03/2022@00:34:21","Mozilla/5.0 (Macintosh; Intel Mac OS X 10_15_7) AppleWebKit/605.1.15 (KHTML, like Gecko) Version/15.3 Safari/605.1.15",1440,900,1440,820,"main",1620374,23,7,5,"EE","Extreme","Easier than Reference","D","j","riskyDeck","safeDeck",0,-14,-7,"left",1,0,18,"present","riskyDeck",637,1135,-1
"07iuiut1t9rh",633.815450643777,301.496719433585,13424,"06/03/2022@00:34:21","Mozilla/5.0 (Macintosh; Intel Mac OS X 10_15_7) AppleWebKit/605.1.15 (KHTML, like Gecko) Version/15.3 Safari/605.1.15",1440,900,1440,820,"main",1620374,24,7,5,"EM","Moderate","Easier than Reference","D","j","riskyDeck","safeDeck",0,-28,-14,"left",1,0,4,"present","riskyDeck",504,671,-1
"07iuiut1t9rh",633.815450643777,301.496719433585,13424,"06/03/2022@00:34:21","Mozilla/5.0 (Macintosh; Intel Mac OS X 10_15_7) AppleWebKit/605.1.15 (KHTML, like Gecko) Version/15.3 Safari/605.1.15",1440,900,1440,820,"main",1620374,25,7,5,"HM","Moderate","Harder than Reference","F","j","riskyDeck","safeDeck",0,14,7,"right",0,0,39,"present","safeDeck",661,1837,1
"07iuiut1t9rh",633.815450643777,301.496719433585,13424,"06/03/2022@00:34:21","Mozilla/5.0 (Macintosh; Intel Mac OS X 10_15_7) AppleWebKit/605.1.15 (KHTML, like Gecko) Version/15.3 Safari/605.1.15",1440,900,1440,820,"main",1620374,26,7,5,"HE","Extreme","Harder than Reference","F","k","safeDeck","riskyDeck",0,28,14,"right",1,1,60,"present","riskyDeck",672,8257,1
"07iuiut1t9rh",633.815450643777,301.496719433585,13424,"06/03/2022@00:34:21","Mozilla/5.0 (Macintosh; Intel Mac OS X 10_15_7) AppleWebKit/605.1.15 (KHTML, like Gecko) Version/15.3 Safari/605.1.15",1440,900,1440,820,"main",1620374,27,7,5,"EE","Extreme","Easier than Reference","D","j","riskyDeck","safeDeck",-14,0,-7,"left",1,0,18,"present","riskyDeck",740,2471,-1
"07iuiut1t9rh",633.815450643777,301.496719433585,13424,"06/03/2022@00:34:21","Mozilla/5.0 (Macintosh; Intel Mac OS X 10_15_7) AppleWebKit/605.1.15 (KHTML, like Gecko) Version/15.3 Safari/605.1.15",1440,900,1440,820,"main",1620374,28,7,5,"EM","Moderate","Easier than Reference","F","k","safeDeck","riskyDeck",-28,0,-14,"right",1,0,4,"absent","riskyDeck",859,1049,1
"07iuiut1t9rh",633.815450643777,301.496719433585,13424,"06/03/2022@00:34:21","Mozilla/5.0 (Macintosh; Intel Mac OS X 10_15_7) AppleWebKit/605.1.15 (KHTML, like Gecko) Version/15.3 Safari/605.1.15",1440,900,1440,820,"main",1620374,29,7,5,"HM","Moderate","Harder than Reference","D","j","riskyDeck","safeDeck",14,0,7,"left",1,0,32,"present","riskyDeck",952,2696,-1
"07iuiut1t9rh",633.815450643777,301.496719433585,13424,"06/03/2022@00:34:21","Mozilla/5.0 (Macintosh; Intel Mac OS X 10_15_7) AppleWebKit/605.1.15 (KHTML, like Gecko) Version/15.3 Safari/605.1.15",1440,900,1440,820,"main",1620374,30,7,5,"HE","Extreme","Harder than Reference","F","j","safeDeck","riskyDeck",0,28,14,"right",1,0,60,"present","riskyDeck",726,1291,1
"07iuiut1t9rh",633.815450643777,301.496719433585,13424,"06/03/2022@00:34:21","Mozilla/5.0 (Macintosh; Intel Mac OS X 10_15_7) AppleWebKit/605.1.15 (KHTML, like Gecko) Version/15.3 Safari/605.1.15",1440,900,1440,820,"main",1620374,31,7,5,"EE","Extreme","Easier than Reference","F","j","safeDeck","riskyDeck",0,-14,-7,"right",1,0,32,"present","riskyDeck",536,2314,1
"07iuiut1t9rh",633.815450643777,301.496719433585,13424,"06/03/2022@00:34:21","Mozilla/5.0 (Macintosh; Intel Mac OS X 10_15_7) AppleWebKit/605.1.15 (KHTML, like Gecko) Version/15.3 Safari/605.1.15",1440,900,1440,820,"main",1620374,32,7,5,"EM","Moderate","Easier than Reference","F","k","safeDeck","riskyDeck",-28,0,-14,"right",1,0,4,"absent","riskyDeck",833,903,1
"07iuiut1t9rh",633.815450643777,301.496719433585,13424,"06/03/2022@00:34:21","Mozilla/5.0 (Macintosh; Intel Mac OS X 10_15_7) AppleWebKit/605.1.15 (KHTML, like Gecko) Version/15.3 Safari/605.1.15",1440,900,1440,820,"main",1620374,33,7,5,"HE","Extreme","Harder than Reference","F","j","safeDeck","riskyDeck",28,0,14,"right",1,0,32,"present","riskyDeck",726,890,1
"07iuiut1t9rh",633.815450643777,301.496719433585,13424,"06/03/2022@00:34:21","Mozilla/5.0 (Macintosh; Intel Mac OS X 10_15_7) AppleWebKit/605.1.15 (KHTML, like Gecko) Version/15.3 Safari/605.1.15",1440,900,1440,820,"main",1620374,34,7,6,"EE","Extreme","Easier than Reference","D","k","riskyDeck","safeDeck",0,-14,-7,"left",1,0,32,"absent","riskyDeck",542,2884,-1
"07iuiut1t9rh",633.815450643777,301.496719433585,13424,"06/03/2022@00:34:21","Mozilla/5.0 (Macintosh; Intel Mac OS X 10_15_7) AppleWebKit/605.1.15 (KHTML, like Gecko) Version/15.3 Safari/605.1.15",1440,900,1440,820,"main",1620374,35,7,6,"EM","Moderate","Easier than Reference","D","j","riskyDeck","safeDeck",0,-28,-14,"left",1,0,4,"present","riskyDeck",581,606,-1
"07iuiut1t9rh",633.815450643777,301.496719433585,13424,"06/03/2022@00:34:21","Mozilla/5.0 (Macintosh; Intel Mac OS X 10_15_7) AppleWebKit/605.1.15 (KHTML, like Gecko) Version/15.3 Safari/605.1.15",1440,900,1440,820,"main",1620374,36,8,6,"HM","Moderate","Harder than Reference","D","k","riskyDeck","safeDeck",14,0,7,"left",1,0,46,"absent","riskyDeck",699,5180,-1
"07iuiut1t9rh",633.815450643777,301.496719433585,13424,"06/03/2022@00:34:21","Mozilla/5.0 (Macintosh; Intel Mac OS X 10_15_7) AppleWebKit/605.1.15 (KHTML, like Gecko) Version/15.3 Safari/605.1.15",1440,900,1440,820,"main",1620374,37,8,6,"EM","Moderate","Easier than Reference","F","j","safeDeck","riskyDeck",-28,0,-14,"right",1,0,32,"present","riskyDeck",689,2501,1
"07iuiut1t9rh",633.815450643777,301.496719433585,13424,"06/03/2022@00:34:21","Mozilla/5.0 (Macintosh; Intel Mac OS X 10_15_7) AppleWebKit/605.1.15 (KHTML, like Gecko) Version/15.3 Safari/605.1.15",1440,900,1440,820,"main",1620374,38,8,6,"HE","Extreme","Harder than Reference","F","j","safeDeck","riskyDeck",0,28,14,"right",1,0,60,"present","riskyDeck",664,2989,1
"07iuiut1t9rh",633.815450643777,301.496719433585,13424,"06/03/2022@00:34:21","Mozilla/5.0 (Macintosh; Intel Mac OS X 10_15_7) AppleWebKit/605.1.15 (KHTML, like Gecko) Version/15.3 Safari/605.1.15",1440,900,1440,820,"main",1620374,39,8,6,"HM","Moderate","Harder than Reference","F","k","safeDeck","riskyDeck",0,14,7,"right",1,0,32,"absent","riskyDeck",891,4866,1
"07iuiut1t9rh",633.815450643777,301.496719433585,13424,"06/03/2022@00:34:21","Mozilla/5.0 (Macintosh; Intel Mac OS X 10_15_7) AppleWebKit/605.1.15 (KHTML, like Gecko) Version/15.3 Safari/605.1.15",1440,900,1440,820,"main",1620374,40,8,6,"EE","Extreme","Easier than Reference","D","k","riskyDeck","safeDeck",0,-14,-7,"left",1,0,32,"absent","riskyDeck",581,4534,-1
"07iuiut1t9rh",633.815450643777,301.496719433585,13424,"06/03/2022@00:34:21","Mozilla/5.0 (Macintosh; Intel Mac OS X 10_15_7) AppleWebKit/605.1.15 (KHTML, like Gecko) Version/15.3 Safari/605.1.15",1440,900,1440,820,"main",1620374,41,8,6,"HM","Moderate","Harder than Reference","D","k","riskyDeck","safeDeck",14,0,7,"left",1,1,32,"present","riskyDeck",488,1803,-1
"07iuiut1t9rh",633.815450643777,301.496719433585,13424,"06/03/2022@00:34:21","Mozilla/5.0 (Macintosh; Intel Mac OS X 10_15_7) AppleWebKit/605.1.15 (KHTML, like Gecko) Version/15.3 Safari/605.1.15",1440,900,1440,820,"main",1620374,42,8,6,"EE","Extreme","Easier than Reference","D","k","riskyDeck","safeDeck",0,-14,-7,"left",1,0,32,"absent","riskyDeck",429,3326,-1
"07iuiut1t9rh",633.815450643777,301.496719433585,13424,"06/03/2022@00:34:21","Mozilla/5.0 (Macintosh; Intel Mac OS X 10_15_7) AppleWebKit/605.1.15 (KHTML, like Gecko) Version/15.3 Safari/605.1.15",1440,900,1440,820,"main",1620374,43,8,6,"HE","Extreme","Harder than Reference","F","k","safeDeck","riskyDeck",0,28,14,"right",1,0,60,"absent","riskyDeck",584,7077,1
"07iuiut1t9rh",633.815450643777,301.496719433585,13424,"06/03/2022@00:34:21","Mozilla/5.0 (Macintosh; Intel Mac OS X 10_15_7) AppleWebKit/605.1.15 (KHTML, like Gecko) Version/15.3 Safari/605.1.15",1440,900,1440,820,"main",1620374,46,9,7,"EM","Moderate","Easier than Reference","D","j","riskyDeck","safeDeck",0,-28,-14,"left",1,0,4,"present","riskyDeck",583,890,-1
"07iuiut1t9rh",633.815450643777,301.496719433585,13424,"06/03/2022@00:34:21","Mozilla/5.0 (Macintosh; Intel Mac OS X 10_15_7) AppleWebKit/605.1.15 (KHTML, like Gecko) Version/15.3 Safari/605.1.15",1440,900,1440,820,"main",1620374,47,9,7,"HM","Moderate","Harder than Reference","D","k","riskyDeck","safeDeck",14,0,7,"left",1,1,46,"present","riskyDeck",701,2697,-1
"07iuiut1t9rh",633.815450643777,301.496719433585,13424,"06/03/2022@00:34:21","Mozilla/5.0 (Macintosh; Intel Mac OS X 10_15_7) AppleWebKit/605.1.15 (KHTML, like Gecko) Version/15.3 Safari/605.1.15",1440,900,1440,820,"main",1620374,48,9,7,"HE","Extreme","Harder than Reference","F","j","safeDeck","riskyDeck",28,0,14,"right",1,0,60,"present","riskyDeck",644,3420,1
"07iuiut1t9rh",633.815450643777,301.496719433585,13424,"06/03/2022@00:34:21","Mozilla/5.0 (Macintosh; Intel Mac OS X 10_15_7) AppleWebKit/605.1.15 (KHTML, like Gecko) Version/15.3 Safari/605.1.15",1440,900,1440,820,"main",1620374,49,9,7,"HM","Moderate","Harder than Reference","D","j","riskyDeck","safeDeck",0,14,7,"left",1,0,46,"present","riskyDeck",501,2358,-1
"07iuiut1t9rh",633.815450643777,301.496719433585,13424,"06/03/2022@00:34:21","Mozilla/5.0 (Macintosh; Intel Mac OS X 10_15_7) AppleWebKit/605.1.15 (KHTML, like Gecko) Version/15.3 Safari/605.1.15",1440,900,1440,820,"main",1620374,50,9,7,"HE","Extreme","Harder than Reference","F","j","safeDeck","riskyDeck",0,28,14,"right",1,0,32,"present","riskyDeck",617,3325,1
"07iuiut1t9rh",633.815450643777,301.496719433585,13424,"06/03/2022@00:34:21","Mozilla/5.0 (Macintosh; Intel Mac OS X 10_15_7) AppleWebKit/605.1.15 (KHTML, like Gecko) Version/15.3 Safari/605.1.15",1440,900,1440,820,"main",1620374,51,9,7,"EE","Extreme","Easier than Reference","D","k","riskyDeck","safeDeck",-14,0,-7,"left",1,0,18,"absent","riskyDeck",832,4655,-1
"07iuiut1t9rh",633.815450643777,301.496719433585,13424,"06/03/2022@00:34:21","Mozilla/5.0 (Macintosh; Intel Mac OS X 10_15_7) AppleWebKit/605.1.15 (KHTML, like Gecko) Version/15.3 Safari/605.1.15",1440,900,1440,820,"main",1620374,52,9,7,"EM","Moderate","Easier than Reference","D","j","riskyDeck","safeDeck",-28,0,-14,"left",1,0,4,"present","riskyDeck",447,773,-1
"07iuiut1t9rh",633.815450643777,301.496719433585,13424,"06/03/2022@00:34:21","Mozilla/5.0 (Macintosh; Intel Mac OS X 10_15_7) AppleWebKit/605.1.15 (KHTML, like Gecko) Version/15.3 Safari/605.1.15",1440,900,1440,820,"main",1620374,53,9,7,"EE","Extreme","Easier than Reference","F","k","safeDeck","riskyDeck",-14,0,-7,"right",1,0,18,"absent","riskyDeck",541,2433,1
"07iuiut1t9rh",633.815450643777,301.496719433585,13424,"06/03/2022@00:34:21","Mozilla/5.0 (Macintosh; Intel Mac OS X 10_15_7) AppleWebKit/605.1.15 (KHTML, like Gecko) Version/15.3 Safari/605.1.15",1440,900,1440,820,"main",1620374,54,9,7,"HM","Moderate","Harder than Reference","F","k","safeDeck","riskyDeck",14,0,7,"right",1,0,32,"absent","riskyDeck",582,2447,1
"07iuiut1t9rh",633.815450643777,301.496719433585,13424,"06/03/2022@00:34:21","Mozilla/5.0 (Macintosh; Intel Mac OS X 10_15_7) AppleWebKit/605.1.15 (KHTML, like Gecko) Version/15.3 Safari/605.1.15",1440,900,1440,820,"main",1620374,55,9,8,"HE","Extreme","Harder than Reference","F","k","safeDeck","riskyDeck",0,28,14,"right",1,0,60,"absent","riskyDeck",564,6826,1
"07iuiut1t9rh",633.815450643777,301.496719433585,13424,"06/03/2022@00:34:21","Mozilla/5.0 (Macintosh; Intel Mac OS X 10_15_7) AppleWebKit/605.1.15 (KHTML, like Gecko) Version/15.3 Safari/605.1.15",1440,900,1440,820,"main",1620374,56,9,8,"EM","Moderate","Easier than Reference","D","j","riskyDeck","safeDeck",0,-28,-14,"left",1,0,32,"present","riskyDeck",677,2032,-1
"07iuiut1t9rh",633.815450643777,301.496719433585,13424,"06/03/2022@00:34:21","Mozilla/5.0 (Macintosh; Intel Mac OS X 10_15_7) AppleWebKit/605.1.15 (KHTML, like Gecko) Version/15.3 Safari/605.1.15",1440,900,1440,820,"main",1620374,57,10,8,"EM","Moderate","Easier than Reference","D","k","riskyDeck","safeDeck",0,-28,-14,"left",1,0,32,"absent","riskyDeck",462,2253,-1
"07iuiut1t9rh",633.815450643777,301.496719433585,13424,"06/03/2022@00:34:21","Mozilla/5.0 (Macintosh; Intel Mac OS X 10_15_7) AppleWebKit/605.1.15 (KHTML, like Gecko) Version/15.3 Safari/605.1.15",1440,900,1440,820,"main",1620374,58,10,8,"HE","Extreme","Harder than Reference","D","j","riskyDeck","safeDeck",0,28,14,"left",1,0,32,"present","riskyDeck",666,865,-1
"07iuiut1t9rh",633.815450643777,301.496719433585,13424,"06/03/2022@00:34:21","Mozilla/5.0 (Macintosh; Intel Mac OS X 10_15_7) AppleWebKit/605.1.15 (KHTML, like Gecko) Version/15.3 Safari/605.1.15",1440,900,1440,820,"main",1620374,59,10,8,"EE","Extreme","Easier than Reference","D","k","riskyDeck","safeDeck",0,-14,-7,"left",1,0,32,"absent","riskyDeck",537,2679,-1
"07iuiut1t9rh",633.815450643777,301.496719433585,13424,"06/03/2022@00:34:21","Mozilla/5.0 (Macintosh; Intel Mac OS X 10_15_7) AppleWebKit/605.1.15 (KHTML, like Gecko) Version/15.3 Safari/605.1.15",1440,900,1440,820,"main",1620374,60,10,8,"HM","Moderate","Harder than Reference","D","k","riskyDeck","safeDeck",14,0,7,"left",1,0,32,"absent","riskyDeck",696,3490,-1
"07iuiut1t9rh",633.815450643777,301.496719433585,13424,"06/03/2022@00:34:21","Mozilla/5.0 (Macintosh; Intel Mac OS X 10_15_7) AppleWebKit/605.1.15 (KHTML, like Gecko) Version/15.3 Safari/605.1.15",1440,900,1440,820,"main",1620374,61,10,8,"HM","Moderate","Harder than Reference","D","j","riskyDeck","safeDeck",0,14,7,"left",1,0,32,"present","riskyDeck",632,1027,-1
"07iuiut1t9rh",633.815450643777,301.496719433585,13424,"06/03/2022@00:34:21","Mozilla/5.0 (Macintosh; Intel Mac OS X 10_15_7) AppleWebKit/605.1.15 (KHTML, like Gecko) Version/15.3 Safari/605.1.15",1440,900,1440,820,"main",1620374,62,10,8,"HE","Extreme","Harder than Reference","D","j","riskyDeck","safeDeck",28,0,14,"left",1,0,60,"present","riskyDeck",538,1046,-1
"07iuiut1t9rh",633.815450643777,301.496719433585,13424,"06/03/2022@00:34:21","Mozilla/5.0 (Macintosh; Intel Mac OS X 10_15_7) AppleWebKit/605.1.15 (KHTML, like Gecko) Version/15.3 Safari/605.1.15",1440,900,1440,820,"main",1620374,63,10,8,"EM","Moderate","Easier than Reference","D","j","riskyDeck","safeDeck",-28,0,-14,"left",1,0,32,"present","riskyDeck",478,943,-1
"07iuiut1t9rh",633.815450643777,301.496719433585,13424,"06/03/2022@00:34:21","Mozilla/5.0 (Macintosh; Intel Mac OS X 10_15_7) AppleWebKit/605.1.15 (KHTML, like Gecko) Version/15.3 Safari/605.1.15",1440,900,1440,820,"main",1620374,64,10,8,"EE","Extreme","Easier than Reference","D","k","riskyDeck","safeDeck",-14,0,-7,"left",1,1,32,"present","riskyDeck",465,2975,-1
"07iuiut1t9rh",633.815450643777,301.496719433585,13424,"06/03/2022@00:34:21","Mozilla/5.0 (Macintosh; Intel Mac OS X 10_15_7) AppleWebKit/605.1.15 (KHTML, like Gecko) Version/15.3 Safari/605.1.15",1440,900,1440,820,"main",1620374,65,10,8,"EE","Extreme","Easier than Reference","F","j","safeDeck","riskyDeck",-14,0,-7,"right",1,0,32,"present","riskyDeck",677,2861,1
"07iuiut1t9rh",633.815450643777,301.496719433585,13424,"06/03/2022@00:34:21","Mozilla/5.0 (Macintosh; Intel Mac OS X 10_15_7) AppleWebKit/605.1.15 (KHTML, like Gecko) Version/15.3 Safari/605.1.15",1440,900,1440,820,"main",1620374,66,10,8,"HM","Moderate","Harder than Reference","D","j","riskyDeck","safeDeck",0,14,7,"left",1,0,46,"present","riskyDeck",461,1697,-1
"07iuiut1t9rh",633.815450643777,301.496719433585,13424,"06/03/2022@00:34:21","Mozilla/5.0 (Macintosh; Intel Mac OS X 10_15_7) AppleWebKit/605.1.15 (KHTML, like Gecko) Version/15.3 Safari/605.1.15",1440,900,1440,820,"main",1620374,67,10,8,"EM","Moderate","Easier than Reference","D","k","riskyDeck","safeDeck",0,-28,-14,"left",1,0,32,"absent","riskyDeck",403,4358,-1
"07iuiut1t9rh",633.815450643777,301.496719433585,13424,"06/03/2022@00:34:21","Mozilla/5.0 (Macintosh; Intel Mac OS X 10_15_7) AppleWebKit/605.1.15 (KHTML, like Gecko) Version/15.3 Safari/605.1.15",1440,900,1440,820,"main",1620374,68,10,9,"HE","Extreme","Harder than Reference","F","j","safeDeck","riskyDeck",28,0,14,"right",1,0,60,"present","riskyDeck",696,2022,1
"07iuiut1t9rh",633.815450643777,301.496719433585,13424,"06/03/2022@00:34:21","Mozilla/5.0 (Macintosh; Intel Mac OS X 10_15_7) AppleWebKit/605.1.15 (KHTML, like Gecko) Version/15.3 Safari/605.1.15",1440,900,1440,820,"main",1620374,69,10,9,"EM","Moderate","Easier than Reference","D","k","riskyDeck","safeDeck",0,-28,-14,"left",1,0,4,"absent","riskyDeck",720,786,-1
"07iuiut1t9rh",633.815450643777,301.496719433585,13424,"06/03/2022@00:34:21","Mozilla/5.0 (Macintosh; Intel Mac OS X 10_15_7) AppleWebKit/605.1.15 (KHTML, like Gecko) Version/15.3 Safari/605.1.15",1440,900,1440,820,"main",1620374,70,10,9,"HM","Moderate","Harder than Reference","D","k","riskyDeck","safeDeck",14,0,7,"left",1,0,32,"absent","riskyDeck",502,2323,-1
"07iuiut1t9rh",633.815450643777,301.496719433585,13424,"06/03/2022@00:34:21","Mozilla/5.0 (Macintosh; Intel Mac OS X 10_15_7) AppleWebKit/605.1.15 (KHTML, like Gecko) Version/15.3 Safari/605.1.15",1440,900,1440,820,"main",1620374,71,11,9,"HE","Extreme","Harder than Reference","D","j","riskyDeck","safeDeck",0,28,14,"left",1,0,60,"present","riskyDeck",627,1962,-1
"07iuiut1t9rh",633.815450643777,301.496719433585,13424,"06/03/2022@00:34:21","Mozilla/5.0 (Macintosh; Intel Mac OS X 10_15_7) AppleWebKit/605.1.15 (KHTML, like Gecko) Version/15.3 Safari/605.1.15",1440,900,1440,820,"main",1620374,72,11,9,"EE","Extreme","Easier than Reference","F","j","safeDeck","riskyDeck",0,-14,-7,"right",1,0,32,"present","riskyDeck",710,1146,1
"07iuiut1t9rh",633.815450643777,301.496719433585,13424,"06/03/2022@00:34:21","Mozilla/5.0 (Macintosh; Intel Mac OS X 10_15_7) AppleWebKit/605.1.15 (KHTML, like Gecko) Version/15.3 Safari/605.1.15",1440,900,1440,820,"main",1620374,73,11,9,"HE","Extreme","Harder than Reference","F","k","safeDeck","riskyDeck",0,28,14,"right",1,0,60,"absent","riskyDeck",814,6288,1
"07iuiut1t9rh",633.815450643777,301.496719433585,13424,"06/03/2022@00:34:21","Mozilla/5.0 (Macintosh; Intel Mac OS X 10_15_7) AppleWebKit/605.1.15 (KHTML, like Gecko) Version/15.3 Safari/605.1.15",1440,900,1440,820,"main",1620374,74,11,9,"EM","Moderate","Easier than Reference","F","k","safeDeck","riskyDeck",-28,0,-14,"right",1,0,4,"absent","riskyDeck",546,872,1
"07iuiut1t9rh",633.815450643777,301.496719433585,13424,"06/03/2022@00:34:21","Mozilla/5.0 (Macintosh; Intel Mac OS X 10_15_7) AppleWebKit/605.1.15 (KHTML, like Gecko) Version/15.3 Safari/605.1.15",1440,900,1440,820,"main",1620374,75,11,9,"HM","Moderate","Harder than Reference","F","j","safeDeck","riskyDeck",0,14,7,"right",1,0,32,"present","riskyDeck",569,1773,1
"07iuiut1t9rh",633.815450643777,301.496719433585,13424,"06/03/2022@00:34:21","Mozilla/5.0 (Macintosh; Intel Mac OS X 10_15_7) AppleWebKit/605.1.15 (KHTML, like Gecko) Version/15.3 Safari/605.1.15",1440,900,1440,820,"main",1620374,76,11,9,"EE","Extreme","Easier than Reference","D","k","riskyDeck","safeDeck",0,-14,-7,"left",1,0,32,"absent","riskyDeck",683,3154,-1
"07iuiut1t9rh",633.815450643777,301.496719433585,13424,"06/03/2022@00:34:21","Mozilla/5.0 (Macintosh; Intel Mac OS X 10_15_7) AppleWebKit/605.1.15 (KHTML, like Gecko) Version/15.3 Safari/605.1.15",1440,900,1440,820,"main",1620374,77,11,9,"EE","Extreme","Easier than Reference","F","k","safeDeck","riskyDeck",0,-14,-7,"right",1,0,32,"absent","riskyDeck",537,2030,1
"07iuiut1t9rh",633.815450643777,301.496719433585,13424,"06/03/2022@00:34:21","Mozilla/5.0 (Macintosh; Intel Mac OS X 10_15_7) AppleWebKit/605.1.15 (KHTML, like Gecko) Version/15.3 Safari/605.1.15",1440,900,1440,820,"main",1620374,78,11,9,"EM","Moderate","Easier than Reference","F","j","safeDeck","riskyDeck",-28,0,-14,"right",1,0,32,"present","riskyDeck",501,1530,1
"07iuiut1t9rh",633.815450643777,301.496719433585,13424,"06/03/2022@00:34:21","Mozilla/5.0 (Macintosh; Intel Mac OS X 10_15_7) AppleWebKit/605.1.15 (KHTML, like Gecko) Version/15.3 Safari/605.1.15",1440,900,1440,820,"main",1620374,79,11,9,"HM","Moderate","Harder than Reference","F","k","safeDeck","riskyDeck",14,0,7,"right",1,0,32,"absent","riskyDeck",638,2717,1
"07iuiut1t9rh",633.815450643777,301.496719433585,13424,"06/03/2022@00:34:21","Mozilla/5.0 (Macintosh; Intel Mac OS X 10_15_7) AppleWebKit/605.1.15 (KHTML, like Gecko) Version/15.3 Safari/605.1.15",1440,900,1440,820,"main",1620374,80,11,9,"HE","Extreme","Harder than Reference","D","k","riskyDeck","safeDeck",28,0,14,"left",1,0,60,"absent","riskyDeck",589,6920,-1
"07iuiut1t9rh",633.815450643777,301.496719433585,13424,"06/03/2022@00:34:21","Mozilla/5.0 (Macintosh; Intel Mac OS X 10_15_7) AppleWebKit/605.1.15 (KHTML, like Gecko) Version/15.3 Safari/605.1.15",1440,900,1440,820,"main",1620374,81,11,10,"EE","Extreme","Easier than Reference","D","k","riskyDeck","safeDeck",-14,0,-7,"left",1,0,32,"absent","riskyDeck",511,2057,-1
"07iuiut1t9rh",633.815450643777,301.496719433585,13424,"06/03/2022@00:34:21","Mozilla/5.0 (Macintosh; Intel Mac OS X 10_15_7) AppleWebKit/605.1.15 (KHTML, like Gecko) Version/15.3 Safari/605.1.15",1440,900,1440,820,"main",1620374,82,11,10,"HM","Moderate","Harder than Reference","F","k","safeDeck","riskyDeck",0,14,7,"right",1,1,46,"present","riskyDeck",575,3771,1
"07iuiut1t9rh",633.815450643777,301.496719433585,13424,"06/03/2022@00:34:21","Mozilla/5.0 (Macintosh; Intel Mac OS X 10_15_7) AppleWebKit/605.1.15 (KHTML, like Gecko) Version/15.3 Safari/605.1.15",1440,900,1440,820,"main",1620374,83,12,10,"EM","Moderate","Easier than Reference","F","j","safeDeck","riskyDeck",0,-28,-14,"right",1,0,4,"present","riskyDeck",329,891,1
"07iuiut1t9rh",633.815450643777,301.496719433585,13424,"06/03/2022@00:34:21","Mozilla/5.0 (Macintosh; Intel Mac OS X 10_15_7) AppleWebKit/605.1.15 (KHTML, like Gecko) Version/15.3 Safari/605.1.15",1440,900,1440,820,"main",1620374,84,12,10,"HE","Extreme","Harder than Reference","F","k","safeDeck","riskyDeck",28,0,14,"right",1,0,60,"absent","riskyDeck",569,5159,1
"07iuiut1t9rh",633.815450643777,301.496719433585,13424,"06/03/2022@00:34:21","Mozilla/5.0 (Macintosh; Intel Mac OS X 10_15_7) AppleWebKit/605.1.15 (KHTML, like Gecko) Version/15.3 Safari/605.1.15",1440,900,1440,820,"main",1620374,85,12,10,"HM","Moderate","Harder than Reference","F","j","safeDeck","riskyDeck",14,0,7,"right",1,0,32,"present","riskyDeck",480,2069,1
"07iuiut1t9rh",633.815450643777,301.496719433585,13424,"06/03/2022@00:34:21","Mozilla/5.0 (Macintosh; Intel Mac OS X 10_15_7) AppleWebKit/605.1.15 (KHTML, like Gecko) Version/15.3 Safari/605.1.15",1440,900,1440,820,"main",1620374,86,12,10,"EM","Moderate","Easier than Reference","F","j","safeDeck","riskyDeck",-28,0,-14,"right",1,0,4,"present","riskyDeck",550,704,1
"07iuiut1t9rh",633.815450643777,301.496719433585,13424,"06/03/2022@00:34:21","Mozilla/5.0 (Macintosh; Intel Mac OS X 10_15_7) AppleWebKit/605.1.15 (KHTML, like Gecko) Version/15.3 Safari/605.1.15",1440,900,1440,820,"main",1620374,87,12,10,"EE","Extreme","Easier than Reference","D","k","riskyDeck","safeDeck",-14,0,-7,"left",1,0,18,"absent","riskyDeck",647,1331,-1
"07iuiut1t9rh",633.815450643777,301.496719433585,13424,"06/03/2022@00:34:21","Mozilla/5.0 (Macintosh; Intel Mac OS X 10_15_7) AppleWebKit/605.1.15 (KHTML, like Gecko) Version/15.3 Safari/605.1.15",1440,900,1440,820,"main",1620374,88,12,10,"HE","Extreme","Harder than Reference","D","j","safeDeck","riskyDeck",0,28,14,"left",0,0,46,"present","safeDeck",815,1570,-1
"07iuiut1t9rh",633.815450643777,301.496719433585,13424,"06/03/2022@00:34:21","Mozilla/5.0 (Macintosh; Intel Mac OS X 10_15_7) AppleWebKit/605.1.15 (KHTML, like Gecko) Version/15.3 Safari/605.1.15",1440,900,1440,820,"main",1620374,89,13,11,"HM","Moderate","Harder than Reference","F","j","safeDeck","riskyDeck",14,0,7,"right",1,0,46,"present","riskyDeck",743,937,1
"07iuiut1t9rh",633.815450643777,301.496719433585,13424,"06/03/2022@00:34:21","Mozilla/5.0 (Macintosh; Intel Mac OS X 10_15_7) AppleWebKit/605.1.15 (KHTML, like Gecko) Version/15.3 Safari/605.1.15",1440,900,1440,820,"main",1620374,90,13,11,"EE","Extreme","Easier than Reference","F","k","safeDeck","riskyDeck",0,-14,-7,"right",1,0,32,"absent","riskyDeck",365,2016,1
"07iuiut1t9rh",633.815450643777,301.496719433585,13424,"06/03/2022@00:34:21","Mozilla/5.0 (Macintosh; Intel Mac OS X 10_15_7) AppleWebKit/605.1.15 (KHTML, like Gecko) Version/15.3 Safari/605.1.15",1440,900,1440,820,"main",1620374,91,13,11,"HE","Extreme","Harder than Reference","F","j","safeDeck","riskyDeck",0,28,14,"right",1,0,32,"present","riskyDeck",481,792,1
"07iuiut1t9rh",633.815450643777,301.496719433585,13424,"06/03/2022@00:34:21","Mozilla/5.0 (Macintosh; Intel Mac OS X 10_15_7) AppleWebKit/605.1.15 (KHTML, like Gecko) Version/15.3 Safari/605.1.15",1440,900,1440,820,"main",1620374,92,13,11,"EM","Moderate","Easier than Reference","F","j","safeDeck","riskyDeck",-28,0,-14,"right",1,0,32,"present","riskyDeck",438,869,1
"07iuiut1t9rh",633.815450643777,301.496719433585,13424,"06/03/2022@00:34:21","Mozilla/5.0 (Macintosh; Intel Mac OS X 10_15_7) AppleWebKit/605.1.15 (KHTML, like Gecko) Version/15.3 Safari/605.1.15",1440,900,1440,820,"main",1620374,93,13,11,"EM","Moderate","Easier than Reference","F","j","safeDeck","riskyDeck",0,-28,-14,"right",1,0,4,"present","riskyDeck",416,632,1
"07iuiut1t9rh",633.815450643777,301.496719433585,13424,"06/03/2022@00:34:21","Mozilla/5.0 (Macintosh; Intel Mac OS X 10_15_7) AppleWebKit/605.1.15 (KHTML, like Gecko) Version/15.3 Safari/605.1.15",1440,900,1440,820,"main",1620374,94,13,11,"HE","Extreme","Harder than Reference","F","j","safeDeck","riskyDeck",0,28,14,"right",1,0,60,"present","riskyDeck",897,740,1
"07iuiut1t9rh",633.815450643777,301.496719433585,13424,"06/03/2022@00:34:21","Mozilla/5.0 (Macintosh; Intel Mac OS X 10_15_7) AppleWebKit/605.1.15 (KHTML, like Gecko) Version/15.3 Safari/605.1.15",1440,900,1440,820,"main",1620374,95,13,12,"EE","Extreme","Easier than Reference","F","k","safeDeck","riskyDeck",0,-14,-7,"right",1,1,32,"present","riskyDeck",479,2264,1
"07iuiut1t9rh",633.815450643777,301.496719433585,13424,"06/03/2022@00:34:21","Mozilla/5.0 (Macintosh; Intel Mac OS X 10_15_7) AppleWebKit/605.1.15 (KHTML, like Gecko) Version/15.3 Safari/605.1.15",1440,900,1440,820,"main",1620374,96,13,12,"HM","Moderate","Harder than Reference","F","j","safeDeck","riskyDeck",0,14,7,"right",1,0,46,"present","riskyDeck",341,2698,1
"07iuiut1t9rh",633.815450643777,301.496719433585,13424,"06/03/2022@00:34:21","Mozilla/5.0 (Macintosh; Intel Mac OS X 10_15_7) AppleWebKit/605.1.15 (KHTML, like Gecko) Version/15.3 Safari/605.1.15",1440,900,1440,820,"main",1620374,97,14,12,"HE","Extreme","Harder than Reference","F","k","riskyDeck","safeDeck",0,28,14,"right",0,1,46,"present","safeDeck",332,5143,1
"07iuiut1t9rh",633.815450643777,301.496719433585,13424,"06/03/2022@00:34:21","Mozilla/5.0 (Macintosh; Intel Mac OS X 10_15_7) AppleWebKit/605.1.15 (KHTML, like Gecko) Version/15.3 Safari/605.1.15",1440,900,1440,820,"main",1620374,98,14,12,"EM","Moderate","Easier than Reference","D","j","riskyDeck","safeDeck",0,-28,-14,"left",1,0,32,"present","riskyDeck",419,1915,-1
"07iuiut1t9rh",633.815450643777,301.496719433585,13424,"06/03/2022@00:34:21","Mozilla/5.0 (Macintosh; Intel Mac OS X 10_15_7) AppleWebKit/605.1.15 (KHTML, like Gecko) Version/15.3 Safari/605.1.15",1440,900,1440,820,"main",1620374,99,14,12,"HM","Moderate","Harder than Reference","F","j","riskyDeck","safeDeck",0,14,7,"right",0,0,39,"present","safeDeck",554,1240,1
"07iuiut1t9rh",633.815450643777,301.496719433585,13424,"06/03/2022@00:34:21","Mozilla/5.0 (Macintosh; Intel Mac OS X 10_15_7) AppleWebKit/605.1.15 (KHTML, like Gecko) Version/15.3 Safari/605.1.15",1440,900,1440,820,"main",1620374,100,14,12,"EE","Extreme","Easier than Reference","F","k","safeDeck","riskyDeck",-14,0,-7,"right",1,0,18,"absent","riskyDeck",613,2299,1
"07iuiut1t9rh",633.815450643777,301.496719433585,13424,"06/03/2022@00:34:21","Mozilla/5.0 (Macintosh; Intel Mac OS X 10_15_7) AppleWebKit/605.1.15 (KHTML, like Gecko) Version/15.3 Safari/605.1.15",1440,900,1440,820,"main",1620374,101,14,12,"HM","Moderate","Harder than Reference","F","k","safeDeck","riskyDeck",14,0,7,"right",1,0,32,"absent","riskyDeck",326,3502,1
"07iuiut1t9rh",633.815450643777,301.496719433585,13424,"06/03/2022@00:34:21","Mozilla/5.0 (Macintosh; Intel Mac OS X 10_15_7) AppleWebKit/605.1.15 (KHTML, like Gecko) Version/15.3 Safari/605.1.15",1440,900,1440,820,"main",1620374,102,14,12,"EM","Moderate","Easier than Reference","D","k","riskyDeck","safeDeck",0,-28,-14,"left",1,0,4,"absent","riskyDeck",494,1068,-1
"07iuiut1t9rh",633.815450643777,301.496719433585,13424,"06/03/2022@00:34:21","Mozilla/5.0 (Macintosh; Intel Mac OS X 10_15_7) AppleWebKit/605.1.15 (KHTML, like Gecko) Version/15.3 Safari/605.1.15",1440,900,1440,820,"main",1620374,103,14,12,"HE","Extreme","Harder than Reference","F","j","safeDeck","riskyDeck",28,0,14,"right",1,0,32,"present","riskyDeck",666,887,1
"07iuiut1t9rh",633.815450643777,301.496719433585,13424,"06/03/2022@00:34:21","Mozilla/5.0 (Macintosh; Intel Mac OS X 10_15_7) AppleWebKit/605.1.15 (KHTML, like Gecko) Version/15.3 Safari/605.1.15",1440,900,1440,820,"main",1620374,104,14,12,"EE","Extreme","Easier than Reference","F","j","safeDeck","riskyDeck",0,-14,-7,"right",1,0,18,"present","riskyDeck",521,1235,1
"07iuiut1t9rh",633.815450643777,301.496719433585,13424,"06/03/2022@00:34:21","Mozilla/5.0 (Macintosh; Intel Mac OS X 10_15_7) AppleWebKit/605.1.15 (KHTML, like Gecko) Version/15.3 Safari/605.1.15",1440,900,1440,820,"main",1620374,105,14,12,"HE","Extreme","Harder than Reference","D","j","riskyDeck","safeDeck",28,0,14,"left",1,0,32,"present","riskyDeck",473,1002,-1
"07iuiut1t9rh",633.815450643777,301.496719433585,13424,"06/03/2022@00:34:21","Mozilla/5.0 (Macintosh; Intel Mac OS X 10_15_7) AppleWebKit/605.1.15 (KHTML, like Gecko) Version/15.3 Safari/605.1.15",1440,900,1440,820,"main",1620374,106,14,12,"EM","Moderate","Easier than Reference","D","k","riskyDeck","safeDeck",-28,0,-14,"left",1,0,4,"absent","riskyDeck",961,752,-1
"07iuiut1t9rh",633.815450643777,301.496719433585,13424,"06/03/2022@00:34:21","Mozilla/5.0 (Macintosh; Intel Mac OS X 10_15_7) AppleWebKit/605.1.15 (KHTML, like Gecko) Version/15.3 Safari/605.1.15",1440,900,1440,820,"main",1620374,107,14,12,"HM","Moderate","Harder than Reference","F","k","safeDeck","riskyDeck",14,0,7,"right",1,0,46,"absent","riskyDeck",585,5971,1
"07iuiut1t9rh",633.815450643777,301.496719433585,13424,"06/03/2022@00:34:21","Mozilla/5.0 (Macintosh; Intel Mac OS X 10_15_7) AppleWebKit/605.1.15 (KHTML, like Gecko) Version/15.3 Safari/605.1.15",1440,900,1440,820,"main",1620374,108,14,13,"EE","Extreme","Easier than Reference","D","j","riskyDeck","safeDeck",0,-14,-7,"left",1,0,18,"present","riskyDeck",514,1175,-1
"07iuiut1t9rh",633.815450643777,301.496719433585,13424,"06/03/2022@00:34:21","Mozilla/5.0 (Macintosh; Intel Mac OS X 10_15_7) AppleWebKit/605.1.15 (KHTML, like Gecko) Version/15.3 Safari/605.1.15",1440,900,1440,820,"main",1620374,109,14,13,"HM","Moderate","Harder than Reference","F","j","safeDeck","riskyDeck",0,14,7,"right",1,0,32,"present","riskyDeck",301,711,1
"07iuiut1t9rh",633.815450643777,301.496719433585,13424,"06/03/2022@00:34:21","Mozilla/5.0 (Macintosh; Intel Mac OS X 10_15_7) AppleWebKit/605.1.15 (KHTML, like Gecko) Version/15.3 Safari/605.1.15",1440,900,1440,820,"main",1620374,110,14,13,"EM","Moderate","Easier than Reference","F","k","safeDeck","riskyDeck",-28,0,-14,"right",1,1,32,"present","riskyDeck",598,2389,1
"07iuiut1t9rh",633.815450643777,301.496719433585,13424,"06/03/2022@00:34:21","Mozilla/5.0 (Macintosh; Intel Mac OS X 10_15_7) AppleWebKit/605.1.15 (KHTML, like Gecko) Version/15.3 Safari/605.1.15",1440,900,1440,820,"main",1620374,112,15,13,"EE","Extreme","Easier than Reference","F","j","riskyDeck","safeDeck",0,-14,-7,"right",0,0,25,"present","safeDeck",327,991,1
"07iuiut1t9rh",633.815450643777,301.496719433585,13424,"06/03/2022@00:34:21","Mozilla/5.0 (Macintosh; Intel Mac OS X 10_15_7) AppleWebKit/605.1.15 (KHTML, like Gecko) Version/15.3 Safari/605.1.15",1440,900,1440,820,"main",1620374,113,15,13,"EE","Extreme","Easier than Reference","F","k","safeDeck","riskyDeck",0,-14,-7,"right",1,0,32,"absent","riskyDeck",488,2645,1
"07iuiut1t9rh",633.815450643777,301.496719433585,13424,"06/03/2022@00:34:21","Mozilla/5.0 (Macintosh; Intel Mac OS X 10_15_7) AppleWebKit/605.1.15 (KHTML, like Gecko) Version/15.3 Safari/605.1.15",1440,900,1440,820,"main",1620374,114,15,13,"EM","Moderate","Easier than Reference","F","j","safeDeck","riskyDeck",0,-28,-14,"right",1,0,4,"present","riskyDeck",379,924,1
"07iuiut1t9rh",633.815450643777,301.496719433585,13424,"06/03/2022@00:34:21","Mozilla/5.0 (Macintosh; Intel Mac OS X 10_15_7) AppleWebKit/605.1.15 (KHTML, like Gecko) Version/15.3 Safari/605.1.15",1440,900,1440,820,"main",1620374,115,15,13,"HM","Moderate","Harder than Reference","F","k","safeDeck","riskyDeck",14,0,7,"right",1,0,46,"absent","riskyDeck",400,5879,1
"07iuiut1t9rh",633.815450643777,301.496719433585,13424,"06/03/2022@00:34:21","Mozilla/5.0 (Macintosh; Intel Mac OS X 10_15_7) AppleWebKit/605.1.15 (KHTML, like Gecko) Version/15.3 Safari/605.1.15",1440,900,1440,820,"main",1620374,116,15,13,"HE","Extreme","Harder than Reference","F","k","safeDeck","riskyDeck",0,28,14,"right",1,0,60,"absent","riskyDeck",477,3740,1
"07iuiut1t9rh",633.815450643777,301.496719433585,13424,"06/03/2022@00:34:21","Mozilla/5.0 (Macintosh; Intel Mac OS X 10_15_7) AppleWebKit/605.1.15 (KHTML, like Gecko) Version/15.3 Safari/605.1.15",1440,900,1440,820,"main",1620374,117,15,13,"HE","Extreme","Harder than Reference","F","k","safeDeck","riskyDeck",0,28,14,"right",1,0,32,"absent","riskyDeck",326,2631,1
"07iuiut1t9rh",633.815450643777,301.496719433585,13424,"06/03/2022@00:34:21","Mozilla/5.0 (Macintosh; Intel Mac OS X 10_15_7) AppleWebKit/605.1.15 (KHTML, like Gecko) Version/15.3 Safari/605.1.15",1440,900,1440,820,"main",1620374,118,15,13,"EM","Moderate","Easier than Reference","F","j","safeDeck","riskyDeck",0,-28,-14,"right",1,0,4,"present","riskyDeck",517,593,1
"07iuiut1t9rh",633.815450643777,301.496719433585,13424,"06/03/2022@00:34:21","Mozilla/5.0 (Macintosh; Intel Mac OS X 10_15_7) AppleWebKit/605.1.15 (KHTML, like Gecko) Version/15.3 Safari/605.1.15",1440,900,1440,820,"main",1620374,119,15,13,"HM","Moderate","Harder than Reference","F","j","safeDeck","riskyDeck",0,14,7,"right",1,0,32,"present","riskyDeck",360,965,1
"07iuiut1t9rh",633.815450643777,301.496719433585,13424,"06/03/2022@00:34:21","Mozilla/5.0 (Macintosh; Intel Mac OS X 10_15_7) AppleWebKit/605.1.15 (KHTML, like Gecko) Version/15.3 Safari/605.1.15",1440,900,1440,820,"main",1620374,120,15,13,"EE","Extreme","Easier than Reference","D","k","riskyDeck","safeDeck",-14,0,-7,"left",1,0,18,"absent","riskyDeck",702,1571,-1
"07iuiut1t9rh",633.815450643777,301.496719433585,13424,"06/03/2022@00:34:21","Mozilla/5.0 (Macintosh; Intel Mac OS X 10_15_7) AppleWebKit/605.1.15 (KHTML, like Gecko) Version/15.3 Safari/605.1.15",1440,900,1440,820,"main",1620374,122,15,14,"HM","Moderate","Harder than Reference","F","k","safeDeck","riskyDeck",0,14,7,"right",1,0,46,"absent","riskyDeck",593,4811,1
"07iuiut1t9rh",633.815450643777,301.496719433585,13424,"06/03/2022@00:34:21","Mozilla/5.0 (Macintosh; Intel Mac OS X 10_15_7) AppleWebKit/605.1.15 (KHTML, like Gecko) Version/15.3 Safari/605.1.15",1440,900,1440,820,"main",1620374,123,15,14,"HE","Extreme","Harder than Reference","F","j","safeDeck","riskyDeck",0,28,14,"right",1,0,32,"present","riskyDeck",503,1111,1
"07iuiut1t9rh",633.815450643777,301.496719433585,13424,"06/03/2022@00:34:21","Mozilla/5.0 (Macintosh; Intel Mac OS X 10_15_7) AppleWebKit/605.1.15 (KHTML, like Gecko) Version/15.3 Safari/605.1.15",1440,900,1440,820,"main",1620374,124,15,14,"EE","Extreme","Easier than Reference","F","j","safeDeck","riskyDeck",-14,0,-7,"right",1,0,32,"present","riskyDeck",417,1126,1
"07iuiut1t9rh",633.815450643777,301.496719433585,13424,"06/03/2022@00:34:21","Mozilla/5.0 (Macintosh; Intel Mac OS X 10_15_7) AppleWebKit/605.1.15 (KHTML, like Gecko) Version/15.3 Safari/605.1.15",1440,900,1440,820,"main",1620374,128,16,14,"HM","Moderate","Harder than Reference","F","j","safeDeck","riskyDeck",0,14,7,"right",1,0,46,"present","riskyDeck",775,3190,1
"07iuiut1t9rh",633.815450643777,301.496719433585,13424,"06/03/2022@00:34:21","Mozilla/5.0 (Macintosh; Intel Mac OS X 10_15_7) AppleWebKit/605.1.15 (KHTML, like Gecko) Version/15.3 Safari/605.1.15",1440,900,1440,820,"main",1620374,130,16,14,"EE","Extreme","Easier than Reference","F","k","riskyDeck","safeDeck",-14,0,-7,"right",0,0,25,"absent","safeDeck",349,3652,1
"07iuiut1t9rh",633.815450643777,301.496719433585,13424,"06/03/2022@00:34:21","Mozilla/5.0 (Macintosh; Intel Mac OS X 10_15_7) AppleWebKit/605.1.15 (KHTML, like Gecko) Version/15.3 Safari/605.1.15",1440,900,1440,820,"main",1620374,131,16,14,"HM","Moderate","Harder than Reference","F","k","safeDeck","riskyDeck",0,14,7,"right",1,0,46,"absent","riskyDeck",492,6948,1
"07iuiut1t9rh",633.815450643777,301.496719433585,13424,"06/03/2022@00:34:21","Mozilla/5.0 (Macintosh; Intel Mac OS X 10_15_7) AppleWebKit/605.1.15 (KHTML, like Gecko) Version/15.3 Safari/605.1.15",1440,900,1440,820,"main",1620374,132,16,14,"HE","Extreme","Harder than Reference","F","j","riskyDeck","safeDeck",0,28,14,"right",0,0,46,"present","safeDeck",380,1830,1
"07iuiut1t9rh",633.815450643777,301.496719433585,13424,"06/03/2022@00:34:21","Mozilla/5.0 (Macintosh; Intel Mac OS X 10_15_7) AppleWebKit/605.1.15 (KHTML, like Gecko) Version/15.3 Safari/605.1.15",1440,900,1440,820,"main",1620374,135,16,15,"HE","Extreme","Harder than Reference","F","k","riskyDeck","safeDeck",28,0,14,"right",0,0,46,"absent","safeDeck",347,5440,1
"07iuiut1t9rh",633.815450643777,301.496719433585,13424,"06/03/2022@00:34:21","Mozilla/5.0 (Macintosh; Intel Mac OS X 10_15_7) AppleWebKit/605.1.15 (KHTML, like Gecko) Version/15.3 Safari/605.1.15",1440,900,1440,820,"main",1620374,136,17,15,"EM","Moderate","Easier than Reference","F","j","safeDeck","riskyDeck",0,-28,-14,"right",1,0,4,"present","riskyDeck",710,952,1
"07iuiut1t9rh",633.815450643777,301.496719433585,13424,"06/03/2022@00:34:21","Mozilla/5.0 (Macintosh; Intel Mac OS X 10_15_7) AppleWebKit/605.1.15 (KHTML, like Gecko) Version/15.3 Safari/605.1.15",1440,900,1440,820,"main",1620374,137,17,15,"EM","Moderate","Easier than Reference","F","k","riskyDeck","safeDeck",-28,0,-14,"right",0,1,18,"present","safeDeck",340,919,1
"07iuiut1t9rh",633.815450643777,301.496719433585,13424,"06/03/2022@00:34:21","Mozilla/5.0 (Macintosh; Intel Mac OS X 10_15_7) AppleWebKit/605.1.15 (KHTML, like Gecko) Version/15.3 Safari/605.1.15",1440,900,1440,820,"main",1620374,139,17,15,"EE","Extreme","Easier than Reference","F","j","safeDeck","riskyDeck",-14,0,-7,"right",1,0,32,"present","riskyDeck",327,2962,1
"07iuiut1t9rh",633.815450643777,301.496719433585,13424,"06/03/2022@00:34:21","Mozilla/5.0 (Macintosh; Intel Mac OS X 10_15_7) AppleWebKit/605.1.15 (KHTML, like Gecko) Version/15.3 Safari/605.1.15",1440,900,1440,820,"main",1620374,140,17,15,"HM","Moderate","Harder than Reference","F","j","safeDeck","riskyDeck",14,0,7,"right",1,0,46,"present","riskyDeck",521,3319,1
"07iuiut1t9rh",633.815450643777,301.496719433585,13424,"06/03/2022@00:34:21","Mozilla/5.0 (Macintosh; Intel Mac OS X 10_15_7) AppleWebKit/605.1.15 (KHTML, like Gecko) Version/15.3 Safari/605.1.15",1440,900,1440,820,"main",1620374,141,17,15,"HE","Extreme","Harder than Reference","F","k","safeDeck","riskyDeck",0,28,14,"right",1,0,32,"absent","riskyDeck",487,4620,1
"07iuiut1t9rh",633.815450643777,301.496719433585,13424,"06/03/2022@00:34:21","Mozilla/5.0 (Macintosh; Intel Mac OS X 10_15_7) AppleWebKit/605.1.15 (KHTML, like Gecko) Version/15.3 Safari/605.1.15",1440,900,1440,820,"main",1620374,142,17,15,"EE","Extreme","Easier than Reference","F","k","safeDeck","riskyDeck",0,-14,-7,"right",1,0,18,"absent","riskyDeck",451,1668,1
"07iuiut1t9rh",633.815450643777,301.496719433585,13424,"06/03/2022@00:34:21","Mozilla/5.0 (Macintosh; Intel Mac OS X 10_15_7) AppleWebKit/605.1.15 (KHTML, like Gecko) Version/15.3 Safari/605.1.15",1440,900,1440,820,"main",1620374,143,17,15,"EM","Moderate","Easier than Reference","F","j","safeDeck","riskyDeck",-28,0,-14,"right",1,0,4,"present","riskyDeck",464,761,1
"07iuiut1t9rh",633.815450643777,301.496719433585,13424,"06/03/2022@00:34:21","Mozilla/5.0 (Macintosh; Intel Mac OS X 10_15_7) AppleWebKit/605.1.15 (KHTML, like Gecko) Version/15.3 Safari/605.1.15",1440,900,1440,820,"main",1620374,144,17,15,"HM","Moderate","Harder than Reference","F","k","safeDeck","riskyDeck",14,0,7,"right",1,0,32,"absent","riskyDeck",619,3059,1
"07iuiut1t9rh",633.815450643777,301.496719433585,13424,"06/03/2022@00:34:21","Mozilla/5.0 (Macintosh; Intel Mac OS X 10_15_7) AppleWebKit/605.1.15 (KHTML, like Gecko) Version/15.3 Safari/605.1.15",1440,900,1440,820,"main",1620374,145,17,15,"EM","Moderate","Easier than Reference","F","k","safeDeck","riskyDeck",-28,0,-14,"right",1,0,32,"absent","riskyDeck",923,4140,1
"07iuiut1t9rh",633.815450643777,301.496719433585,13424,"06/03/2022@00:34:21","Mozilla/5.0 (Macintosh; Intel Mac OS X 10_15_7) AppleWebKit/605.1.15 (KHTML, like Gecko) Version/15.3 Safari/605.1.15",1440,900,1440,820,"main",1620374,146,17,15,"EE","Extreme","Easier than Reference","F","j","safeDeck","riskyDeck",0,-14,-7,"right",1,0,18,"present","riskyDeck",435,1184,1
"07iuiut1t9rh",633.815450643777,301.496719433585,13424,"06/03/2022@00:34:21","Mozilla/5.0 (Macintosh; Intel Mac OS X 10_15_7) AppleWebKit/605.1.15 (KHTML, like Gecko) Version/15.3 Safari/605.1.15",1440,900,1440,820,"main",1620374,147,17,16,"HE","Extreme","Harder than Reference","F","j","safeDeck","riskyDeck",28,0,14,"right",1,1,60,"absent","riskyDeck",481,6596,1
"07iuiut1t9rh",633.815450643777,301.496719433585,13424,"06/03/2022@00:34:21","Mozilla/5.0 (Macintosh; Intel Mac OS X 10_15_7) AppleWebKit/605.1.15 (KHTML, like Gecko) Version/15.3 Safari/605.1.15",1440,900,1440,820,"main",1620374,148,18,16,"HM","Moderate","Harder than Reference","F","j","riskyDeck","safeDeck",0,14,7,"right",0,0,39,"present","safeDeck",574,899,1
"07iuiut1t9rh",633.815450643777,301.496719433585,13424,"06/03/2022@00:34:21","Mozilla/5.0 (Macintosh; Intel Mac OS X 10_15_7) AppleWebKit/605.1.15 (KHTML, like Gecko) Version/15.3 Safari/605.1.15",1440,900,1440,820,"main",1620374,149,18,16,"EM","Moderate","Easier than Reference","F","k","riskyDeck","safeDeck",0,-28,-14,"right",0,0,18,"absent","safeDeck",956,1682,1
"07iuiut1t9rh",633.815450643777,301.496719433585,13424,"06/03/2022@00:34:21","Mozilla/5.0 (Macintosh; Intel Mac OS X 10_15_7) AppleWebKit/605.1.15 (KHTML, like Gecko) Version/15.3 Safari/605.1.15",1440,900,1440,820,"main",1620374,150,18,16,"HE","Extreme","Harder than Reference","F","j","safeDeck","riskyDeck",0,28,14,"right",1,0,32,"present","riskyDeck",512,842,1
"07iuiut1t9rh",633.815450643777,301.496719433585,13424,"06/03/2022@00:34:21","Mozilla/5.0 (Macintosh; Intel Mac OS X 10_15_7) AppleWebKit/605.1.15 (KHTML, like Gecko) Version/15.3 Safari/605.1.15",1440,900,1440,820,"main",1620374,151,18,16,"EE","Extreme","Easier than Reference","F","k","safeDeck","riskyDeck",-14,0,-7,"right",1,0,18,"absent","riskyDeck",503,1387,1
"07iuiut1t9rh",633.815450643777,301.496719433585,13424,"06/03/2022@00:34:21","Mozilla/5.0 (Macintosh; Intel Mac OS X 10_15_7) AppleWebKit/605.1.15 (KHTML, like Gecko) Version/15.3 Safari/605.1.15",1440,900,1440,820,"main",1620374,152,18,16,"HM","Moderate","Harder than Reference","F","k","riskyDeck","safeDeck",0,14,7,"right",0,0,39,"absent","safeDeck",575,1621,1
"07iuiut1t9rh",633.815450643777,301.496719433585,13424,"06/03/2022@00:34:21","Mozilla/5.0 (Macintosh; Intel Mac OS X 10_15_7) AppleWebKit/605.1.15 (KHTML, like Gecko) Version/15.3 Safari/605.1.15",1440,900,1440,820,"main",1620374,155,18,16,"HE","Extreme","Harder than Reference","F","k","riskyDeck","safeDeck",28,0,14,"right",0,0,46,"absent","safeDeck",573,2628,1
"07iuiut1t9rh",633.815450643777,301.496719433585,13424,"06/03/2022@00:34:21","Mozilla/5.0 (Macintosh; Intel Mac OS X 10_15_7) AppleWebKit/605.1.15 (KHTML, like Gecko) Version/15.3 Safari/605.1.15",1440,900,1440,820,"main",1620374,160,18,16,"EM","Moderate","Easier than Reference","F","k","safeDeck","riskyDeck",0,-28,-14,"right",1,0,4,"absent","riskyDeck",364,694,1
"07iuiut1t9rh",633.815450643777,301.496719433585,13424,"06/03/2022@00:34:21","Mozilla/5.0 (Macintosh; Intel Mac OS X 10_15_7) AppleWebKit/605.1.15 (KHTML, like Gecko) Version/15.3 Safari/605.1.15",1440,900,1440,820,"main",1620374,161,18,17,"HE","Extreme","Harder than Reference","F","k","riskyDeck","safeDeck",0,28,14,"right",0,0,46,"absent","safeDeck",340,3610,1
"07iuiut1t9rh",633.815450643777,301.496719433585,13424,"06/03/2022@00:34:21","Mozilla/5.0 (Macintosh; Intel Mac OS X 10_15_7) AppleWebKit/605.1.15 (KHTML, like Gecko) Version/15.3 Safari/605.1.15",1440,900,1440,820,"main",1620374,174,19,17,"HM","Moderate","Harder than Reference","F","k","safeDeck","riskyDeck",14,0,7,"right",1,0,32,"absent","riskyDeck",319,3651,1
"07iuiut1t9rh",633.815450643777,301.496719433585,13424,"06/03/2022@00:34:21","Mozilla/5.0 (Macintosh; Intel Mac OS X 10_15_7) AppleWebKit/605.1.15 (KHTML, like Gecko) Version/15.3 Safari/605.1.15",1440,900,1440,820,"main",1620374,185,20,18,"EE","Extreme","Easier than Reference","F","j","safeDeck","riskyDeck",-14,0,-7,"right",1,0,32,"present","riskyDeck",463,1014,1
"07iuiut1t9rh",633.815450643777,301.496719433585,13424,"06/03/2022@00:34:21","Mozilla/5.0 (Macintosh; Intel Mac OS X 10_15_7) AppleWebKit/605.1.15 (KHTML, like Gecko) Version/15.3 Safari/605.1.15",1440,900,1440,820,"main",1620374,189,20,18,"HE","Extreme","Harder than Reference","F","k","safeDeck","riskyDeck",28,0,14,"right",1,0,32,"absent","riskyDeck",487,2677,1
"07iuiut1t9rh",633.815450643777,301.496719433585,13424,"06/03/2022@00:34:21","Mozilla/5.0 (Macintosh; Intel Mac OS X 10_15_7) AppleWebKit/605.1.15 (KHTML, like Gecko) Version/15.3 Safari/605.1.15",1440,900,1440,820,"main",1620374,198,21,19,"HM","Moderate","Harder than Reference","F","k","safeDeck","riskyDeck",14,0,7,"right",1,0,32,"absent","riskyDeck",377,1713,1
"07iuiut1t9rh",633.815450643777,301.496719433585,13424,"06/03/2022@00:34:21","Mozilla/5.0 (Macintosh; Intel Mac OS X 10_15_7) AppleWebKit/605.1.15 (KHTML, like Gecko) Version/15.3 Safari/605.1.15",1440,900,1440,820,"main",1620374,202,21,19,"HE","Extreme","Harder than Reference","F","k","riskyDeck","safeDeck",0,28,14,"right",0,0,46,"absent","safeDeck",417,5742,1
"07iuiut1t9rh",633.815450643777,301.496719433585,13424,"06/03/2022@00:34:21","Mozilla/5.0 (Macintosh; Intel Mac OS X 10_15_7) AppleWebKit/605.1.15 (KHTML, like Gecko) Version/15.3 Safari/605.1.15",1440,900,1440,820,"main",1620374,208,21,20,"HE","Extreme","Harder than Reference","F","j","safeDeck","riskyDeck",0,28,14,"right",1,0,60,"present","riskyDeck",461,4862,1
"07iuiut1t9rh",633.815450643777,301.496719433585,13424,"06/03/2022@00:34:21","Mozilla/5.0 (Macintosh; Intel Mac OS X 10_15_7) AppleWebKit/605.1.15 (KHTML, like Gecko) Version/15.3 Safari/605.1.15",1440,900,1440,820,"main",1620374,210,22,20,"HE","Extreme","Harder than Reference","F","k","riskyDeck","safeDeck",0,28,14,"right",0,0,46,"absent","safeDeck",338,3274,1
"07iuiut1t9rh",633.815450643777,301.496719433585,13424,"06/03/2022@00:34:21","Mozilla/5.0 (Macintosh; Intel Mac OS X 10_15_7) AppleWebKit/605.1.15 (KHTML, like Gecko) Version/15.3 Safari/605.1.15",1440,900,1440,820,"main",1620374,211,22,20,"EE","Extreme","Easier than Reference","D","j","riskyDeck","safeDeck",-14,0,-7,"left",1,0,32,"present","riskyDeck",466,1646,-1
"07iuiut1t9rh",633.815450643777,301.496719433585,13424,"06/03/2022@00:34:21","Mozilla/5.0 (Macintosh; Intel Mac OS X 10_15_7) AppleWebKit/605.1.15 (KHTML, like Gecko) Version/15.3 Safari/605.1.15",1440,900,1440,820,"main",1620374,212,22,20,"EM","Moderate","Easier than Reference","F","k","riskyDeck","safeDeck",-28,0,-14,"right",0,0,18,"absent","safeDeck",442,1779,1
"07iuiut1t9rh",633.815450643777,301.496719433585,13424,"06/03/2022@00:34:21","Mozilla/5.0 (Macintosh; Intel Mac OS X 10_15_7) AppleWebKit/605.1.15 (KHTML, like Gecko) Version/15.3 Safari/605.1.15",1440,900,1440,820,"main",1620374,213,22,20,"EM","Moderate","Easier than Reference","D","j","riskyDeck","safeDeck",0,-28,-14,"left",1,0,4,"present","riskyDeck",513,640,-1
"07iuiut1t9rh",633.815450643777,301.496719433585,13424,"06/03/2022@00:34:21","Mozilla/5.0 (Macintosh; Intel Mac OS X 10_15_7) AppleWebKit/605.1.15 (KHTML, like Gecko) Version/15.3 Safari/605.1.15",1440,900,1440,820,"main",1620374,214,22,20,"EE","Extreme","Easier than Reference","D","j","riskyDeck","safeDeck",-14,0,-7,"left",1,0,32,"present","riskyDeck",596,1222,-1
"07iuiut1t9rh",633.815450643777,301.496719433585,13424,"06/03/2022@00:34:21","Mozilla/5.0 (Macintosh; Intel Mac OS X 10_15_7) AppleWebKit/605.1.15 (KHTML, like Gecko) Version/15.3 Safari/605.1.15",1440,900,1440,820,"main",1620374,215,22,20,"HM","Moderate","Harder than Reference","F","k","safeDeck","riskyDeck",14,0,7,"right",1,0,46,"absent","riskyDeck",753,6109,1
"07iuiut1t9rh",633.815450643777,301.496719433585,13424,"06/03/2022@00:34:21","Mozilla/5.0 (Macintosh; Intel Mac OS X 10_15_7) AppleWebKit/605.1.15 (KHTML, like Gecko) Version/15.3 Safari/605.1.15",1440,900,1440,820,"main",1620374,216,22,20,"HE","Extreme","Harder than Reference","F","j","riskyDeck","safeDeck",0,28,14,"right",0,0,46,"present","safeDeck",869,2920,1
"07iuiut1t9rh",633.815450643777,301.496719433585,13424,"06/03/2022@00:34:21","Mozilla/5.0 (Macintosh; Intel Mac OS X 10_15_7) AppleWebKit/605.1.15 (KHTML, like Gecko) Version/15.3 Safari/605.1.15",1440,900,1440,820,"main",1620374,217,22,20,"HE","Extreme","Harder than Reference","F","k","safeDeck","riskyDeck",0,28,14,"right",1,1,60,"present","riskyDeck",602,4086,1
"07iuiut1t9rh",633.815450643777,301.496719433585,13424,"06/03/2022@00:34:21","Mozilla/5.0 (Macintosh; Intel Mac OS X 10_15_7) AppleWebKit/605.1.15 (KHTML, like Gecko) Version/15.3 Safari/605.1.15",1440,900,1440,820,"main",1620374,220,22,21,"HM","Moderate","Harder than Reference","F","k","riskyDeck","safeDeck",0,14,7,"right",0,1,39,"present","safeDeck",564,1938,1
"07iuiut1t9rh",633.815450643777,301.496719433585,13424,"06/03/2022@00:34:21","Mozilla/5.0 (Macintosh; Intel Mac OS X 10_15_7) AppleWebKit/605.1.15 (KHTML, like Gecko) Version/15.3 Safari/605.1.15",1440,900,1440,820,"main",1620374,222,23,21,"HE","Extreme","Harder than Reference","F","j","riskyDeck","safeDeck",0,28,14,"right",0,0,46,"present","safeDeck",538,1136,1
"07iuiut1t9rh",633.815450643777,301.496719433585,13424,"06/03/2022@00:34:21","Mozilla/5.0 (Macintosh; Intel Mac OS X 10_15_7) AppleWebKit/605.1.15 (KHTML, like Gecko) Version/15.3 Safari/605.1.15",1440,900,1440,820,"main",1620374,223,23,21,"EE","Extreme","Easier than Reference","F","j","safeDeck","riskyDeck",-14,0,-7,"right",1,0,18,"present","riskyDeck",333,691,1
"07iuiut1t9rh",633.815450643777,301.496719433585,13424,"06/03/2022@00:34:21","Mozilla/5.0 (Macintosh; Intel Mac OS X 10_15_7) AppleWebKit/605.1.15 (KHTML, like Gecko) Version/15.3 Safari/605.1.15",1440,900,1440,820,"main",1620374,224,23,22,"EM","Moderate","Easier than Reference","F","j","riskyDeck","safeDeck",-28,0,-14,"right",0,0,18,"present","safeDeck",512,930,1
"07iuiut1t9rh",633.815450643777,301.496719433585,13424,"06/03/2022@00:34:21","Mozilla/5.0 (Macintosh; Intel Mac OS X 10_15_7) AppleWebKit/605.1.15 (KHTML, like Gecko) Version/15.3 Safari/605.1.15",1440,900,1440,820,"main",1620374,226,23,22,"EE","Extreme","Easier than Reference","F","j","riskyDeck","safeDeck",0,-14,-7,"right",0,0,25,"present","safeDeck",562,1051,1
"07iuiut1t9rh",633.815450643777,301.496719433585,13424,"06/03/2022@00:34:21","Mozilla/5.0 (Macintosh; Intel Mac OS X 10_15_7) AppleWebKit/605.1.15 (KHTML, like Gecko) Version/15.3 Safari/605.1.15",1440,900,1440,820,"main",1620374,227,23,22,"HE","Extreme","Harder than Reference","F","k","riskyDeck","safeDeck",0,28,14,"right",0,1,46,"present","safeDeck",532,3225,1
"07iuiut1t9rh",633.815450643777,301.496719433585,13424,"06/03/2022@00:34:21","Mozilla/5.0 (Macintosh; Intel Mac OS X 10_15_7) AppleWebKit/605.1.15 (KHTML, like Gecko) Version/15.3 Safari/605.1.15",1440,900,1440,820,"main",1620374,229,24,22,"EE","Extreme","Easier than Reference","F","j","riskyDeck","safeDeck",-14,0,-7,"right",0,0,25,"present","safeDeck",424,1512,1
"07iuiut1t9rh",633.815450643777,301.496719433585,13424,"06/03/2022@00:34:21","Mozilla/5.0 (Macintosh; Intel Mac OS X 10_15_7) AppleWebKit/605.1.15 (KHTML, like Gecko) Version/15.3 Safari/605.1.15",1440,900,1440,820,"main",1620374,230,24,22,"EM","Moderate","Easier than Reference","D","j","riskyDeck","safeDeck",-28,0,-14,"left",1,0,4,"present","riskyDeck",583,995,-1
"07iuiut1t9rh",633.815450643777,301.496719433585,13424,"06/03/2022@00:34:21","Mozilla/5.0 (Macintosh; Intel Mac OS X 10_15_7) AppleWebKit/605.1.15 (KHTML, like Gecko) Version/15.3 Safari/605.1.15",1440,900,1440,820,"main",1620374,231,24,22,"HE","Extreme","Harder than Reference","D","k","riskyDeck","safeDeck",28,0,14,"left",1,0,32,"absent","riskyDeck",826,2269,-1
"07iuiut1t9rh",633.815450643777,301.496719433585,13424,"06/03/2022@00:34:21","Mozilla/5.0 (Macintosh; Intel Mac OS X 10_15_7) AppleWebKit/605.1.15 (KHTML, like Gecko) Version/15.3 Safari/605.1.15",1440,900,1440,820,"main",1620374,232,24,22,"HM","Moderate","Harder than Reference","F","k","safeDeck","riskyDeck",14,0,7,"right",1,0,46,"absent","riskyDeck",528,2629,1
"07iuiut1t9rh",633.815450643777,301.496719433585,13424,"06/03/2022@00:34:21","Mozilla/5.0 (Macintosh; Intel Mac OS X 10_15_7) AppleWebKit/605.1.15 (KHTML, like Gecko) Version/15.3 Safari/605.1.15",1440,900,1440,820,"main",1620374,233,24,22,"EE","Extreme","Easier than Reference","F","j","safeDeck","riskyDeck",-14,0,-7,"right",1,0,18,"present","riskyDeck",759,1298,1
"07iuiut1t9rh",633.815450643777,301.496719433585,13424,"06/03/2022@00:34:21","Mozilla/5.0 (Macintosh; Intel Mac OS X 10_15_7) AppleWebKit/605.1.15 (KHTML, like Gecko) Version/15.3 Safari/605.1.15",1440,900,1440,820,"main",1620374,234,24,22,"HM","Moderate","Harder than Reference","D","k","riskyDeck","safeDeck",0,14,7,"left",1,0,46,"absent","riskyDeck",712,3150,-1
"07iuiut1t9rh",633.815450643777,301.496719433585,13424,"06/03/2022@00:34:21","Mozilla/5.0 (Macintosh; Intel Mac OS X 10_15_7) AppleWebKit/605.1.15 (KHTML, like Gecko) Version/15.3 Safari/605.1.15",1440,900,1440,820,"main",1620374,235,24,22,"HE","Extreme","Harder than Reference","F","k","safeDeck","riskyDeck",0,28,14,"right",1,0,32,"absent","riskyDeck",532,2094,1
"07iuiut1t9rh",633.815450643777,301.496719433585,13424,"06/03/2022@00:34:21","Mozilla/5.0 (Macintosh; Intel Mac OS X 10_15_7) AppleWebKit/605.1.15 (KHTML, like Gecko) Version/15.3 Safari/605.1.15",1440,900,1440,820,"main",1620374,236,24,22,"EM","Moderate","Easier than Reference","D","j","riskyDeck","safeDeck",0,-28,-14,"left",1,0,32,"present","riskyDeck",696,1569,-1
"07iuiut1t9rh",633.815450643777,301.496719433585,13424,"06/03/2022@00:34:21","Mozilla/5.0 (Macintosh; Intel Mac OS X 10_15_7) AppleWebKit/605.1.15 (KHTML, like Gecko) Version/15.3 Safari/605.1.15",1440,900,1440,820,"main",1620374,237,24,22,"HE","Extreme","Harder than Reference","D","k","riskyDeck","safeDeck",0,28,14,"left",1,0,32,"absent","riskyDeck",643,1576,-1
"07iuiut1t9rh",633.815450643777,301.496719433585,13424,"06/03/2022@00:34:21","Mozilla/5.0 (Macintosh; Intel Mac OS X 10_15_7) AppleWebKit/605.1.15 (KHTML, like Gecko) Version/15.3 Safari/605.1.15",1440,900,1440,820,"main",1620374,238,24,22,"EM","Moderate","Easier than Reference","F","k","safeDeck","riskyDeck",-28,0,-14,"right",1,0,4,"absent","riskyDeck",453,717,1
"07iuiut1t9rh",633.815450643777,301.496719433585,13424,"06/03/2022@00:34:21","Mozilla/5.0 (Macintosh; Intel Mac OS X 10_15_7) AppleWebKit/605.1.15 (KHTML, like Gecko) Version/15.3 Safari/605.1.15",1440,900,1440,820,"main",1620374,239,24,22,"EE","Extreme","Easier than Reference","F","j","safeDeck","riskyDeck",0,-14,-7,"right",1,0,18,"present","riskyDeck",515,900,1
"07iuiut1t9rh",633.815450643777,301.496719433585,13424,"06/03/2022@00:34:21","Mozilla/5.0 (Macintosh; Intel Mac OS X 10_15_7) AppleWebKit/605.1.15 (KHTML, like Gecko) Version/15.3 Safari/605.1.15",1440,900,1440,820,"main",1620374,240,24,23,"HM","Moderate","Harder than Reference","F","k","safeDeck","riskyDeck",14,0,7,"right",1,0,32,"absent","riskyDeck",621,1517,1
"07iuiut1t9rh",633.815450643777,301.496719433585,13424,"06/03/2022@00:34:21","Mozilla/5.0 (Macintosh; Intel Mac OS X 10_15_7) AppleWebKit/605.1.15 (KHTML, like Gecko) Version/15.3 Safari/605.1.15",1440,900,1440,820,"main",1620374,241,24,23,"EE","Extreme","Easier than Reference","F","k","safeDeck","riskyDeck",0,-14,-7,"right",1,0,32,"absent","riskyDeck",437,1881,1
"07iuiut1t9rh",633.815450643777,301.496719433585,13424,"06/03/2022@00:34:21","Mozilla/5.0 (Macintosh; Intel Mac OS X 10_15_7) AppleWebKit/605.1.15 (KHTML, like Gecko) Version/15.3 Safari/605.1.15",1440,900,1440,820,"main",1620374,242,24,23,"EM","Moderate","Easier than Reference","F","j","safeDeck","riskyDeck",-28,0,-14,"right",1,0,4,"present","riskyDeck",399,721,1
"07iuiut1t9rh",633.815450643777,301.496719433585,13424,"06/03/2022@00:34:21","Mozilla/5.0 (Macintosh; Intel Mac OS X 10_15_7) AppleWebKit/605.1.15 (KHTML, like Gecko) Version/15.3 Safari/605.1.15",1440,900,1440,820,"main",1620374,243,25,23,"HE","Extreme","Harder than Reference","D","j","riskyDeck","safeDeck",0,28,14,"left",1,0,32,"present","riskyDeck",690,982,-1
"07iuiut1t9rh",633.815450643777,301.496719433585,13424,"06/03/2022@00:34:21","Mozilla/5.0 (Macintosh; Intel Mac OS X 10_15_7) AppleWebKit/605.1.15 (KHTML, like Gecko) Version/15.3 Safari/605.1.15",1440,900,1440,820,"main",1620374,244,25,23,"HM","Moderate","Harder than Reference","F","k","safeDeck","riskyDeck",14,0,7,"right",1,0,32,"absent","riskyDeck",449,2112,1
"07iuiut1t9rh",633.815450643777,301.496719433585,13424,"06/03/2022@00:34:21","Mozilla/5.0 (Macintosh; Intel Mac OS X 10_15_7) AppleWebKit/605.1.15 (KHTML, like Gecko) Version/15.3 Safari/605.1.15",1440,900,1440,820,"main",1620374,245,25,23,"HM","Moderate","Harder than Reference","D","k","riskyDeck","safeDeck",0,14,7,"left",1,0,32,"absent","riskyDeck",740,2717,-1
"07iuiut1t9rh",633.815450643777,301.496719433585,13424,"06/03/2022@00:34:21","Mozilla/5.0 (Macintosh; Intel Mac OS X 10_15_7) AppleWebKit/605.1.15 (KHTML, like Gecko) Version/15.3 Safari/605.1.15",1440,900,1440,820,"main",1620374,246,25,23,"EM","Moderate","Easier than Reference","D","j","riskyDeck","safeDeck",-28,0,-14,"left",1,0,32,"present","riskyDeck",614,1074,-1
"07iuiut1t9rh",633.815450643777,301.496719433585,13424,"06/03/2022@00:34:21","Mozilla/5.0 (Macintosh; Intel Mac OS X 10_15_7) AppleWebKit/605.1.15 (KHTML, like Gecko) Version/15.3 Safari/605.1.15",1440,900,1440,820,"main",1620374,247,25,23,"EE","Extreme","Easier than Reference","F","k","safeDeck","riskyDeck",-14,0,-7,"right",1,0,32,"absent","riskyDeck",510,2264,1
"07iuiut1t9rh",633.815450643777,301.496719433585,13424,"06/03/2022@00:34:21","Mozilla/5.0 (Macintosh; Intel Mac OS X 10_15_7) AppleWebKit/605.1.15 (KHTML, like Gecko) Version/15.3 Safari/605.1.15",1440,900,1440,820,"main",1620374,248,25,23,"HE","Extreme","Harder than Reference","D","k","riskyDeck","safeDeck",0,28,14,"left",1,0,60,"absent","riskyDeck",628,4225,-1
"07iuiut1t9rh",633.815450643777,301.496719433585,13424,"06/03/2022@00:34:21","Mozilla/5.0 (Macintosh; Intel Mac OS X 10_15_7) AppleWebKit/605.1.15 (KHTML, like Gecko) Version/15.3 Safari/605.1.15",1440,900,1440,820,"main",1620374,249,25,23,"HE","Extreme","Harder than Reference","D","j","riskyDeck","safeDeck",0,28,14,"left",1,0,60,"present","riskyDeck",722,1892,-1
"07iuiut1t9rh",633.815450643777,301.496719433585,13424,"06/03/2022@00:34:21","Mozilla/5.0 (Macintosh; Intel Mac OS X 10_15_7) AppleWebKit/605.1.15 (KHTML, like Gecko) Version/15.3 Safari/605.1.15",1440,900,1440,820,"main",1620374,250,25,23,"HM","Moderate","Harder than Reference","F","k","safeDeck","riskyDeck",0,14,7,"right",1,0,46,"absent","riskyDeck",472,3804,1
"07iuiut1t9rh",633.815450643777,301.496719433585,13424,"06/03/2022@00:34:21","Mozilla/5.0 (Macintosh; Intel Mac OS X 10_15_7) AppleWebKit/605.1.15 (KHTML, like Gecko) Version/15.3 Safari/605.1.15",1440,900,1440,820,"main",1620374,251,25,23,"EE","Extreme","Easier than Reference","F","k","safeDeck","riskyDeck",-14,0,-7,"right",1,0,32,"absent","riskyDeck",415,1971,1
"07iuiut1t9rh",633.815450643777,301.496719433585,13424,"06/03/2022@00:34:21","Mozilla/5.0 (Macintosh; Intel Mac OS X 10_15_7) AppleWebKit/605.1.15 (KHTML, like Gecko) Version/15.3 Safari/605.1.15",1440,900,1440,820,"main",1620374,252,25,23,"EM","Moderate","Easier than Reference","F","j","safeDeck","riskyDeck",-28,0,-14,"right",1,0,32,"present","riskyDeck",359,863,1
"07iuiut1t9rh",633.815450643777,301.496719433585,13424,"06/03/2022@00:34:21","Mozilla/5.0 (Macintosh; Intel Mac OS X 10_15_7) AppleWebKit/605.1.15 (KHTML, like Gecko) Version/15.3 Safari/605.1.15",1440,900,1440,820,"main",1620374,253,25,23,"EE","Extreme","Easier than Reference","D","j","riskyDeck","safeDeck",0,-14,-7,"left",1,0,18,"present","riskyDeck",627,856,-1
"07iuiut1t9rh",633.815450643777,301.496719433585,13424,"06/03/2022@00:34:21","Mozilla/5.0 (Macintosh; Intel Mac OS X 10_15_7) AppleWebKit/605.1.15 (KHTML, like Gecko) Version/15.3 Safari/605.1.15",1440,900,1440,820,"main",1620374,254,25,23,"HM","Moderate","Harder than Reference","D","k","riskyDeck","safeDeck",0,14,7,"left",1,0,32,"absent","riskyDeck",669,1726,-1
"07iuiut1t9rh",633.815450643777,301.496719433585,13424,"06/03/2022@00:34:21","Mozilla/5.0 (Macintosh; Intel Mac OS X 10_15_7) AppleWebKit/605.1.15 (KHTML, like Gecko) Version/15.3 Safari/605.1.15",1440,900,1440,820,"main",1620374,255,25,24,"HE","Extreme","Harder than Reference","F","j","safeDeck","riskyDeck",28,0,14,"right",1,0,60,"present","riskyDeck",436,2252,1
"07iuiut1t9rh",633.815450643777,301.496719433585,13424,"06/03/2022@00:34:21","Mozilla/5.0 (Macintosh; Intel Mac OS X 10_15_7) AppleWebKit/605.1.15 (KHTML, like Gecko) Version/15.3 Safari/605.1.15",1440,900,1440,820,"main",1620374,256,25,24,"EM","Moderate","Easier than Reference","D","k","riskyDeck","safeDeck",-28,0,-14,"left",1,0,4,"absent","riskyDeck",509,726,-1
"07iuiut1t9rh",633.815450643777,301.496719433585,13424,"06/03/2022@00:34:21","Mozilla/5.0 (Macintosh; Intel Mac OS X 10_15_7) AppleWebKit/605.1.15 (KHTML, like Gecko) Version/15.3 Safari/605.1.15",1440,900,1440,820,"main",1620374,257,25,24,"HE","Extreme","Harder than Reference","F","k","safeDeck","riskyDeck",28,0,14,"right",1,0,60,"absent","riskyDeck",461,3226,1
"07iuiut1t9rh",633.815450643777,301.496719433585,13424,"06/03/2022@00:34:21","Mozilla/5.0 (Macintosh; Intel Mac OS X 10_15_7) AppleWebKit/605.1.15 (KHTML, like Gecko) Version/15.3 Safari/605.1.15",1440,900,1440,820,"main",1620374,258,26,24,"EE","Extreme","Easier than Reference","F","j","safeDeck","riskyDeck",-14,0,-7,"right",1,0,18,"present","riskyDeck",471,1033,1
"07iuiut1t9rh",633.815450643777,301.496719433585,13424,"06/03/2022@00:34:21","Mozilla/5.0 (Macintosh; Intel Mac OS X 10_15_7) AppleWebKit/605.1.15 (KHTML, like Gecko) Version/15.3 Safari/605.1.15",1440,900,1440,820,"main",1620374,259,26,24,"EM","Moderate","Easier than Reference","D","k","riskyDeck","safeDeck",0,-28,-14,"left",1,0,4,"absent","riskyDeck",569,952,-1
"07iuiut1t9rh",633.815450643777,301.496719433585,13424,"06/03/2022@00:34:21","Mozilla/5.0 (Macintosh; Intel Mac OS X 10_15_7) AppleWebKit/605.1.15 (KHTML, like Gecko) Version/15.3 Safari/605.1.15",1440,900,1440,820,"main",1620374,260,26,24,"HM","Moderate","Harder than Reference","D","j","riskyDeck","safeDeck",0,14,7,"left",1,0,32,"present","riskyDeck",660,1062,-1
"07iuiut1t9rh",633.815450643777,301.496719433585,13424,"06/03/2022@00:34:21","Mozilla/5.0 (Macintosh; Intel Mac OS X 10_15_7) AppleWebKit/605.1.15 (KHTML, like Gecko) Version/15.3 Safari/605.1.15",1440,900,1440,820,"main",1620374,261,26,24,"HE","Extreme","Harder than Reference","D","k","riskyDeck","safeDeck",0,28,14,"left",1,0,32,"absent","riskyDeck",684,1170,-1
"07iuiut1t9rh",633.815450643777,301.496719433585,13424,"06/03/2022@00:34:21","Mozilla/5.0 (Macintosh; Intel Mac OS X 10_15_7) AppleWebKit/605.1.15 (KHTML, like Gecko) Version/15.3 Safari/605.1.15",1440,900,1440,820,"main",1620374,262,26,24,"EE","Extreme","Easier than Reference","D","k","riskyDeck","safeDeck",-14,0,-7,"left",1,0,32,"absent","riskyDeck",525,1338,-1
"07iuiut1t9rh",633.815450643777,301.496719433585,13424,"06/03/2022@00:34:21","Mozilla/5.0 (Macintosh; Intel Mac OS X 10_15_7) AppleWebKit/605.1.15 (KHTML, like Gecko) Version/15.3 Safari/605.1.15",1440,900,1440,820,"main",1620374,263,26,24,"HM","Moderate","Harder than Reference","F","j","safeDeck","riskyDeck",14,0,7,"right",1,0,32,"present","riskyDeck",432,1582,1
"07iuiut1t9rh",633.815450643777,301.496719433585,13424,"06/03/2022@00:34:21","Mozilla/5.0 (Macintosh; Intel Mac OS X 10_15_7) AppleWebKit/605.1.15 (KHTML, like Gecko) Version/15.3 Safari/605.1.15",1440,900,1440,820,"main",1620374,264,26,24,"EM","Moderate","Easier than Reference","F","k","safeDeck","riskyDeck",-28,0,-14,"right",1,0,32,"absent","riskyDeck",401,1476,1
"07iuiut1t9rh",633.815450643777,301.496719433585,13424,"06/03/2022@00:34:21","Mozilla/5.0 (Macintosh; Intel Mac OS X 10_15_7) AppleWebKit/605.1.15 (KHTML, like Gecko) Version/15.3 Safari/605.1.15",1440,900,1440,820,"main",1620374,266,26,24,"HM","Moderate","Harder than Reference","F","k","safeDeck","riskyDeck",14,0,7,"right",1,1,32,"present","riskyDeck",583,1593,1
"07iuiut1t9rh",633.815450643777,301.496719433585,13424,"06/03/2022@00:34:21","Mozilla/5.0 (Macintosh; Intel Mac OS X 10_15_7) AppleWebKit/605.1.15 (KHTML, like Gecko) Version/15.3 Safari/605.1.15",1440,900,1440,820,"main",1620374,267,26,24,"HE","Extreme","Harder than Reference","D","j","riskyDeck","safeDeck",0,28,14,"left",1,0,32,"present","riskyDeck",569,1141,-1
"07iuiut1t9rh",633.815450643777,301.496719433585,13424,"06/03/2022@00:34:21","Mozilla/5.0 (Macintosh; Intel Mac OS X 10_15_7) AppleWebKit/605.1.15 (KHTML, like Gecko) Version/15.3 Safari/605.1.15",1440,900,1440,820,"main",1620374,271,26,25,"HE","Extreme","Harder than Reference","D","j","riskyDeck","safeDeck",28,0,14,"left",1,0,32,"present","riskyDeck",873,1312,-1
"07iuiut1t9rh",633.815450643777,301.496719433585,13424,"06/03/2022@00:34:21","Mozilla/5.0 (Macintosh; Intel Mac OS X 10_15_7) AppleWebKit/605.1.15 (KHTML, like Gecko) Version/15.3 Safari/605.1.15",1440,900,1440,820,"main",1620374,272,26,25,"EE","Extreme","Easier than Reference","F","k","safeDeck","riskyDeck",0,-14,-7,"right",1,0,32,"absent","riskyDeck",730,2109,1
"07iuiut1t9rh",633.815450643777,301.496719433585,13424,"06/03/2022@00:34:21","Mozilla/5.0 (Macintosh; Intel Mac OS X 10_15_7) AppleWebKit/605.1.15 (KHTML, like Gecko) Version/15.3 Safari/605.1.15",1440,900,1440,820,"main",1620374,273,27,25,"HE","Extreme","Harder than Reference","F","j","safeDeck","riskyDeck",28,0,14,"right",1,0,32,"present","riskyDeck",433,1068,1
"07iuiut1t9rh",633.815450643777,301.496719433585,13424,"06/03/2022@00:34:21","Mozilla/5.0 (Macintosh; Intel Mac OS X 10_15_7) AppleWebKit/605.1.15 (KHTML, like Gecko) Version/15.3 Safari/605.1.15",1440,900,1440,820,"main",1620374,274,27,25,"EM","Moderate","Easier than Reference","D","k","riskyDeck","safeDeck",0,-28,-14,"left",1,0,4,"absent","riskyDeck",420,661,-1
"07iuiut1t9rh",633.815450643777,301.496719433585,13424,"06/03/2022@00:34:21","Mozilla/5.0 (Macintosh; Intel Mac OS X 10_15_7) AppleWebKit/605.1.15 (KHTML, like Gecko) Version/15.3 Safari/605.1.15",1440,900,1440,820,"main",1620374,275,27,25,"HM","Moderate","Harder than Reference","D","k","riskyDeck","safeDeck",14,0,7,"left",1,0,46,"absent","riskyDeck",642,2762,-1
"07iuiut1t9rh",633.815450643777,301.496719433585,13424,"06/03/2022@00:34:21","Mozilla/5.0 (Macintosh; Intel Mac OS X 10_15_7) AppleWebKit/605.1.15 (KHTML, like Gecko) Version/15.3 Safari/605.1.15",1440,900,1440,820,"main",1620374,278,27,25,"EM","Moderate","Easier than Reference","D","j","riskyDeck","safeDeck",-28,0,-14,"left",1,0,32,"present","riskyDeck",302,1716,-1
"07iuiut1t9rh",633.815450643777,301.496719433585,13424,"06/03/2022@00:34:21","Mozilla/5.0 (Macintosh; Intel Mac OS X 10_15_7) AppleWebKit/605.1.15 (KHTML, like Gecko) Version/15.3 Safari/605.1.15",1440,900,1440,820,"main",1620374,279,27,25,"HM","Moderate","Harder than Reference","F","k","riskyDeck","safeDeck",0,14,7,"right",0,0,39,"absent","safeDeck",496,2325,1
"07iuiut1t9rh",633.815450643777,301.496719433585,13424,"06/03/2022@00:34:21","Mozilla/5.0 (Macintosh; Intel Mac OS X 10_15_7) AppleWebKit/605.1.15 (KHTML, like Gecko) Version/15.3 Safari/605.1.15",1440,900,1440,820,"main",1620374,283,27,25,"EE","Extreme","Easier than Reference","D","j","riskyDeck","safeDeck",0,-14,-7,"left",1,0,18,"present","riskyDeck",367,1227,-1
"07iuiut1t9rh",633.815450643777,301.496719433585,13424,"06/03/2022@00:34:21","Mozilla/5.0 (Macintosh; Intel Mac OS X 10_15_7) AppleWebKit/605.1.15 (KHTML, like Gecko) Version/15.3 Safari/605.1.15",1440,900,1440,820,"main",1620374,284,27,25,"EM","Moderate","Easier than Reference","D","k","riskyDeck","safeDeck",-28,0,-14,"left",1,0,32,"absent","riskyDeck",515,1662,-1
"07iuiut1t9rh",633.815450643777,301.496719433585,13424,"06/03/2022@00:34:21","Mozilla/5.0 (Macintosh; Intel Mac OS X 10_15_7) AppleWebKit/605.1.15 (KHTML, like Gecko) Version/15.3 Safari/605.1.15",1440,900,1440,820,"main",1620374,286,27,26,"HE","Extreme","Harder than Reference","F","k","safeDeck","riskyDeck",28,0,14,"right",1,0,60,"absent","riskyDeck",720,3337,1
"07iuiut1t9rh",633.815450643777,301.496719433585,13424,"06/03/2022@00:34:21","Mozilla/5.0 (Macintosh; Intel Mac OS X 10_15_7) AppleWebKit/605.1.15 (KHTML, like Gecko) Version/15.3 Safari/605.1.15",1440,900,1440,820,"main",1620374,287,27,26,"EE","Extreme","Easier than Reference","D","k","riskyDeck","safeDeck",-14,0,-7,"left",1,0,32,"absent","riskyDeck",801,1904,-1
"07iuiut1t9rh",633.815450643777,301.496719433585,13424,"06/03/2022@00:34:21","Mozilla/5.0 (Macintosh; Intel Mac OS X 10_15_7) AppleWebKit/605.1.15 (KHTML, like Gecko) Version/15.3 Safari/605.1.15",1440,900,1440,820,"main",1620374,288,28,26,"HM","Moderate","Harder than Reference","F","j","safeDeck","riskyDeck",14,0,7,"right",1,0,32,"present","riskyDeck",575,1474,1
"07iuiut1t9rh",633.815450643777,301.496719433585,13424,"06/03/2022@00:34:21","Mozilla/5.0 (Macintosh; Intel Mac OS X 10_15_7) AppleWebKit/605.1.15 (KHTML, like Gecko) Version/15.3 Safari/605.1.15",1440,900,1440,820,"main",1620374,291,28,26,"EE","Extreme","Easier than Reference","D","k","riskyDeck","safeDeck",0,-14,-7,"left",1,0,18,"absent","riskyDeck",460,812,-1
"07iuiut1t9rh",633.815450643777,301.496719433585,13424,"06/03/2022@00:34:21","Mozilla/5.0 (Macintosh; Intel Mac OS X 10_15_7) AppleWebKit/605.1.15 (KHTML, like Gecko) Version/15.3 Safari/605.1.15",1440,900,1440,820,"main",1620374,292,28,26,"HE","Extreme","Harder than Reference","F","k","safeDeck","riskyDeck",28,0,14,"right",1,1,60,"present","riskyDeck",494,3516,1
"07iuiut1t9rh",633.815450643777,301.496719433585,13424,"06/03/2022@00:34:21","Mozilla/5.0 (Macintosh; Intel Mac OS X 10_15_7) AppleWebKit/605.1.15 (KHTML, like Gecko) Version/15.3 Safari/605.1.15",1440,900,1440,820,"main",1620374,294,28,26,"EM","Moderate","Easier than Reference","D","j","riskyDeck","safeDeck",-28,0,-14,"left",1,0,32,"present","riskyDeck",623,1576,-1
"07iuiut1t9rh",633.815450643777,301.496719433585,13424,"06/03/2022@00:34:21","Mozilla/5.0 (Macintosh; Intel Mac OS X 10_15_7) AppleWebKit/605.1.15 (KHTML, like Gecko) Version/15.3 Safari/605.1.15",1440,900,1440,820,"main",1620374,295,28,26,"EE","Extreme","Easier than Reference","D","k","riskyDeck","safeDeck",-14,0,-7,"left",1,0,18,"absent","riskyDeck",502,1534,-1
"07iuiut1t9rh",633.815450643777,301.496719433585,13424,"06/03/2022@00:34:21","Mozilla/5.0 (Macintosh; Intel Mac OS X 10_15_7) AppleWebKit/605.1.15 (KHTML, like Gecko) Version/15.3 Safari/605.1.15",1440,900,1440,820,"main",1620374,296,28,26,"HE","Extreme","Harder than Reference","D","k","riskyDeck","safeDeck",28,0,14,"left",1,1,60,"present","riskyDeck",631,5364,-1
"07iuiut1t9rh",633.815450643777,301.496719433585,13424,"06/03/2022@00:34:21","Mozilla/5.0 (Macintosh; Intel Mac OS X 10_15_7) AppleWebKit/605.1.15 (KHTML, like Gecko) Version/15.3 Safari/605.1.15",1440,900,1440,820,"main",1620374,301,28,27,"EM","Moderate","Easier than Reference","D","j","riskyDeck","safeDeck",0,-28,-14,"left",1,0,32,"present","riskyDeck",484,1914,-1
"07iuiut1t9rh",633.815450643777,301.496719433585,13424,"06/03/2022@00:34:21","Mozilla/5.0 (Macintosh; Intel Mac OS X 10_15_7) AppleWebKit/605.1.15 (KHTML, like Gecko) Version/15.3 Safari/605.1.15",1440,900,1440,820,"main",1620374,302,28,27,"EE","Extreme","Easier than Reference","F","j","riskyDeck","safeDeck",0,-14,-7,"right",0,0,25,"present","safeDeck",305,871,1
"07iuiut1t9rh",633.815450643777,301.496719433585,13424,"06/03/2022@00:34:21","Mozilla/5.0 (Macintosh; Intel Mac OS X 10_15_7) AppleWebKit/605.1.15 (KHTML, like Gecko) Version/15.3 Safari/605.1.15",1440,900,1440,820,"main",1620374,303,28,27,"HE","Extreme","Harder than Reference","F","j","safeDeck","riskyDeck",28,0,14,"right",1,0,32,"present","riskyDeck",541,1107,1
"07iuiut1t9rh",633.815450643777,301.496719433585,13424,"06/03/2022@00:34:21","Mozilla/5.0 (Macintosh; Intel Mac OS X 10_15_7) AppleWebKit/605.1.15 (KHTML, like Gecko) Version/15.3 Safari/605.1.15",1440,900,1440,820,"main",1620374,304,29,27,"HM","Moderate","Harder than Reference","D","k","riskyDeck","safeDeck",0,14,7,"left",1,0,32,"absent","riskyDeck",687,2724,-1
"07iuiut1t9rh",633.815450643777,301.496719433585,13424,"06/03/2022@00:34:21","Mozilla/5.0 (Macintosh; Intel Mac OS X 10_15_7) AppleWebKit/605.1.15 (KHTML, like Gecko) Version/15.3 Safari/605.1.15",1440,900,1440,820,"main",1620374,305,29,27,"EM","Moderate","Easier than Reference","F","k","safeDeck","riskyDeck",0,-28,-14,"right",1,0,4,"absent","riskyDeck",417,898,1
"07iuiut1t9rh",633.815450643777,301.496719433585,13424,"06/03/2022@00:34:21","Mozilla/5.0 (Macintosh; Intel Mac OS X 10_15_7) AppleWebKit/605.1.15 (KHTML, like Gecko) Version/15.3 Safari/605.1.15",1440,900,1440,820,"main",1620374,306,29,27,"HM","Moderate","Harder than Reference","D","j","riskyDeck","safeDeck",0,14,7,"left",1,0,46,"present","riskyDeck",651,2244,-1
"07iuiut1t9rh",633.815450643777,301.496719433585,13424,"06/03/2022@00:34:21","Mozilla/5.0 (Macintosh; Intel Mac OS X 10_15_7) AppleWebKit/605.1.15 (KHTML, like Gecko) Version/15.3 Safari/605.1.15",1440,900,1440,820,"main",1620374,307,29,27,"EE","Extreme","Easier than Reference","F","j","safeDeck","riskyDeck",-14,0,-7,"right",1,0,18,"present","riskyDeck",526,1461,1
"07iuiut1t9rh",633.815450643777,301.496719433585,13424,"06/03/2022@00:34:21","Mozilla/5.0 (Macintosh; Intel Mac OS X 10_15_7) AppleWebKit/605.1.15 (KHTML, like Gecko) Version/15.3 Safari/605.1.15",1440,900,1440,820,"main",1620374,308,29,27,"HE","Extreme","Harder than Reference","F","j","riskyDeck","safeDeck",0,28,14,"right",0,0,46,"present","safeDeck",612,3019,1
"12ca06vw3bvp",1153.07142857143,728.730779250656,13608,"01/03/2022@11:57:23","Mozilla/5.0 (Windows NT 10.0; Win64; x64) AppleWebKit/537.36 (KHTML, like Gecko) Chrome/98.0.4758.102 Safari/537.36",1707,960,1707,849,"main",1846905,5,6,3,"HM","Moderate","Harder than Reference","D","k","safeDeck","riskyDeck",0,14,7,"left",0,0,39,"absent","safeDeck",2548,10362,-1
"12ca06vw3bvp",1153.07142857143,728.730779250656,13608,"01/03/2022@11:57:23","Mozilla/5.0 (Windows NT 10.0; Win64; x64) AppleWebKit/537.36 (KHTML, like Gecko) Chrome/98.0.4758.102 Safari/537.36",1707,960,1707,849,"main",1846905,7,6,3,"EM","Moderate","Easier than Reference","D","k","safeDeck","riskyDeck",0,-28,-14,"left",0,0,18,"absent","safeDeck",1882,3765,-1
"12ca06vw3bvp",1153.07142857143,728.730779250656,13608,"01/03/2022@11:57:23","Mozilla/5.0 (Windows NT 10.0; Win64; x64) AppleWebKit/537.36 (KHTML, like Gecko) Chrome/98.0.4758.102 Safari/537.36",1707,960,1707,849,"main",1846905,8,6,4,"HE","Extreme","Harder than Reference","F","k","riskyDeck","safeDeck",28,0,14,"right",0,0,46,"absent","safeDeck",1457,11332,1
"12ca06vw3bvp",1153.07142857143,728.730779250656,13608,"01/03/2022@11:57:23","Mozilla/5.0 (Windows NT 10.0; Win64; x64) AppleWebKit/537.36 (KHTML, like Gecko) Chrome/98.0.4758.102 Safari/537.36",1707,960,1707,849,"main",1846905,9,6,4,"HM","Moderate","Harder than Reference","F","j","riskyDeck","safeDeck",14,0,7,"right",0,0,39,"present","safeDeck",1555,2145,1
"12ca06vw3bvp",1153.07142857143,728.730779250656,13608,"01/03/2022@11:57:23","Mozilla/5.0 (Windows NT 10.0; Win64; x64) AppleWebKit/537.36 (KHTML, like Gecko) Chrome/98.0.4758.102 Safari/537.36",1707,960,1707,849,"main",1846905,10,7,4,"HE","Extreme","Harder than Reference","D","k","safeDeck","riskyDeck",28,0,14,"left",0,0,46,"absent","safeDeck",2379,9931,-1
"12ca06vw3bvp",1153.07142857143,728.730779250656,13608,"01/03/2022@11:57:23","Mozilla/5.0 (Windows NT 10.0; Win64; x64) AppleWebKit/537.36 (KHTML, like Gecko) Chrome/98.0.4758.102 Safari/537.36",1707,960,1707,849,"main",1846905,12,7,4,"EM","Moderate","Easier than Reference","F","j","safeDeck","riskyDeck",-28,0,-14,"right",1,0,4,"present","riskyDeck",2222,933,1
"12ca06vw3bvp",1153.07142857143,728.730779250656,13608,"01/03/2022@11:57:23","Mozilla/5.0 (Windows NT 10.0; Win64; x64) AppleWebKit/537.36 (KHTML, like Gecko) Chrome/98.0.4758.102 Safari/537.36",1707,960,1707,849,"main",1846905,14,7,5,"EE","Extreme","Easier than Reference","D","j","riskyDeck","safeDeck",-14,0,-7,"left",1,1,18,"absent","riskyDeck",2353,8865,-1
"12ca06vw3bvp",1153.07142857143,728.730779250656,13608,"01/03/2022@11:57:23","Mozilla/5.0 (Windows NT 10.0; Win64; x64) AppleWebKit/537.36 (KHTML, like Gecko) Chrome/98.0.4758.102 Safari/537.36",1707,960,1707,849,"main",1846905,16,7,5,"HM","Moderate","Harder than Reference","D","j","safeDeck","riskyDeck",14,0,7,"left",0,0,39,"present","safeDeck",1218,1824,-1
"12ca06vw3bvp",1153.07142857143,728.730779250656,13608,"01/03/2022@11:57:23","Mozilla/5.0 (Windows NT 10.0; Win64; x64) AppleWebKit/537.36 (KHTML, like Gecko) Chrome/98.0.4758.102 Safari/537.36",1707,960,1707,849,"main",1846905,17,8,5,"EM","Moderate","Easier than Reference","D","j","riskyDeck","safeDeck",-28,0,-14,"left",1,0,32,"present","riskyDeck",1382,1292,-1
"12ca06vw3bvp",1153.07142857143,728.730779250656,13608,"01/03/2022@11:57:23","Mozilla/5.0 (Windows NT 10.0; Win64; x64) AppleWebKit/537.36 (KHTML, like Gecko) Chrome/98.0.4758.102 Safari/537.36",1707,960,1707,849,"main",1846905,18,8,5,"EE","Extreme","Easier than Reference","D","j","riskyDeck","safeDeck",0,-14,-7,"left",1,0,18,"present","riskyDeck",868,900,-1
"12ca06vw3bvp",1153.07142857143,728.730779250656,13608,"01/03/2022@11:57:23","Mozilla/5.0 (Windows NT 10.0; Win64; x64) AppleWebKit/537.36 (KHTML, like Gecko) Chrome/98.0.4758.102 Safari/537.36",1707,960,1707,849,"main",1846905,19,8,5,"HE","Extreme","Harder than Reference","D","k","safeDeck","riskyDeck",28,0,14,"left",0,0,46,"absent","safeDeck",1537,10199,-1
"12ca06vw3bvp",1153.07142857143,728.730779250656,13608,"01/03/2022@11:57:23","Mozilla/5.0 (Windows NT 10.0; Win64; x64) AppleWebKit/537.36 (KHTML, like Gecko) Chrome/98.0.4758.102 Safari/537.36",1707,960,1707,849,"main",1846905,20,8,5,"HM","Moderate","Harder than Reference","F","j","riskyDeck","safeDeck",14,0,7,"right",0,0,39,"present","safeDeck",1253,1868,1
"12ca06vw3bvp",1153.07142857143,728.730779250656,13608,"01/03/2022@11:57:23","Mozilla/5.0 (Windows NT 10.0; Win64; x64) AppleWebKit/537.36 (KHTML, like Gecko) Chrome/98.0.4758.102 Safari/537.36",1707,960,1707,849,"main",1846905,21,8,5,"EE","Extreme","Easier than Reference","D","j","riskyDeck","safeDeck",0,-14,-7,"left",1,0,18,"present","riskyDeck",1802,804,-1
"12ca06vw3bvp",1153.07142857143,728.730779250656,13608,"01/03/2022@11:57:23","Mozilla/5.0 (Windows NT 10.0; Win64; x64) AppleWebKit/537.36 (KHTML, like Gecko) Chrome/98.0.4758.102 Safari/537.36",1707,960,1707,849,"main",1846905,22,8,5,"HE","Extreme","Harder than Reference","F","j","riskyDeck","safeDeck",0,28,14,"right",0,0,46,"present","safeDeck",1919,910,1
"12ca06vw3bvp",1153.07142857143,728.730779250656,13608,"01/03/2022@11:57:23","Mozilla/5.0 (Windows NT 10.0; Win64; x64) AppleWebKit/537.36 (KHTML, like Gecko) Chrome/98.0.4758.102 Safari/537.36",1707,960,1707,849,"main",1846905,23,8,5,"EM","Moderate","Easier than Reference","D","k","riskyDeck","safeDeck",0,-28,-14,"left",1,0,4,"absent","riskyDeck",1556,844,-1
"12ca06vw3bvp",1153.07142857143,728.730779250656,13608,"01/03/2022@11:57:23","Mozilla/5.0 (Windows NT 10.0; Win64; x64) AppleWebKit/537.36 (KHTML, like Gecko) Chrome/98.0.4758.102 Safari/537.36",1707,960,1707,849,"main",1846905,24,8,6,"HM","Moderate","Harder than Reference","D","k","safeDeck","riskyDeck",0,14,7,"left",0,0,39,"absent","safeDeck",1147,9979,-1
"12ca06vw3bvp",1153.07142857143,728.730779250656,13608,"01/03/2022@11:57:23","Mozilla/5.0 (Windows NT 10.0; Win64; x64) AppleWebKit/537.36 (KHTML, like Gecko) Chrome/98.0.4758.102 Safari/537.36",1707,960,1707,849,"main",1846905,25,8,6,"EM","Moderate","Easier than Reference","D","j","safeDeck","riskyDeck",-28,0,-14,"left",0,0,18,"present","safeDeck",1369,1793,-1
"12ca06vw3bvp",1153.07142857143,728.730779250656,13608,"01/03/2022@11:57:23","Mozilla/5.0 (Windows NT 10.0; Win64; x64) AppleWebKit/537.36 (KHTML, like Gecko) Chrome/98.0.4758.102 Safari/537.36",1707,960,1707,849,"main",1846905,26,9,6,"HM","Moderate","Harder than Reference","D","k","riskyDeck","safeDeck",0,14,7,"left",1,0,32,"absent","riskyDeck",1668,8594,-1
"12ca06vw3bvp",1153.07142857143,728.730779250656,13608,"01/03/2022@11:57:23","Mozilla/5.0 (Windows NT 10.0; Win64; x64) AppleWebKit/537.36 (KHTML, like Gecko) Chrome/98.0.4758.102 Safari/537.36",1707,960,1707,849,"main",1846905,27,9,6,"EE","Extreme","Easier than Reference","F","k","riskyDeck","safeDeck",-14,0,-7,"right",0,0,25,"absent","safeDeck",1938,4619,1
"12ca06vw3bvp",1153.07142857143,728.730779250656,13608,"01/03/2022@11:57:23","Mozilla/5.0 (Windows NT 10.0; Win64; x64) AppleWebKit/537.36 (KHTML, like Gecko) Chrome/98.0.4758.102 Safari/537.36",1707,960,1707,849,"main",1846905,28,9,6,"HE","Extreme","Harder than Reference","F","k","safeDeck","riskyDeck",0,28,14,"right",1,0,60,"absent","riskyDeck",1360,11539,1
"12ca06vw3bvp",1153.07142857143,728.730779250656,13608,"01/03/2022@11:57:23","Mozilla/5.0 (Windows NT 10.0; Win64; x64) AppleWebKit/537.36 (KHTML, like Gecko) Chrome/98.0.4758.102 Safari/537.36",1707,960,1707,849,"main",1846905,29,9,6,"EE","Extreme","Easier than Reference","D","j","riskyDeck","safeDeck",0,-14,-7,"left",1,0,32,"present","riskyDeck",1399,1731,-1
"12ca06vw3bvp",1153.07142857143,728.730779250656,13608,"01/03/2022@11:57:23","Mozilla/5.0 (Windows NT 10.0; Win64; x64) AppleWebKit/537.36 (KHTML, like Gecko) Chrome/98.0.4758.102 Safari/537.36",1707,960,1707,849,"main",1846905,30,9,7,"HM","Moderate","Harder than Reference","D","k","safeDeck","riskyDeck",14,0,7,"left",0,0,39,"absent","safeDeck",1140,5995,-1
"12ca06vw3bvp",1153.07142857143,728.730779250656,13608,"01/03/2022@11:57:23","Mozilla/5.0 (Windows NT 10.0; Win64; x64) AppleWebKit/537.36 (KHTML, like Gecko) Chrome/98.0.4758.102 Safari/537.36",1707,960,1707,849,"main",1846905,31,9,7,"EM","Moderate","Easier than Reference","F","j","safeDeck","riskyDeck",-28,0,-14,"right",1,0,32,"present","riskyDeck",1508,2506,1
"12ca06vw3bvp",1153.07142857143,728.730779250656,13608,"01/03/2022@11:57:23","Mozilla/5.0 (Windows NT 10.0; Win64; x64) AppleWebKit/537.36 (KHTML, like Gecko) Chrome/98.0.4758.102 Safari/537.36",1707,960,1707,849,"main",1846905,33,10,7,"EM","Moderate","Easier than Reference","F","j","riskyDeck","safeDeck",0,-28,-14,"right",0,0,18,"present","safeDeck",1563,1159,1
"12ca06vw3bvp",1153.07142857143,728.730779250656,13608,"01/03/2022@11:57:23","Mozilla/5.0 (Windows NT 10.0; Win64; x64) AppleWebKit/537.36 (KHTML, like Gecko) Chrome/98.0.4758.102 Safari/537.36",1707,960,1707,849,"main",1846905,34,10,7,"HM","Moderate","Harder than Reference","D","j","riskyDeck","safeDeck",14,0,7,"left",1,0,46,"present","riskyDeck",1740,3368,-1
"12ca06vw3bvp",1153.07142857143,728.730779250656,13608,"01/03/2022@11:57:23","Mozilla/5.0 (Windows NT 10.0; Win64; x64) AppleWebKit/537.36 (KHTML, like Gecko) Chrome/98.0.4758.102 Safari/537.36",1707,960,1707,849,"main",1846905,35,10,7,"EE","Extreme","Easier than Reference","F","k","safeDeck","riskyDeck",0,-14,-7,"right",1,0,32,"absent","riskyDeck",1292,4665,1
"12ca06vw3bvp",1153.07142857143,728.730779250656,13608,"01/03/2022@11:57:23","Mozilla/5.0 (Windows NT 10.0; Win64; x64) AppleWebKit/537.36 (KHTML, like Gecko) Chrome/98.0.4758.102 Safari/537.36",1707,960,1707,849,"main",1846905,37,10,7,"EE","Extreme","Easier than Reference","D","j","riskyDeck","safeDeck",-14,0,-7,"left",1,0,32,"present","riskyDeck",1764,958,-1
"12ca06vw3bvp",1153.07142857143,728.730779250656,13608,"01/03/2022@11:57:23","Mozilla/5.0 (Windows NT 10.0; Win64; x64) AppleWebKit/537.36 (KHTML, like Gecko) Chrome/98.0.4758.102 Safari/537.36",1707,960,1707,849,"main",1846905,38,10,7,"HE","Extreme","Harder than Reference","D","j","riskyDeck","safeDeck",0,28,14,"left",1,0,32,"present","riskyDeck",979,1395,-1
"12ca06vw3bvp",1153.07142857143,728.730779250656,13608,"01/03/2022@11:57:23","Mozilla/5.0 (Windows NT 10.0; Win64; x64) AppleWebKit/537.36 (KHTML, like Gecko) Chrome/98.0.4758.102 Safari/537.36",1707,960,1707,849,"main",1846905,39,10,7,"HM","Moderate","Harder than Reference","D","k","riskyDeck","safeDeck",14,0,7,"left",1,0,32,"absent","riskyDeck",581,3838,-1
"12ca06vw3bvp",1153.07142857143,728.730779250656,13608,"01/03/2022@11:57:23","Mozilla/5.0 (Windows NT 10.0; Win64; x64) AppleWebKit/537.36 (KHTML, like Gecko) Chrome/98.0.4758.102 Safari/537.36",1707,960,1707,849,"main",1846905,40,10,8,"EM","Moderate","Easier than Reference","F","j","safeDeck","riskyDeck",-28,0,-14,"right",1,0,32,"present","riskyDeck",1811,1262,1
"12ca06vw3bvp",1153.07142857143,728.730779250656,13608,"01/03/2022@11:57:23","Mozilla/5.0 (Windows NT 10.0; Win64; x64) AppleWebKit/537.36 (KHTML, like Gecko) Chrome/98.0.4758.102 Safari/537.36",1707,960,1707,849,"main",1846905,41,10,8,"HE","Extreme","Harder than Reference","D","j","riskyDeck","safeDeck",28,0,14,"left",1,0,60,"present","riskyDeck",1420,948,-1
"12ca06vw3bvp",1153.07142857143,728.730779250656,13608,"01/03/2022@11:57:23","Mozilla/5.0 (Windows NT 10.0; Win64; x64) AppleWebKit/537.36 (KHTML, like Gecko) Chrome/98.0.4758.102 Safari/537.36",1707,960,1707,849,"main",1846905,42,10,8,"HM","Moderate","Harder than Reference","F","k","safeDeck","riskyDeck",0,14,7,"right",1,0,32,"absent","riskyDeck",1339,5958,1
"12ca06vw3bvp",1153.07142857143,728.730779250656,13608,"01/03/2022@11:57:23","Mozilla/5.0 (Windows NT 10.0; Win64; x64) AppleWebKit/537.36 (KHTML, like Gecko) Chrome/98.0.4758.102 Safari/537.36",1707,960,1707,849,"main",1846905,43,10,8,"EE","Extreme","Easier than Reference","F","j","riskyDeck","safeDeck",0,-14,-7,"right",0,0,25,"present","safeDeck",1312,889,1
"12ca06vw3bvp",1153.07142857143,728.730779250656,13608,"01/03/2022@11:57:23","Mozilla/5.0 (Windows NT 10.0; Win64; x64) AppleWebKit/537.36 (KHTML, like Gecko) Chrome/98.0.4758.102 Safari/537.36",1707,960,1707,849,"main",1846905,44,11,8,"EM","Moderate","Easier than Reference","F","k","safeDeck","riskyDeck",-28,0,-14,"right",1,0,32,"absent","riskyDeck",1859,4098,1
"12ca06vw3bvp",1153.07142857143,728.730779250656,13608,"01/03/2022@11:57:23","Mozilla/5.0 (Windows NT 10.0; Win64; x64) AppleWebKit/537.36 (KHTML, like Gecko) Chrome/98.0.4758.102 Safari/537.36",1707,960,1707,849,"main",1846905,46,12,9,"HM","Moderate","Harder than Reference","F","k","safeDeck","riskyDeck",0,14,7,"right",1,0,46,"absent","riskyDeck",1115,4300,1
"12ca06vw3bvp",1153.07142857143,728.730779250656,13608,"01/03/2022@11:57:23","Mozilla/5.0 (Windows NT 10.0; Win64; x64) AppleWebKit/537.36 (KHTML, like Gecko) Chrome/98.0.4758.102 Safari/537.36",1707,960,1707,849,"main",1846905,47,12,9,"EE","Extreme","Easier than Reference","D","k","riskyDeck","safeDeck",-14,0,-7,"left",1,0,32,"absent","riskyDeck",1488,4145,-1
"12ca06vw3bvp",1153.07142857143,728.730779250656,13608,"01/03/2022@11:57:23","Mozilla/5.0 (Windows NT 10.0; Win64; x64) AppleWebKit/537.36 (KHTML, like Gecko) Chrome/98.0.4758.102 Safari/537.36",1707,960,1707,849,"main",1846905,48,12,10,"HE","Extreme","Harder than Reference","D","k","safeDeck","riskyDeck",0,28,14,"left",0,0,46,"absent","safeDeck",2499,6170,-1
"12ca06vw3bvp",1153.07142857143,728.730779250656,13608,"01/03/2022@11:57:23","Mozilla/5.0 (Windows NT 10.0; Win64; x64) AppleWebKit/537.36 (KHTML, like Gecko) Chrome/98.0.4758.102 Safari/537.36",1707,960,1707,849,"main",1846905,49,12,10,"EM","Moderate","Easier than Reference","D","j","riskyDeck","safeDeck",0,-28,-14,"left",1,0,32,"present","riskyDeck",1286,1346,-1
"12ca06vw3bvp",1153.07142857143,728.730779250656,13608,"01/03/2022@11:57:23","Mozilla/5.0 (Windows NT 10.0; Win64; x64) AppleWebKit/537.36 (KHTML, like Gecko) Chrome/98.0.4758.102 Safari/537.36",1707,960,1707,849,"main",1846905,50,12,10,"HM","Moderate","Harder than Reference","D","j","riskyDeck","safeDeck",0,14,7,"left",1,0,46,"present","riskyDeck",1273,4739,-1
"12ca06vw3bvp",1153.07142857143,728.730779250656,13608,"01/03/2022@11:57:23","Mozilla/5.0 (Windows NT 10.0; Win64; x64) AppleWebKit/537.36 (KHTML, like Gecko) Chrome/98.0.4758.102 Safari/537.36",1707,960,1707,849,"main",1846905,51,13,10,"EE","Extreme","Easier than Reference","D","j","riskyDeck","safeDeck",0,-14,-7,"left",1,0,32,"present","riskyDeck",915,1414,-1
"12ca06vw3bvp",1153.07142857143,728.730779250656,13608,"01/03/2022@11:57:23","Mozilla/5.0 (Windows NT 10.0; Win64; x64) AppleWebKit/537.36 (KHTML, like Gecko) Chrome/98.0.4758.102 Safari/537.36",1707,960,1707,849,"main",1846905,52,13,10,"HE","Extreme","Harder than Reference","D","j","riskyDeck","safeDeck",0,28,14,"left",1,0,60,"present","riskyDeck",1487,876,-1
"12ca06vw3bvp",1153.07142857143,728.730779250656,13608,"01/03/2022@11:57:23","Mozilla/5.0 (Windows NT 10.0; Win64; x64) AppleWebKit/537.36 (KHTML, like Gecko) Chrome/98.0.4758.102 Safari/537.36",1707,960,1707,849,"main",1846905,53,13,10,"HM","Moderate","Harder than Reference","F","j","safeDeck","riskyDeck",0,14,7,"right",1,0,46,"present","riskyDeck",2056,862,1
"12ca06vw3bvp",1153.07142857143,728.730779250656,13608,"01/03/2022@11:57:23","Mozilla/5.0 (Windows NT 10.0; Win64; x64) AppleWebKit/537.36 (KHTML, like Gecko) Chrome/98.0.4758.102 Safari/537.36",1707,960,1707,849,"main",1846905,54,13,10,"EE","Extreme","Easier than Reference","D","k","riskyDeck","safeDeck",0,-14,-7,"left",1,0,32,"absent","riskyDeck",1434,3654,-1
"12ca06vw3bvp",1153.07142857143,728.730779250656,13608,"01/03/2022@11:57:23","Mozilla/5.0 (Windows NT 10.0; Win64; x64) AppleWebKit/537.36 (KHTML, like Gecko) Chrome/98.0.4758.102 Safari/537.36",1707,960,1707,849,"main",1846905,55,13,10,"EM","Moderate","Easier than Reference","D","j","safeDeck","riskyDeck",-28,0,-14,"left",0,0,18,"present","safeDeck",1468,887,-1
"12ca06vw3bvp",1153.07142857143,728.730779250656,13608,"01/03/2022@11:57:23","Mozilla/5.0 (Windows NT 10.0; Win64; x64) AppleWebKit/537.36 (KHTML, like Gecko) Chrome/98.0.4758.102 Safari/537.36",1707,960,1707,849,"main",1846905,56,13,10,"HE","Extreme","Harder than Reference","F","j","safeDeck","riskyDeck",0,28,14,"right",1,0,32,"present","riskyDeck",1123,1372,1
"12ca06vw3bvp",1153.07142857143,728.730779250656,13608,"01/03/2022@11:57:23","Mozilla/5.0 (Windows NT 10.0; Win64; x64) AppleWebKit/537.36 (KHTML, like Gecko) Chrome/98.0.4758.102 Safari/537.36",1707,960,1707,849,"main",1846905,57,13,10,"HE","Extreme","Harder than Reference","D","j","safeDeck","riskyDeck",28,0,14,"left",0,0,46,"present","safeDeck",1651,1221,-1
"12ca06vw3bvp",1153.07142857143,728.730779250656,13608,"01/03/2022@11:57:23","Mozilla/5.0 (Windows NT 10.0; Win64; x64) AppleWebKit/537.36 (KHTML, like Gecko) Chrome/98.0.4758.102 Safari/537.36",1707,960,1707,849,"main",1846905,58,13,10,"EE","Extreme","Easier than Reference","D","j","riskyDeck","safeDeck",-14,0,-7,"left",1,0,18,"present","riskyDeck",1293,788,-1
"12ca06vw3bvp",1153.07142857143,728.730779250656,13608,"01/03/2022@11:57:23","Mozilla/5.0 (Windows NT 10.0; Win64; x64) AppleWebKit/537.36 (KHTML, like Gecko) Chrome/98.0.4758.102 Safari/537.36",1707,960,1707,849,"main",1846905,59,13,10,"EM","Moderate","Easier than Reference","F","j","safeDeck","riskyDeck",0,-28,-14,"right",1,0,4,"present","riskyDeck",1649,651,1
"12ca06vw3bvp",1153.07142857143,728.730779250656,13608,"01/03/2022@11:57:23","Mozilla/5.0 (Windows NT 10.0; Win64; x64) AppleWebKit/537.36 (KHTML, like Gecko) Chrome/98.0.4758.102 Safari/537.36",1707,960,1707,849,"main",1846905,60,13,10,"HM","Moderate","Harder than Reference","D","j","riskyDeck","safeDeck",0,14,7,"left",1,0,46,"present","riskyDeck",1453,1135,-1
"12ca06vw3bvp",1153.07142857143,728.730779250656,13608,"01/03/2022@11:57:23","Mozilla/5.0 (Windows NT 10.0; Win64; x64) AppleWebKit/537.36 (KHTML, like Gecko) Chrome/98.0.4758.102 Safari/537.36",1707,960,1707,849,"main",1846905,61,13,11,"HM","Moderate","Harder than Reference","D","k","riskyDeck","safeDeck",14,0,7,"left",1,0,32,"absent","riskyDeck",593,4642,-1
"12ca06vw3bvp",1153.07142857143,728.730779250656,13608,"01/03/2022@11:57:23","Mozilla/5.0 (Windows NT 10.0; Win64; x64) AppleWebKit/537.36 (KHTML, like Gecko) Chrome/98.0.4758.102 Safari/537.36",1707,960,1707,849,"main",1846905,62,13,11,"EE","Extreme","Easier than Reference","F","k","safeDeck","riskyDeck",0,-14,-7,"right",1,0,18,"absent","riskyDeck",1573,2441,1
"12ca06vw3bvp",1153.07142857143,728.730779250656,13608,"01/03/2022@11:57:23","Mozilla/5.0 (Windows NT 10.0; Win64; x64) AppleWebKit/537.36 (KHTML, like Gecko) Chrome/98.0.4758.102 Safari/537.36",1707,960,1707,849,"main",1846905,63,13,11,"EM","Moderate","Easier than Reference","F","k","safeDeck","riskyDeck",0,-28,-14,"right",1,0,4,"absent","riskyDeck",1900,819,1
