"subject","trial","magnitude","direction","n_stimuli","n_stimuli_lag","present_or_absent","delay","choice_rt","search_rt","error","ssd"
"07iuiut1t9rh",7,"Moderate","Easier than Reference",4,32,"present","Not Enforced",1001,846,0,0
"07iuiut1t9rh",9,"Moderate","Harder than Reference",39,32,"absent","Not Enforced",969,6181,0,1
"07iuiut1t9rh",10,"Moderate","Easier than Reference",4,39,"present","Not Enforced",891,829,0,0
"07iuiut1t9rh",11,"Extreme","Easier than Reference",18,4,"present","Not Enforced",808,1358,0,0
"07iuiut1t9rh",12,"Extreme","Harder than Reference",32,18,"present","Not Enforced",877,1395,0,0
"07iuiut1t9rh",13,"Moderate","Easier than Reference",4,32,"absent","Not Enforced",701,1336,0,0
"07iuiut1t9rh",14,"Extreme","Easier than Reference",32,4,"present","Not Enforced",605,1132,0,0
"07iuiut1t9rh",15,"Extreme","Harder than Reference",60,32,"absent","Not Enforced",1146,4724,0,0
"07iuiut1t9rh",16,"Moderate","Harder than Reference",46,60,"absent","Not Enforced",793,7789,0,0
"07iuiut1t9rh",17,"Moderate","Harder than Reference",32,46,"present","Not Enforced",638,3332,0,0
"07iuiut1t9rh",18,"Extreme","Easier than Reference",32,32,"absent","Not Enforced",538,4650,0,0
"07iuiut1t9rh",19,"Extreme","Harder than Reference",60,32,"present","Not Enforced",751,7460,0,0
"07iuiut1t9rh",20,"Moderate","Easier than Reference",4,60,"present","Not Enforced",925,831,0,0
"07iuiut1t9rh",21,"Moderate","Harder than Reference",46,4,"absent","Not Enforced",765,7405,0,0
"07iuiut1t9rh",22,"Extreme","Harder than Reference",46,46,"absent","Not Enforced",814,6906,0,1
"07iuiut1t9rh",23,"Extreme","Easier than Reference",18,46,"present","Not Enforced",637,1135,0,0
"07iuiut1t9rh",24,"Moderate","Easier than Reference",4,18,"present","Not Enforced",504,671,0,0
"07iuiut1t9rh",25,"Moderate","Harder than Reference",39,4,"present","Not Enforced",661,1837,0,1
"07iuiut1t9rh",26,"Extreme","Harder than Reference",60,39,"present","Not Enforced",672,8257,1,0
"07iuiut1t9rh",27,"Extreme","Easier than Reference",18,60,"present","Not Enforced",740,2471,0,0
"07iuiut1t9rh",28,"Moderate","Easier than Reference",4,18,"absent","Not Enforced",859,1049,0,0
"07iuiut1t9rh",29,"Moderate","Harder than Reference",32,4,"present","Not Enforced",952,2696,0,0
"07iuiut1t9rh",30,"Extreme","Harder than Reference",60,32,"present","Not Enforced",726,1291,0,0
"07iuiut1t9rh",31,"Extreme","Easier than Reference",32,60,"present","Not Enforced",536,2314,0,0
"07iuiut1t9rh",32,"Moderate","Easier than Reference",4,32,"absent","Not Enforced",833,903,0,0
"07iuiut1t9rh",33,"Extreme","Harder than Reference",32,4,"present","Not Enforced",726,890,0,0
"07iuiut1t9rh",34,"Extreme","Easier than Reference",32,32,"absent","Not Enforced",542,2884,0,0
"07iuiut1t9rh",35,"Moderate","Easier than Reference",4,32,"present","Not Enforced",581,606,0,0
"07iuiut1t9rh",36,"Moderate","Harder than Reference",46,4,"absent","Not Enforced",699,5180,0,0
"07iuiut1t9rh",37,"Moderate","Easier than Reference",32,46,"present","Not Enforced",689,2501,0,0
"07iuiut1t9rh",38,"Extreme","Harder than Reference",60,32,"present","Not Enforced",664,2989,0,0
"07iuiut1t9rh",39,"Moderate","Harder than Reference",32,60,"absent","Not Enforced",891,4866,0,0
"07iuiut1t9rh",40,"Extreme","Easier than Reference",32,32,"absent","Not Enforced",581,4534,0,0
"07iuiut1t9rh",41,"Moderate","Harder than Reference",32,32,"present","Not Enforced",488,1803,1,0
"07iuiut1t9rh",42,"Extreme","Easier than Reference",32,32,"absent","Not Enforced",429,3326,0,0
"07iuiut1t9rh",43,"Extreme","Harder than Reference",60,32,"absent","Not Enforced",584,7077,0,0
"07iuiut1t9rh",46,"Moderate","Easier than Reference",4,18,"present","Not Enforced",583,890,0,0
"07iuiut1t9rh",47,"Moderate","Harder than Reference",46,4,"present","Not Enforced",701,2697,1,0
"07iuiut1t9rh",48,"Extreme","Harder than Reference",60,46,"present","Not Enforced",644,3420,0,0
"07iuiut1t9rh",49,"Moderate","Harder than Reference",46,60,"present","Not Enforced",501,2358,0,0
"07iuiut1t9rh",50,"Extreme","Harder than Reference",32,46,"present","Not Enforced",617,3325,0,0
"07iuiut1t9rh",51,"Extreme","Easier than Reference",18,32,"absent","Not Enforced",832,4655,0,0
"07iuiut1t9rh",52,"Moderate","Easier than Reference",4,18,"present","Not Enforced",447,773,0,0
"07iuiut1t9rh",53,"Extreme","Easier than Reference",18,4,"absent","Not Enforced",541,2433,0,0
"07iuiut1t9rh",54,"Moderate","Harder than Reference",32,18,"absent","Not Enforced",582,2447,0,0
"07iuiut1t9rh",55,"Extreme","Harder than Reference",60,32,"absent","Not Enforced",564,6826,0,0
"07iuiut1t9rh",56,"Moderate","Easier than Reference",32,60,"present","Not Enforced",677,2032,0,0
"07iuiut1t9rh",57,"Moderate","Easier than Reference",32,32,"absent","Not Enforced",462,2253,0,0
"07iuiut1t9rh",58,"Extreme","Harder than Reference",32,32,"present","Not Enforced",666,865,0,0
"07iuiut1t9rh",59,"Extreme","Easier than Reference",32,32,"absent","Not Enforced",537,2679,0,0
"07iuiut1t9rh",60,"Moderate","Harder than Reference",32,32,"absent","Not Enforced",696,3490,0,0
"07iuiut1t9rh",61,"Moderate","Harder than Reference",32,32,"present","Not Enforced",632,1027,0,0
"07iuiut1t9rh",62,"Extreme","Harder than Reference",60,32,"present","Not Enforced",538,1046,0,0
"07iuiut1t9rh",63,"Moderate","Easier than Reference",32,60,"present","Not Enforced",478,943,0,0
"07iuiut1t9rh",64,"Extreme","Easier than Reference",32,32,"present","Not Enforced",465,2975,1,0
"07iuiut1t9rh",65,"Extreme","Easier than Reference",32,32,"present","Not Enforced",677,2861,0,0
"07iuiut1t9rh",66,"Moderate","Harder than Reference",46,32,"present","Not Enforced",461,1697,0,0
"07iuiut1t9rh",67,"Moderate","Easier than Reference",32,46,"absent","Not Enforced",403,4358,0,0
"07iuiut1t9rh",68,"Extreme","Harder than Reference",60,32,"present","Not Enforced",696,2022,0,0
"07iuiut1t9rh",69,"Moderate","Easier than Reference",4,60,"absent","Not Enforced",720,786,0,0
"07iuiut1t9rh",70,"Moderate","Harder than Reference",32,4,"absent","Not Enforced",502,2323,0,0
"07iuiut1t9rh",71,"Extreme","Harder than Reference",60,32,"present","Not Enforced",627,1962,0,0
"07iuiut1t9rh",72,"Extreme","Easier than Reference",32,60,"present","Not Enforced",710,1146,0,0
"07iuiut1t9rh",73,"Extreme","Harder than Reference",60,32,"absent","Not Enforced",814,6288,0,0
"07iuiut1t9rh",74,"Moderate","Easier than Reference",4,60,"absent","Not Enforced",546,872,0,0
"07iuiut1t9rh",75,"Moderate","Harder than Reference",32,4,"present","Not Enforced",569,1773,0,0
"07iuiut1t9rh",76,"Extreme","Easier than Reference",32,32,"absent","Not Enforced",683,3154,0,0
"07iuiut1t9rh",77,"Extreme","Easier than Reference",32,32,"absent","Not Enforced",537,2030,0,0
"07iuiut1t9rh",78,"Moderate","Easier than Reference",32,32,"present","Not Enforced",501,1530,0,0
"07iuiut1t9rh",79,"Moderate","Harder than Reference",32,32,"absent","Not Enforced",638,2717,0,0
"07iuiut1t9rh",80,"Extreme","Harder than Reference",60,32,"absent","Not Enforced",589,6920,0,0
"07iuiut1t9rh",81,"Extreme","Easier than Reference",32,60,"absent","Not Enforced",511,2057,0,0
"07iuiut1t9rh",82,"Moderate","Harder than Reference",46,32,"present","Not Enforced",575,3771,1,0
"07iuiut1t9rh",83,"Moderate","Easier than Reference",4,46,"present","Not Enforced",329,891,0,0
"07iuiut1t9rh",84,"Extreme","Harder than Reference",60,4,"absent","Not Enforced",569,5159,0,0
"07iuiut1t9rh",85,"Moderate","Harder than Reference",32,60,"present","Not Enforced",480,2069,0,0
"07iuiut1t9rh",86,"Moderate","Easier than Reference",4,32,"present","Not Enforced",550,704,0,0
"07iuiut1t9rh",87,"Extreme","Easier than Reference",18,4,"absent","Not Enforced",647,1331,0,0
"07iuiut1t9rh",88,"Extreme","Harder than Reference",46,18,"present","Not Enforced",815,1570,0,1
"07iuiut1t9rh",89,"Moderate","Harder than Reference",46,46,"present","Not Enforced",743,937,0,0
"07iuiut1t9rh",90,"Extreme","Easier than Reference",32,46,"absent","Not Enforced",365,2016,0,0
"07iuiut1t9rh",91,"Extreme","Harder than Reference",32,32,"present","Not Enforced",481,792,0,0
"07iuiut1t9rh",92,"Moderate","Easier than Reference",32,32,"present","Not Enforced",438,869,0,0
"07iuiut1t9rh",93,"Moderate","Easier than Reference",4,32,"present","Not Enforced",416,632,0,0
"07iuiut1t9rh",94,"Extreme","Harder than Reference",60,4,"present","Not Enforced",897,740,0,0
"07iuiut1t9rh",95,"Extreme","Easier than Reference",32,60,"present","Not Enforced",479,2264,1,0
"07iuiut1t9rh",96,"Moderate","Harder than Reference",46,32,"present","Not Enforced",341,2698,0,0
"07iuiut1t9rh",97,"Extreme","Harder than Reference",46,46,"present","Not Enforced",332,5143,1,1
"07iuiut1t9rh",98,"Moderate","Easier than Reference",32,46,"present","Not Enforced",419,1915,0,0
"07iuiut1t9rh",99,"Moderate","Harder than Reference",39,32,"present","Not Enforced",554,1240,0,1
"07iuiut1t9rh",100,"Extreme","Easier than Reference",18,39,"absent","Not Enforced",613,2299,0,0
"07iuiut1t9rh",101,"Moderate","Harder than Reference",32,18,"absent","Not Enforced",326,3502,0,0
"07iuiut1t9rh",102,"Moderate","Easier than Reference",4,32,"absent","Not Enforced",494,1068,0,0
"07iuiut1t9rh",103,"Extreme","Harder than Reference",32,4,"present","Not Enforced",666,887,0,0
"07iuiut1t9rh",104,"Extreme","Easier than Reference",18,32,"present","Not Enforced",521,1235,0,0
"07iuiut1t9rh",105,"Extreme","Harder than Reference",32,18,"present","Not Enforced",473,1002,0,0
"07iuiut1t9rh",106,"Moderate","Easier than Reference",4,32,"absent","Not Enforced",961,752,0,0
"07iuiut1t9rh",107,"Moderate","Harder than Reference",46,4,"absent","Not Enforced",585,5971,0,0
"07iuiut1t9rh",108,"Extreme","Easier than Reference",18,46,"present","Not Enforced",514,1175,0,0
"07iuiut1t9rh",109,"Moderate","Harder than Reference",32,18,"present","Not Enforced",301,711,0,0
"07iuiut1t9rh",110,"Moderate","Easier than Reference",32,32,"present","Not Enforced",598,2389,1,0
"07iuiut1t9rh",112,"Extreme","Easier than Reference",25,32,"present","Not Enforced",327,991,0,1
"07iuiut1t9rh",113,"Extreme","Easier than Reference",32,25,"absent","Not Enforced",488,2645,0,0
"07iuiut1t9rh",114,"Moderate","Easier than Reference",4,32,"present","Not Enforced",379,924,0,0
"07iuiut1t9rh",115,"Moderate","Harder than Reference",46,4,"absent","Not Enforced",400,5879,0,0
"07iuiut1t9rh",116,"Extreme","Harder than Reference",60,46,"absent","Not Enforced",477,3740,0,0
"07iuiut1t9rh",117,"Extreme","Harder than Reference",32,60,"absent","Not Enforced",326,2631,0,0
"07iuiut1t9rh",118,"Moderate","Easier than Reference",4,32,"present","Not Enforced",517,593,0,0
"07iuiut1t9rh",119,"Moderate","Harder than Reference",32,4,"present","Not Enforced",360,965,0,0
"07iuiut1t9rh",120,"Extreme","Easier than Reference",18,32,"absent","Not Enforced",702,1571,0,0
"07iuiut1t9rh",122,"Moderate","Harder than Reference",46,18,"absent","Not Enforced",593,4811,0,0
"07iuiut1t9rh",123,"Extreme","Harder than Reference",32,46,"present","Not Enforced",503,1111,0,0
"07iuiut1t9rh",124,"Extreme","Easier than Reference",32,32,"present","Not Enforced",417,1126,0,0
"07iuiut1t9rh",128,"Moderate","Harder than Reference",46,25,"present","Not Enforced",775,3190,0,0
"07iuiut1t9rh",130,"Extreme","Easier than Reference",25,18,"absent","Not Enforced",349,3652,0,1
"07iuiut1t9rh",131,"Moderate","Harder than Reference",46,25,"absent","Not Enforced",492,6948,0,0
"07iuiut1t9rh",132,"Extreme","Harder than Reference",46,46,"present","Not Enforced",380,1830,0,1
"07iuiut1t9rh",135,"Extreme","Harder than Reference",46,25,"absent","Not Enforced",347,5440,0,1
"07iuiut1t9rh",136,"Moderate","Easier than Reference",4,46,"present","Not Enforced",710,952,0,0
"07iuiut1t9rh",137,"Moderate","Easier than Reference",18,4,"present","Not Enforced",340,919,1,1
"07iuiut1t9rh",139,"Extreme","Easier than Reference",32,46,"present","Not Enforced",327,2962,0,0
"07iuiut1t9rh",140,"Moderate","Harder than Reference",46,32,"present","Not Enforced",521,3319,0,0
"07iuiut1t9rh",141,"Extreme","Harder than Reference",32,46,"absent","Not Enforced",487,4620,0,0
"07iuiut1t9rh",142,"Extreme","Easier than Reference",18,32,"absent","Not Enforced",451,1668,0,0
"07iuiut1t9rh",143,"Moderate","Easier than Reference",4,18,"present","Not Enforced",464,761,0,0
"07iuiut1t9rh",144,"Moderate","Harder than Reference",32,4,"absent","Not Enforced",619,3059,0,0
"07iuiut1t9rh",145,"Moderate","Easier than Reference",32,32,"absent","Not Enforced",923,4140,0,0
"07iuiut1t9rh",146,"Extreme","Easier than Reference",18,32,"present","Not Enforced",435,1184,0,0
"07iuiut1t9rh",147,"Extreme","Harder than Reference",60,18,"absent","Not Enforced",481,6596,1,0
"07iuiut1t9rh",148,"Moderate","Harder than Reference",39,60,"present","Not Enforced",574,899,0,1
"07iuiut1t9rh",149,"Moderate","Easier than Reference",18,39,"absent","Not Enforced",956,1682,0,1
"07iuiut1t9rh",150,"Extreme","Harder than Reference",32,18,"present","Not Enforced",512,842,0,0
"07iuiut1t9rh",151,"Extreme","Easier than Reference",18,32,"absent","Not Enforced",503,1387,0,0
"07iuiut1t9rh",152,"Moderate","Harder than Reference",39,18,"absent","Not Enforced",575,1621,0,1
"07iuiut1t9rh",155,"Extreme","Harder than Reference",46,18,"absent","Not Enforced",573,2628,0,1
"07iuiut1t9rh",160,"Moderate","Easier than Reference",4,46,"absent","Not Enforced",364,694,0,0
"07iuiut1t9rh",161,"Extreme","Harder than Reference",46,4,"absent","Not Enforced",340,3610,0,1
"07iuiut1t9rh",174,"Moderate","Harder than Reference",32,4,"absent","Not Enforced",319,3651,0,0
"07iuiut1t9rh",185,"Extreme","Easier than Reference",32,39,"present","Not Enforced",463,1014,0,0
"07iuiut1t9rh",189,"Extreme","Harder than Reference",32,32,"absent","Not Enforced",487,2677,0,0
"07iuiut1t9rh",198,"Moderate","Harder than Reference",32,4,"absent","Not Enforced",377,1713,0,0
"07iuiut1t9rh",202,"Extreme","Harder than Reference",46,18,"absent","Not Enforced",417,5742,0,1
"07iuiut1t9rh",208,"Extreme","Harder than Reference",60,25,"present","Not Enforced",461,4862,0,0
"07iuiut1t9rh",210,"Extreme","Harder than Reference",46,46,"absent","Not Enforced",338,3274,0,1
"07iuiut1t9rh",211,"Extreme","Easier than Reference",32,46,"present","Not Enforced",466,1646,0,0
"07iuiut1t9rh",212,"Moderate","Easier than Reference",18,32,"absent","Not Enforced",442,1779,0,1
"07iuiut1t9rh",213,"Moderate","Easier than Reference",4,18,"present","Not Enforced",513,640,0,0
"07iuiut1t9rh",214,"Extreme","Easier than Reference",32,4,"present","Not Enforced",596,1222,0,0
"07iuiut1t9rh",215,"Moderate","Harder than Reference",46,32,"absent","Not Enforced",753,6109,0,0
"07iuiut1t9rh",216,"Extreme","Harder than Reference",46,46,"present","Not Enforced",869,2920,0,1
"07iuiut1t9rh",217,"Extreme","Harder than Reference",60,46,"present","Not Enforced",602,4086,1,0
"07iuiut1t9rh",220,"Moderate","Harder than Reference",39,25,"present","Not Enforced",564,1938,1,1
"07iuiut1t9rh",222,"Extreme","Harder than Reference",46,39,"present","Not Enforced",538,1136,0,1
"07iuiut1t9rh",223,"Extreme","Easier than Reference",18,46,"present","Not Enforced",333,691,0,0
"07iuiut1t9rh",224,"Moderate","Easier than Reference",18,18,"present","Not Enforced",512,930,0,1
"07iuiut1t9rh",226,"Extreme","Easier than Reference",25,39,"present","Not Enforced",562,1051,0,1
"07iuiut1t9rh",227,"Extreme","Harder than Reference",46,25,"present","Not Enforced",532,3225,1,1
"07iuiut1t9rh",229,"Extreme","Easier than Reference",25,18,"present","Not Enforced",424,1512,0,1
"07iuiut1t9rh",230,"Moderate","Easier than Reference",4,25,"present","Not Enforced",583,995,0,0
"07iuiut1t9rh",231,"Extreme","Harder than Reference",32,4,"absent","Not Enforced",826,2269,0,0
"07iuiut1t9rh",232,"Moderate","Harder than Reference",46,32,"absent","Not Enforced",528,2629,0,0
"07iuiut1t9rh",233,"Extreme","Easier than Reference",18,46,"present","Not Enforced",759,1298,0,0
"07iuiut1t9rh",234,"Moderate","Harder than Reference",46,18,"absent","Not Enforced",712,3150,0,0
"07iuiut1t9rh",235,"Extreme","Harder than Reference",32,46,"absent","Not Enforced",532,2094,0,0
"07iuiut1t9rh",236,"Moderate","Easier than Reference",32,32,"present","Not Enforced",696,1569,0,0
"07iuiut1t9rh",237,"Extreme","Harder than Reference",32,32,"absent","Not Enforced",643,1576,0,0
"07iuiut1t9rh",238,"Moderate","Easier than Reference",4,32,"absent","Not Enforced",453,717,0,0
"07iuiut1t9rh",239,"Extreme","Easier than Reference",18,4,"present","Not Enforced",515,900,0,0
"07iuiut1t9rh",240,"Moderate","Harder than Reference",32,18,"absent","Not Enforced",621,1517,0,0
"07iuiut1t9rh",241,"Extreme","Easier than Reference",32,32,"absent","Not Enforced",437,1881,0,0
"07iuiut1t9rh",242,"Moderate","Easier than Reference",4,32,"present","Not Enforced",399,721,0,0
"07iuiut1t9rh",243,"Extreme","Harder than Reference",32,4,"present","Not Enforced",690,982,0,0
"07iuiut1t9rh",244,"Moderate","Harder than Reference",32,32,"absent","Not Enforced",449,2112,0,0
"07iuiut1t9rh",245,"Moderate","Harder than Reference",32,32,"absent","Not Enforced",740,2717,0,0
"07iuiut1t9rh",246,"Moderate","Easier than Reference",32,32,"present","Not Enforced",614,1074,0,0
"07iuiut1t9rh",247,"Extreme","Easier than Reference",32,32,"absent","Not Enforced",510,2264,0,0
"07iuiut1t9rh",248,"Extreme","Harder than Reference",60,32,"absent","Not Enforced",628,4225,0,0
"07iuiut1t9rh",249,"Extreme","Harder than Reference",60,60,"present","Not Enforced",722,1892,0,0
"07iuiut1t9rh",250,"Moderate","Harder than Reference",46,60,"absent","Not Enforced",472,3804,0,0
"07iuiut1t9rh",251,"Extreme","Easier than Reference",32,46,"absent","Not Enforced",415,1971,0,0
"07iuiut1t9rh",252,"Moderate","Easier than Reference",32,32,"present","Not Enforced",359,863,0,0
"07iuiut1t9rh",253,"Extreme","Easier than Reference",18,32,"present","Not Enforced",627,856,0,0
"07iuiut1t9rh",254,"Moderate","Harder than Reference",32,18,"absent","Not Enforced",669,1726,0,0
"07iuiut1t9rh",255,"Extreme","Harder than Reference",60,32,"present","Not Enforced",436,2252,0,0
"07iuiut1t9rh",256,"Moderate","Easier than Reference",4,60,"absent","Not Enforced",509,726,0,0
"07iuiut1t9rh",257,"Extreme","Harder than Reference",60,4,"absent","Not Enforced",461,3226,0,0
"07iuiut1t9rh",258,"Extreme","Easier than Reference",18,60,"present","Not Enforced",471,1033,0,0
"07iuiut1t9rh",259,"Moderate","Easier than Reference",4,18,"absent","Not Enforced",569,952,0,0
"07iuiut1t9rh",260,"Moderate","Harder than Reference",32,4,"present","Not Enforced",660,1062,0,0
"07iuiut1t9rh",261,"Extreme","Harder than Reference",32,32,"absent","Not Enforced",684,1170,0,0
"07iuiut1t9rh",262,"Extreme","Easier than Reference",32,32,"absent","Not Enforced",525,1338,0,0
"07iuiut1t9rh",263,"Moderate","Harder than Reference",32,32,"present","Not Enforced",432,1582,0,0
"07iuiut1t9rh",264,"Moderate","Easier than Reference",32,32,"absent","Not Enforced",401,1476,0,0
"07iuiut1t9rh",266,"Moderate","Harder than Reference",32,18,"present","Not Enforced",583,1593,1,0
"07iuiut1t9rh",267,"Extreme","Harder than Reference",32,32,"present","Not Enforced",569,1141,0,0
"07iuiut1t9rh",271,"Extreme","Harder than Reference",32,32,"present","Not Enforced",873,1312,0,0
"07iuiut1t9rh",272,"Extreme","Easier than Reference",32,32,"absent","Not Enforced",730,2109,0,0
"07iuiut1t9rh",273,"Extreme","Harder than Reference",32,32,"present","Not Enforced",433,1068,0,0
"07iuiut1t9rh",274,"Moderate","Easier than Reference",4,32,"absent","Not Enforced",420,661,0,0
"07iuiut1t9rh",275,"Moderate","Harder than Reference",46,4,"absent","Not Enforced",642,2762,0,0
"07iuiut1t9rh",278,"Moderate","Easier than Reference",32,46,"present","Not Enforced",302,1716,0,0
"07iuiut1t9rh",279,"Moderate","Harder than Reference",39,32,"absent","Not Enforced",496,2325,0,1
"07iuiut1t9rh",283,"Extreme","Easier than Reference",18,32,"present","Not Enforced",367,1227,0,0
"07iuiut1t9rh",284,"Moderate","Easier than Reference",32,18,"absent","Not Enforced",515,1662,0,0
"07iuiut1t9rh",286,"Extreme","Harder than Reference",60,18,"absent","Not Enforced",720,3337,0,0
"07iuiut1t9rh",287,"Extreme","Easier than Reference",32,60,"absent","Not Enforced",801,1904,0,0
"07iuiut1t9rh",288,"Moderate","Harder than Reference",32,32,"present","Not Enforced",575,1474,0,0
"07iuiut1t9rh",291,"Extreme","Easier than Reference",18,18,"absent","Not Enforced",460,812,0,0
"07iuiut1t9rh",292,"Extreme","Harder than Reference",60,18,"present","Not Enforced",494,3516,1,0
"07iuiut1t9rh",294,"Moderate","Easier than Reference",32,32,"present","Not Enforced",623,1576,0,0
"07iuiut1t9rh",295,"Extreme","Easier than Reference",18,32,"absent","Not Enforced",502,1534,0,0
"07iuiut1t9rh",296,"Extreme","Harder than Reference",60,18,"present","Not Enforced",631,5364,1,0
"07iuiut1t9rh",301,"Moderate","Easier than Reference",32,18,"present","Not Enforced",484,1914,0,0
"07iuiut1t9rh",302,"Extreme","Easier than Reference",25,32,"present","Not Enforced",305,871,0,1
"07iuiut1t9rh",303,"Extreme","Harder than Reference",32,25,"present","Not Enforced",541,1107,0,0
"07iuiut1t9rh",304,"Moderate","Harder than Reference",32,32,"absent","Not Enforced",687,2724,0,0
"07iuiut1t9rh",305,"Moderate","Easier than Reference",4,32,"absent","Not Enforced",417,898,0,0
"07iuiut1t9rh",306,"Moderate","Harder than Reference",46,4,"present","Not Enforced",651,2244,0,0
"07iuiut1t9rh",307,"Extreme","Easier than Reference",18,46,"present","Not Enforced",526,1461,0,0
"07iuiut1t9rh",308,"Extreme","Harder than Reference",46,18,"present","Not Enforced",612,3019,0,1
"0kpbaqjh4rwi",2,"Extreme","Harder than Reference",46,32,"present","Enforced",2131,3314,1,1
"0kpbaqjh4rwi",3,"Moderate","Harder than Reference",39,46,"present","Enforced",1606,5137,0,1
"0kpbaqjh4rwi",4,"Moderate","Easier than Reference",18,39,"present","Enforced",1670,3696,0,1
"0kpbaqjh4rwi",5,"Moderate","Easier than Reference",18,18,"absent","Enforced",2080,4636,1,1
"0kpbaqjh4rwi",7,"Extreme","Easier than Reference",25,39,"present","Enforced",1991,1462,0,1
"0kpbaqjh4rwi",9,"Extreme","Harder than Reference",46,46,"absent","Enforced",1330,10487,0,1
"0kpbaqjh4rwi",10,"Moderate","Easier than Reference",18,46,"present","Enforced",1080,1105,0,1
"0kpbaqjh4rwi",11,"Moderate","Harder than Reference",39,18,"present","Enforced",627,3812,0,1
"0kpbaqjh4rwi",12,"Extreme","Easier than Reference",25,39,"absent","Enforced",946,4218,0,1
"0kpbaqjh4rwi",13,"Extreme","Harder than Reference",46,25,"present","Enforced",923,2690,0,1
"0kpbaqjh4rwi",14,"Extreme","Easier than Reference",25,46,"present","Enforced",1161,1293,0,1
"0kpbaqjh4rwi",15,"Moderate","Harder than Reference",39,25,"absent","Enforced",572,5804,0,1
"0kpbaqjh4rwi",16,"Moderate","Easier than Reference",18,39,"absent","Enforced",965,3546,0,1
"0kpbaqjh4rwi",17,"Moderate","Harder than Reference",39,18,"absent","Enforced",1310,6813,0,1
"0kpbaqjh4rwi",18,"Extreme","Harder than Reference",46,39,"absent","Enforced",1082,10905,0,1
"0kpbaqjh4rwi",19,"Extreme","Easier than Reference",25,46,"absent","Enforced",1100,4049,0,1
"0kpbaqjh4rwi",20,"Moderate","Easier than Reference",18,25,"absent","Enforced",859,2801,0,1
"0kpbaqjh4rwi",21,"Moderate","Easier than Reference",4,18,"absent","Enforced",1696,1332,0,0
"0kpbaqjh4rwi",22,"Extreme","Harder than Reference",32,4,"present","Enforced",2343,1334,0,0
"0kpbaqjh4rwi",23,"Moderate","Harder than Reference",39,32,"present","Enforced",895,1838,0,1
"0kpbaqjh4rwi",24,"Extreme","Easier than Reference",18,39,"absent","Enforced",1751,2663,0,0
"0kpbaqjh4rwi",25,"Moderate","Easier than Reference",32,18,"absent","Enforced",1845,3895,0,0
"0kpbaqjh4rwi",26,"Extreme","Harder than Reference",46,32,"absent","Enforced",911,5651,0,1
"0kpbaqjh4rwi",27,"Extreme","Easier than Reference",25,46,"absent","Enforced",796,2807,0,1
"0kpbaqjh4rwi",28,"Moderate","Harder than Reference",46,25,"present","Enforced",1386,2787,1,0
"0kpbaqjh4rwi",29,"Extreme","Harder than Reference",46,46,"absent","Enforced",1286,8402,0,1
"0kpbaqjh4rwi",30,"Extreme","Easier than Reference",18,46,"present","Enforced",1062,1152,0,0
"0kpbaqjh4rwi",31,"Moderate","Harder than Reference",39,18,"present","Enforced",1275,1012,0,1
"0kpbaqjh4rwi",32,"Moderate","Easier than Reference",18,39,"absent","Enforced",2260,1740,0,1
"0kpbaqjh4rwi",33,"Extreme","Easier than Reference",25,18,"absent","Enforced",636,2443,0,1
"0kpbaqjh4rwi",34,"Extreme","Harder than Reference",46,25,"present","Enforced",1774,3084,0,1
"0kpbaqjh4rwi",35,"Moderate","Easier than Reference",32,46,"absent","Enforced",1181,5218,0,0
"0kpbaqjh4rwi",36,"Moderate","Harder than Reference",46,32,"absent","Enforced",1847,8799,0,0
"0kpbaqjh4rwi",37,"Moderate","Easier than Reference",32,46,"present","Enforced",679,804,0,0
"0kpbaqjh4rwi",38,"Extreme","Harder than Reference",32,32,"present","Enforced",1077,2077,0,0
"0kpbaqjh4rwi",40,"Moderate","Harder than Reference",32,25,"present","Enforced",1212,678,0,0
"0kpbaqjh4rwi",41,"Extreme","Easier than Reference",25,32,"present","Enforced",378,1305,0,1
"0kpbaqjh4rwi",42,"Extreme","Harder than Reference",60,25,"present","Enforced",1316,4862,0,0
"0kpbaqjh4rwi",43,"Moderate","Easier than Reference",32,60,"present","Enforced",822,785,0,0
"0kpbaqjh4rwi",44,"Moderate","Harder than Reference",32,32,"absent","Enforced",1163,3034,0,0
"0kpbaqjh4rwi",45,"Extreme","Harder than Reference",60,32,"absent","Enforced",961,4611,0,0
"0kpbaqjh4rwi",46,"Moderate","Harder than Reference",39,60,"absent","Enforced",605,4141,0,1
"0kpbaqjh4rwi",47,"Extreme","Easier than Reference",25,39,"present","Enforced",723,2877,0,1
"0kpbaqjh4rwi",48,"Moderate","Easier than Reference",32,25,"absent","Enforced",834,3254,0,0
"0kpbaqjh4rwi",49,"Extreme","Harder than Reference",46,32,"absent","Enforced",1200,6339,0,1
"0kpbaqjh4rwi",50,"Moderate","Harder than Reference",32,46,"present","Enforced",1267,1723,0,0
"0kpbaqjh4rwi",51,"Moderate","Easier than Reference",18,32,"absent","Enforced",1591,2011,0,1
"0kpbaqjh4rwi",52,"Extreme","Easier than Reference",32,18,"present","Enforced",787,739,0,0
"0kpbaqjh4rwi",53,"Extreme","Harder than Reference",32,32,"present","Enforced",830,1202,0,0
"0kpbaqjh4rwi",54,"Moderate","Easier than Reference",18,32,"absent","Enforced",598,1851,0,1
"0kpbaqjh4rwi",55,"Extreme","Easier than Reference",32,18,"absent","Enforced",2140,3941,0,0
"0kpbaqjh4rwi",56,"Moderate","Harder than Reference",39,32,"absent","Enforced",1348,3449,0,1
"0kpbaqjh4rwi",57,"Extreme","Harder than Reference",60,39,"absent","Enforced",1300,6642,0,0
"0kpbaqjh4rwi",58,"Moderate","Harder than Reference",46,60,"absent","Enforced",927,5361,0,0
"0kpbaqjh4rwi",59,"Moderate","Easier than Reference",18,46,"absent","Enforced",1014,1437,0,1
"0kpbaqjh4rwi",60,"Extreme","Easier than Reference",18,18,"absent","Enforced",680,2176,0,0
"0kpbaqjh4rwi",61,"Extreme","Easier than Reference",32,18,"present","Enforced",1529,2876,0,0
"0kpbaqjh4rwi",63,"Extreme","Harder than Reference",60,32,"present","Enforced",441,1784,0,0
"0kpbaqjh4rwi",64,"Moderate","Easier than Reference",4,60,"absent","Enforced",2081,1003,0,0
"0kpbaqjh4rwi",65,"Extreme","Harder than Reference",46,4,"present","Enforced",1397,3472,0,1
"0kpbaqjh4rwi",66,"Moderate","Harder than Reference",39,46,"present","Enforced",2126,1346,0,1
"0kpbaqjh4rwi",67,"Moderate","Easier than Reference",32,39,"absent","Enforced",1221,4367,0,0
"0kpbaqjh4rwi",68,"Extreme","Easier than Reference",25,32,"absent","Enforced",1410,3642,0,1
"0kpbaqjh4rwi",69,"Moderate","Easier than Reference",18,25,"present","Enforced",952,1682,1,1
"0kpbaqjh4rwi",70,"Moderate","Harder than Reference",46,18,"present","Enforced",793,3172,0,0
"0kpbaqjh4rwi",71,"Extreme","Harder than Reference",46,46,"absent","Enforced",548,5898,0,1
"0kpbaqjh4rwi",72,"Extreme","Easier than Reference",32,46,"present","Enforced",1237,1813,0,0
"0kpbaqjh4rwi",73,"Moderate","Easier than Reference",4,32,"present","Enforced",740,614,0,0
"0kpbaqjh4rwi",74,"Moderate","Harder than Reference",39,4,"present","Enforced",1133,1809,0,1
"0kpbaqjh4rwi",75,"Extreme","Easier than Reference",25,39,"absent","Enforced",754,1900,0,1
"0kpbaqjh4rwi",76,"Extreme","Harder than Reference",46,25,"absent","Enforced",1144,3090,0,1
"0kpbaqjh4rwi",78,"Moderate","Easier than Reference",18,18,"absent","Enforced",525,1580,0,1
"0kpbaqjh4rwi",79,"Extreme","Harder than Reference",60,18,"absent","Enforced",1188,4974,0,0
"0kpbaqjh4rwi",80,"Moderate","Harder than Reference",32,60,"present","Enforced",780,627,0,0
"0kpbaqjh4rwi",81,"Extreme","Harder than Reference",32,32,"present","Enforced",1494,972,0,0
"0kpbaqjh4rwi",82,"Moderate","Harder than Reference",46,32,"absent","Enforced",849,2819,0,0
"0kpbaqjh4rwi",83,"Extreme","Easier than Reference",32,46,"absent","Enforced",717,3640,0,0
"0kpbaqjh4rwi",85,"Extreme","Harder than Reference",60,4,"absent","Enforced",993,3788,0,0
"0kpbaqjh4rwi",86,"Extreme","Easier than Reference",18,60,"absent","Enforced",882,3157,0,0
"0kpbaqjh4rwi",87,"Moderate","Harder than Reference",46,18,"absent","Enforced",981,2241,0,0
"0kpbaqjh4rwi",88,"Moderate","Easier than Reference",18,46,"present","Enforced",693,1203,0,1
"0kpbaqjh4rwi",89,"Moderate","Easier than Reference",4,18,"absent","Enforced",741,674,0,0
"0kpbaqjh4rwi",90,"Extreme","Easier than Reference",32,4,"absent","Enforced",911,3099,0,0
"0kpbaqjh4rwi",91,"Moderate","Harder than Reference",39,32,"present","Enforced",2179,1778,0,1
"0kpbaqjh4rwi",92,"Extreme","Harder than Reference",60,39,"absent","Enforced",1369,3078,0,0
"0kpbaqjh4rwi",93,"Moderate","Easier than Reference",4,60,"absent","Enforced",671,581,0,0
"0kpbaqjh4rwi",94,"Extreme","Easier than Reference",32,4,"absent","Enforced",516,2534,0,0
"0kpbaqjh4rwi",95,"Moderate","Harder than Reference",39,32,"present","Enforced",460,1045,0,1
"0kpbaqjh4rwi",96,"Extreme","Harder than Reference",46,39,"absent","Enforced",689,3399,0,1
"0kpbaqjh4rwi",97,"Extreme","Harder than Reference",46,46,"present","Enforced",977,1135,0,1
"0kpbaqjh4rwi",98,"Extreme","Easier than Reference",18,46,"present","Enforced",497,1164,0,0
"0kpbaqjh4rwi",99,"Moderate","Easier than Reference",18,18,"present","Enforced",676,586,0,1
"0kpbaqjh4rwi",100,"Moderate","Harder than Reference",39,18,"present","Enforced",889,2137,0,1
"0kpbaqjh4rwi",101,"Moderate","Harder than Reference",39,39,"present","Enforced",460,984,0,1
"0kpbaqjh4rwi",102,"Moderate","Easier than Reference",18,39,"absent","Enforced",574,2217,0,1
"0kpbaqjh4rwi",103,"Extreme","Easier than Reference",18,18,"absent","Enforced",843,2753,0,0
"0kpbaqjh4rwi",104,"Extreme","Harder than Reference",46,18,"present","Enforced",841,1911,0,1
"0kpbaqjh4rwi",105,"Extreme","Harder than Reference",46,46,"absent","Enforced",640,3245,0,1
"0kpbaqjh4rwi",106,"Extreme","Easier than Reference",25,46,"present","Enforced",500,1056,0,1
"0kpbaqjh4rwi",107,"Moderate","Harder than Reference",32,25,"present","Enforced",701,1921,0,0
"0kpbaqjh4rwi",108,"Moderate","Easier than Reference",4,32,"absent","Enforced",960,564,0,0
"0kpbaqjh4rwi",109,"Extreme","Harder than Reference",46,4,"present","Enforced",535,1425,0,1
"0kpbaqjh4rwi",110,"Extreme","Easier than Reference",32,46,"present","Enforced",611,2485,0,0
"0kpbaqjh4rwi",111,"Moderate","Harder than Reference",32,32,"present","Enforced",1411,1241,0,0
"0kpbaqjh4rwi",112,"Moderate","Easier than Reference",4,32,"present","Enforced",1252,729,0,0
"0kpbaqjh4rwi",113,"Extreme","Harder than Reference",60,4,"present","Enforced",1303,3700,0,0
"0kpbaqjh4rwi",114,"Extreme","Easier than Reference",25,60,"present","Enforced",488,1078,0,1
"0kpbaqjh4rwi",116,"Moderate","Easier than Reference",18,46,"present","Enforced",436,910,0,1
"0kpbaqjh4rwi",117,"Extreme","Harder than Reference",46,18,"present","Enforced",786,749,0,1
"0kpbaqjh4rwi",118,"Extreme","Easier than Reference",18,46,"present","Enforced",456,1612,0,0
"0kpbaqjh4rwi",119,"Moderate","Easier than Reference",18,18,"absent","Enforced",623,617,1,1
"0kpbaqjh4rwi",120,"Moderate","Harder than Reference",39,18,"present","Enforced",1089,2819,0,1
"0kpbaqjh4rwi",121,"Extreme","Harder than Reference",46,39,"absent","Enforced",652,3330,0,1
"0kpbaqjh4rwi",122,"Extreme","Easier than Reference",18,46,"absent","Enforced",766,2165,0,0
"0kpbaqjh4rwi",123,"Moderate","Harder than Reference",32,18,"present","Enforced",689,1643,0,0
"0kpbaqjh4rwi",124,"Moderate","Easier than Reference",18,32,"absent","Enforced",490,2159,0,1
"0kpbaqjh4rwi",125,"Moderate","Harder than Reference",39,18,"absent","Enforced",692,2526,0,1
"0kpbaqjh4rwi",126,"Extreme","Harder than Reference",46,39,"present","Enforced",440,1478,1,1
"0kpbaqjh4rwi",127,"Extreme","Easier than Reference",32,46,"absent","Enforced",380,2932,0,0
"0kpbaqjh4rwi",128,"Moderate","Easier than Reference",4,32,"absent","Enforced",1022,1488,0,0
"0kpbaqjh4rwi",129,"Moderate","Easier than Reference",32,4,"absent","Enforced",857,2528,0,0
"0kpbaqjh4rwi",130,"Extreme","Harder than Reference",32,32,"absent","Enforced",393,2518,0,0
"0kpbaqjh4rwi",131,"Moderate","Harder than Reference",39,32,"absent","Enforced",1271,1614,0,1
"0kpbaqjh4rwi",132,"Extreme","Easier than Reference",18,39,"present","Enforced",674,1289,0,0
"0kpbaqjh4rwi",133,"Extreme","Easier than Reference",32,18,"absent","Enforced",632,1945,0,0
"0kpbaqjh4rwi",134,"Extreme","Harder than Reference",32,32,"present","Enforced",778,1663,0,0
"0kpbaqjh4rwi",135,"Moderate","Harder than Reference",39,32,"present","Enforced",1283,1483,0,1
"0kpbaqjh4rwi",136,"Moderate","Easier than Reference",32,39,"absent","Enforced",322,3291,0,0
"0kpbaqjh4rwi",137,"Moderate","Easier than Reference",32,32,"absent","Enforced",516,2476,0,0
"0kpbaqjh4rwi",138,"Extreme","Harder than Reference",46,32,"present","Enforced",971,1791,0,1
"0kpbaqjh4rwi",139,"Extreme","Easier than Reference",18,46,"absent","Enforced",628,2532,0,0
"0kpbaqjh4rwi",140,"Moderate","Harder than Reference",46,18,"absent","Enforced",463,4231,0,0
"0kpbaqjh4rwi",141,"Extreme","Easier than Reference",25,46,"present","Enforced",659,1273,0,1
"0kpbaqjh4rwi",142,"Moderate","Easier than Reference",32,25,"absent","Enforced",601,3365,0,0
"0kpbaqjh4rwi",143,"Moderate","Harder than Reference",46,32,"absent","Enforced",988,3380,0,0
"0kpbaqjh4rwi",144,"Extreme","Harder than Reference",46,46,"absent","Enforced",760,4346,0,1
"0kpbaqjh4rwi",145,"Extreme","Harder than Reference",46,46,"absent","Enforced",568,2846,0,1
"0kpbaqjh4rwi",146,"Extreme","Easier than Reference",18,46,"present","Enforced",1891,1260,0,0
"0kpbaqjh4rwi",147,"Moderate","Harder than Reference",39,18,"absent","Enforced",1393,4417,0,1
"0kpbaqjh4rwi",148,"Moderate","Easier than Reference",32,39,"present","Enforced",578,1867,0,0
"0kpbaqjh4rwi",149,"Extreme","Harder than Reference",32,32,"present","Enforced",479,1177,0,0
"0kpbaqjh4rwi",150,"Extreme","Easier than Reference",18,32,"absent","Enforced",500,1269,0,0
"0kpbaqjh4rwi",151,"Moderate","Harder than Reference",39,18,"present","Enforced",705,2250,0,1
"0kpbaqjh4rwi",152,"Moderate","Easier than Reference",4,39,"absent","Enforced",509,562,0,0
"0t2cabu4h4y",4,"Extreme","Easier than Reference",25,46,"present","Not Enforced",1507,3766,0,1
"0t2cabu4h4y",6,"Extreme","Harder than Reference",32,18,"absent","Not Enforced",1246,4369,0,0
"0t2cabu4h4y",7,"Moderate","Easier than Reference",4,32,"absent","Not Enforced",1496,1478,0,0
"0t2cabu4h4y",9,"Moderate","Easier than Reference",18,32,"present","Not Enforced",1365,1612,0,1
"0t2cabu4h4y",11,"Extreme","Easier than Reference",25,46,"absent","Not Enforced",1085,3304,0,1
"0t2cabu4h4y",12,"Extreme","Harder than Reference",32,25,"present","Not Enforced",1572,2887,0,0
"0t2cabu4h4y",13,"Moderate","Harder than Reference",32,32,"absent","Not Enforced",889,5598,0,0
"0t2cabu4h4y",15,"Extreme","Easier than Reference",25,32,"present","Not Enforced",1383,2658,0,1
"0t2cabu4h4y",16,"Moderate","Easier than Reference",18,25,"present","Not Enforced",1224,870,0,1
"0t2cabu4h4y",17,"Extreme","Easier than Reference",25,18,"present","Not Enforced",899,2302,0,1
"0t2cabu4h4y",19,"Extreme","Harder than Reference",60,32,"present","Not Enforced",1109,890,0,0
"0t2cabu4h4y",20,"Moderate","Easier than Reference",32,60,"present","Not Enforced",1456,1059,0,0
"0t2cabu4h4y",21,"Extreme","Harder than Reference",32,32,"absent","Not Enforced",1229,4666,0,0
"0t2cabu4h4y",22,"Extreme","Easier than Reference",32,32,"present","Not Enforced",1147,4321,1,0
"0t2cabu4h4y",24,"Moderate","Easier than Reference",18,46,"absent","Not Enforced",671,2395,0,1
"0t2cabu4h4y",25,"Extreme","Easier than Reference",32,18,"present","Not Enforced",1330,2576,0,0
"0t2cabu4h4y",26,"Extreme","Harder than Reference",32,32,"absent","Not Enforced",1507,3411,0,0
"0t2cabu4h4y",27,"Moderate","Easier than Reference",18,32,"absent","Not Enforced",1319,2498,0,1
"0t2cabu4h4y",28,"Moderate","Harder than Reference",39,18,"present","Not Enforced",1171,1325,0,1
"0t2cabu4h4y",29,"Extreme","Easier than Reference",25,39,"absent","Not Enforced",1226,3918,0,1
"0t2cabu4h4y",30,"Extreme","Harder than Reference",32,25,"absent","Not Enforced",1286,3431,0,0
"0t2cabu4h4y",31,"Moderate","Easier than Reference",18,32,"present","Not Enforced",1400,1132,0,1
"0t2cabu4h4y",32,"Moderate","Harder than Reference",32,18,"absent","Not Enforced",913,3879,0,0
"0t2cabu4h4y",33,"Extreme","Harder than Reference",32,32,"present","Not Enforced",1296,3069,0,0
"0t2cabu4h4y",34,"Moderate","Harder than Reference",32,32,"present","Not Enforced",1368,1695,0,0
"0t2cabu4h4y",35,"Extreme","Easier than Reference",25,32,"absent","Not Enforced",1029,3192,0,1
"0t2cabu4h4y",36,"Moderate","Easier than Reference",18,25,"absent","Not Enforced",1135,2063,0,1
"0t2cabu4h4y",37,"Moderate","Harder than Reference",32,18,"present","Not Enforced",858,2500,0,0
"0t2cabu4h4y",38,"Moderate","Easier than Reference",18,32,"present","Not Enforced",723,572,0,1
"0t2cabu4h4y",39,"Extreme","Easier than Reference",18,18,"present","Not Enforced",1101,1056,0,0
"0t2cabu4h4y",40,"Extreme","Harder than Reference",60,18,"absent","Not Enforced",1095,5265,0,0
"0t2cabu4h4y",41,"Moderate","Harder than Reference",46,60,"absent","Not Enforced",1159,4506,0,0
"0t2cabu4h4y",42,"Extreme","Harder than Reference",32,46,"absent","Not Enforced",1207,3492,0,0
"0t2cabu4h4y",43,"Moderate","Easier than Reference",18,32,"present","Not Enforced",946,1150,0,1
"0t2cabu4h4y",44,"Extreme","Easier than Reference",25,18,"present","Not Enforced",1194,1308,0,1
"0t2cabu4h4y",45,"Extreme","Harder than Reference",32,25,"absent","Not Enforced",1212,3232,0,0
"0t2cabu4h4y",46,"Extreme","Easier than Reference",25,32,"absent","Not Enforced",854,3153,0,1
"0t2cabu4h4y",47,"Moderate","Harder than Reference",46,25,"absent","Not Enforced",705,2734,0,0
"0t2cabu4h4y",48,"Moderate","Easier than Reference",18,46,"present","Not Enforced",580,1096,0,1
"0t2cabu4h4y",50,"Extreme","Easier than Reference",25,32,"absent","Not Enforced",1218,2177,0,1
"0t2cabu4h4y",51,"Extreme","Harder than Reference",60,25,"absent","Not Enforced",992,3700,0,0
"0t2cabu4h4y",52,"Moderate","Harder than Reference",46,60,"present","Not Enforced",1076,2585,0,0
"0t2cabu4h4y",53,"Moderate","Easier than Reference",18,46,"absent","Not Enforced",695,2018,0,1
"0t2cabu4h4y",54,"Extreme","Harder than Reference",60,18,"absent","Not Enforced",981,4050,0,0
"0t2cabu4h4y",55,"Moderate","Harder than Reference",46,60,"absent","Not Enforced",1381,4211,0,0
"0t2cabu4h4y",56,"Extreme","Easier than Reference",25,46,"present","Not Enforced",599,1097,0,1
"0t2cabu4h4y",57,"Moderate","Easier than Reference",18,25,"present","Not Enforced",456,990,0,1
"0t2cabu4h4y",58,"Moderate","Harder than Reference",46,18,"present","Not Enforced",950,2789,0,0
"0t2cabu4h4y",59,"Extreme","Harder than Reference",32,46,"absent","Not Enforced",819,4658,0,0
"0t2cabu4h4y",60,"Extreme","Easier than Reference",25,32,"absent","Not Enforced",472,2480,0,1
"0t2cabu4h4y",61,"Moderate","Easier than Reference",32,25,"present","Not Enforced",477,880,0,0
"0t2cabu4h4y",62,"Moderate","Harder than Reference",32,32,"present","Not Enforced",801,3425,1,0
"0t2cabu4h4y",63,"Extreme","Easier than Reference",18,32,"absent","Not Enforced",778,2968,0,0
"0t2cabu4h4y",64,"Extreme","Harder than Reference",32,18,"absent","Not Enforced",896,5288,0,0
"0t2cabu4h4y",65,"Moderate","Easier than Reference",18,32,"present","Not Enforced",814,1206,0,1
"0t2cabu4h4y",66,"Extreme","Harder than Reference",32,18,"present","Not Enforced",635,1391,1,0
"0t2cabu4h4y",67,"Moderate","Harder than Reference",32,32,"present","Not Enforced",751,975,0,0
"0t2cabu4h4y",68,"Extreme","Easier than Reference",32,32,"absent","Not Enforced",441,2821,0,0
"0t2cabu4h4y",69,"Extreme","Harder than Reference",60,32,"present","Not Enforced",959,5149,1,0
"0t2cabu4h4y",70,"Moderate","Easier than Reference",18,60,"present","Not Enforced",999,2018,0,1
"0t2cabu4h4y",71,"Extreme","Easier than Reference",25,18,"present","Not Enforced",1143,2611,0,1
"0t2cabu4h4y",72,"Moderate","Harder than Reference",46,25,"absent","Not Enforced",1226,3384,0,0
"0t2cabu4h4y",73,"Extreme","Easier than Reference",25,46,"present","Not Enforced",1015,703,0,1
"0t2cabu4h4y",74,"Moderate","Harder than Reference",39,25,"present","Not Enforced",1041,1508,0,1
"0t2cabu4h4y",75,"Extreme","Harder than Reference",60,39,"absent","Not Enforced",926,3956,0,0
"0t2cabu4h4y",76,"Moderate","Easier than Reference",18,60,"absent","Not Enforced",708,3517,0,1
"0t2cabu4h4y",77,"Moderate","Harder than Reference",32,18,"absent","Not Enforced",995,3748,0,0
"0t2cabu4h4y",78,"Moderate","Easier than Reference",4,32,"absent","Not Enforced",892,1000,0,0
"0t2cabu4h4y",79,"Extreme","Easier than Reference",18,4,"absent","Not Enforced",1338,2806,0,0
"0t2cabu4h4y",80,"Extreme","Harder than Reference",32,18,"absent","Not Enforced",812,3290,0,0
"0t2cabu4h4y",81,"Moderate","Harder than Reference",39,32,"present","Not Enforced",866,2655,0,1
"0t2cabu4h4y",82,"Moderate","Easier than Reference",18,39,"present","Not Enforced",703,1020,0,1
"0t2cabu4h4y",83,"Extreme","Easier than Reference",32,18,"absent","Not Enforced",887,3342,0,0
"0t2cabu4h4y",84,"Extreme","Harder than Reference",32,32,"present","Not Enforced",634,2564,1,0
"0t2cabu4h4y",85,"Moderate","Easier than Reference",18,32,"present","Not Enforced",812,922,0,1
"0t2cabu4h4y",86,"Extreme","Harder than Reference",60,18,"absent","Not Enforced",1057,6748,0,0
"0t2cabu4h4y",87,"Extreme","Easier than Reference",32,60,"absent","Not Enforced",781,3525,0,0
"0t2cabu4h4y",88,"Moderate","Harder than Reference",39,32,"present","Not Enforced",663,3437,0,1
"0t2cabu4h4y",89,"Moderate","Easier than Reference",18,39,"absent","Not Enforced",1359,1717,0,1
"0t2cabu4h4y",90,"Extreme","Harder than Reference",32,18,"absent","Not Enforced",635,5527,0,0
"0t2cabu4h4y",91,"Extreme","Easier than Reference",18,32,"absent","Not Enforced",665,2352,0,0
"0t2cabu4h4y",92,"Moderate","Harder than Reference",32,18,"absent","Not Enforced",863,4214,0,0
"0t2cabu4h4y",93,"Moderate","Harder than Reference",32,32,"present","Not Enforced",748,2462,0,0
"0t2cabu4h4y",94,"Moderate","Easier than Reference",32,32,"absent","Not Enforced",457,4224,0,0
"0t2cabu4h4y",95,"Extreme","Harder than Reference",60,32,"absent","Not Enforced",540,7233,0,0
"0t2cabu4h4y",96,"Extreme","Easier than Reference",32,60,"absent","Not Enforced",882,4840,0,0
"0t2cabu4h4y",97,"Extreme","Easier than Reference",18,32,"present","Not Enforced",587,899,0,0
"0t2cabu4h4y",98,"Extreme","Harder than Reference",60,18,"present","Not Enforced",729,1913,0,0
"0t2cabu4h4y",99,"Moderate","Harder than Reference",46,60,"absent","Not Enforced",1122,5517,0,0
"0t2cabu4h4y",100,"Moderate","Easier than Reference",32,46,"absent","Not Enforced",554,3844,0,0
"0t2cabu4h4y",101,"Moderate","Easier than Reference",4,32,"absent","Not Enforced",679,1087,0,0
"0t2cabu4h4y",102,"Extreme","Easier than Reference",32,4,"present","Not Enforced",739,2345,0,0
"0t2cabu4h4y",103,"Extreme","Harder than Reference",60,32,"absent","Not Enforced",682,1475,0,0
"0t2cabu4h4y",104,"Moderate","Harder than Reference",32,60,"present","Not Enforced",836,1163,0,0
"0t2cabu4h4y",105,"Extreme","Harder than Reference",60,32,"absent","Not Enforced",506,4412,0,0
"0t2cabu4h4y",106,"Extreme","Easier than Reference",32,60,"present","Not Enforced",527,1585,0,0
"0t2cabu4h4y",107,"Moderate","Easier than Reference",4,32,"present","Not Enforced",433,1222,0,0
"0t2cabu4h4y",108,"Moderate","Harder than Reference",46,4,"present","Not Enforced",671,1980,0,0
"0t2cabu4h4y",109,"Moderate","Harder than Reference",46,46,"absent","Not Enforced",490,2733,0,0
"0t2cabu4h4y",110,"Extreme","Harder than Reference",32,46,"absent","Not Enforced",491,2510,0,0
"0t2cabu4h4y",111,"Extreme","Easier than Reference",32,32,"absent","Not Enforced",804,3079,0,0
"0t2cabu4h4y",112,"Moderate","Easier than Reference",4,32,"present","Not Enforced",505,627,0,0
"0t2cabu4h4y",113,"Moderate","Harder than Reference",46,4,"present","Not Enforced",473,4401,1,0
"0t2cabu4h4y",114,"Moderate","Easier than Reference",4,46,"present","Not Enforced",569,658,0,0
"0t2cabu4h4y",115,"Extreme","Harder than Reference",60,4,"present","Not Enforced",664,2391,0,0
"0t2cabu4h4y",116,"Extreme","Easier than Reference",18,60,"present","Not Enforced",656,1109,0,0
"0t2cabu4h4y",117,"Moderate","Harder than Reference",46,18,"absent","Not Enforced",413,3565,0,0
"0t2cabu4h4y",118,"Extreme","Harder than Reference",32,46,"absent","Not Enforced",603,3745,0,0
"0t2cabu4h4y",119,"Extreme","Easier than Reference",18,32,"present","Not Enforced",489,2234,0,0
"0t2cabu4h4y",120,"Moderate","Easier than Reference",4,18,"present","Not Enforced",1086,678,0,0
"0t2cabu4h4y",121,"Moderate","Easier than Reference",4,4,"absent","Not Enforced",721,857,0,0
"0t2cabu4h4y",122,"Extreme","Harder than Reference",32,4,"absent","Not Enforced",645,2284,0,0
"0t2cabu4h4y",123,"Extreme","Easier than Reference",18,32,"present","Not Enforced",651,2405,1,0
"0t2cabu4h4y",124,"Moderate","Harder than Reference",46,18,"absent","Not Enforced",1185,2903,0,0
"0t2cabu4h4y",125,"Extreme","Harder than Reference",60,46,"absent","Not Enforced",663,2969,0,0
"0t2cabu4h4y",126,"Moderate","Harder than Reference",32,60,"present","Not Enforced",451,919,0,0
"0t2cabu4h4y",127,"Moderate","Easier than Reference",32,32,"absent","Not Enforced",478,2465,0,0
"0t2cabu4h4y",128,"Extreme","Easier than Reference",18,32,"present","Not Enforced",556,2151,0,0
"0t2cabu4h4y",129,"Moderate","Easier than Reference",32,18,"present","Not Enforced",461,1636,0,0
"0t2cabu4h4y",130,"Extreme","Easier than Reference",18,32,"absent","Not Enforced",584,2604,0,0
"0t2cabu4h4y",131,"Moderate","Harder than Reference",32,18,"absent","Not Enforced",520,2279,0,0
"0t2cabu4h4y",132,"Extreme","Harder than Reference",60,32,"absent","Not Enforced",460,3376,0,0
"0t2cabu4h4y",133,"Moderate","Harder than Reference",32,60,"absent","Not Enforced",927,2591,0,0
"0t2cabu4h4y",134,"Moderate","Easier than Reference",4,32,"present","Not Enforced",574,554,0,0
"0t2cabu4h4y",135,"Extreme","Harder than Reference",60,4,"present","Not Enforced",504,4442,1,0
"0t2cabu4h4y",136,"Extreme","Easier than Reference",32,60,"present","Not Enforced",591,1063,0,0
"0t2cabu4h4y",137,"Extreme","Easier than Reference",32,32,"present","Not Enforced",515,2123,0,0
"0t2cabu4h4y",138,"Moderate","Easier than Reference",4,32,"absent","Not Enforced",624,1483,0,0
"0t2cabu4h4y",139,"Moderate","Harder than Reference",46,4,"absent","Not Enforced",611,3246,0,0
"0t2cabu4h4y",140,"Extreme","Harder than Reference",32,46,"present","Not Enforced",461,1316,0,0
"0t2cabu4h4y",141,"Extreme","Easier than Reference",18,32,"present","Not Enforced",301,1917,0,0
"0t2cabu4h4y",142,"Moderate","Harder than Reference",46,18,"absent","Not Enforced",582,3958,0,0
"0t2cabu4h4y",143,"Extreme","Harder than Reference",32,46,"absent","Not Enforced",430,2081,0,0
"0t2cabu4h4y",144,"Moderate","Easier than Reference",4,32,"present","Not Enforced",380,569,0,0
"0t2cabu4h4y",145,"Moderate","Harder than Reference",46,4,"present","Not Enforced",837,2008,0,0
"0t2cabu4h4y",147,"Extreme","Easier than Reference",18,32,"present","Not Enforced",611,1863,0,0
"0t2cabu4h4y",148,"Moderate","Easier than Reference",32,18,"absent","Not Enforced",539,3651,0,0
"0t2cabu4h4y",150,"Moderate","Easier than Reference",18,46,"absent","Not Enforced",1068,2216,0,1
"0t2cabu4h4y",151,"Extreme","Easier than Reference",25,18,"absent","Not Enforced",572,2654,0,1
"0t2cabu4h4y",152,"Moderate","Harder than Reference",46,25,"absent","Not Enforced",1053,1856,0,0
"0t2cabu4h4y",153,"Extreme","Harder than Reference",32,46,"present","Not Enforced",587,2058,0,0
"0t2cabu4h4y",154,"Moderate","Easier than Reference",4,32,"absent","Not Enforced",1361,856,0,0
"0t2cabu4h4y",155,"Extreme","Easier than Reference",32,4,"absent","Not Enforced",777,2326,0,0
"0t2cabu4h4y",156,"Moderate","Harder than Reference",39,32,"absent","Not Enforced",660,2146,0,1
"0t2cabu4h4y",157,"Extreme","Easier than Reference",32,39,"present","Not Enforced",598,2683,1,0
"0t2cabu4h4y",158,"Moderate","Easier than Reference",32,32,"present","Not Enforced",794,2576,0,0
"0t2cabu4h4y",159,"Extreme","Harder than Reference",32,32,"absent","Not Enforced",410,2721,0,0
"0t2cabu4h4y",160,"Moderate","Harder than Reference",39,32,"present","Not Enforced",918,1976,0,1
"0t2cabu4h4y",161,"Moderate","Easier than Reference",18,39,"absent","Not Enforced",573,1617,0,1
"0t2cabu4h4y",162,"Extreme","Easier than Reference",18,18,"present","Not Enforced",433,967,0,0
"0t2cabu4h4y",163,"Extreme","Harder than Reference",46,18,"absent","Not Enforced",744,2830,0,1
"0t2cabu4h4y",164,"Moderate","Harder than Reference",39,46,"absent","Not Enforced",1069,2046,0,1
"0t2cabu4h4y",165,"Extreme","Harder than Reference",46,39,"present","Not Enforced",799,2903,0,1
"0t2cabu4h4y",166,"Extreme","Easier than Reference",32,46,"present","Not Enforced",832,1229,0,0
"0t2cabu4h4y",167,"Moderate","Easier than Reference",32,32,"absent","Not Enforced",629,2426,0,0
"0t2cabu4h4y",168,"Moderate","Harder than Reference",32,32,"present","Not Enforced",1176,1942,0,0
"0t2cabu4h4y",169,"Moderate","Easier than Reference",32,32,"absent","Not Enforced",602,3436,0,0
"0t2cabu4h4y",170,"Moderate","Harder than Reference",39,32,"absent","Not Enforced",771,4918,0,1
"0t2cabu4h4y",171,"Extreme","Harder than Reference",32,39,"absent","Not Enforced",388,2631,0,0
"0t2cabu4h4y",172,"Extreme","Easier than Reference",18,32,"absent","Not Enforced",469,1669,0,0
"0t2cabu4h4y",173,"Moderate","Harder than Reference",46,18,"absent","Not Enforced",574,2892,0,0
"0t2cabu4h4y",174,"Extreme","Easier than Reference",32,46,"absent","Not Enforced",682,3256,0,0
"0t2cabu4h4y",175,"Extreme","Harder than Reference",32,32,"present","Not Enforced",1065,1216,0,0
"0t2cabu4h4y",176,"Moderate","Easier than Reference",4,32,"absent","Not Enforced",460,755,0,0
"0t2cabu4h4y",177,"Extreme","Easier than Reference",25,4,"absent","Not Enforced",1129,2054,0,1
"0t2cabu4h4y",178,"Moderate","Harder than Reference",46,25,"absent","Not Enforced",936,4373,0,0
"0t2cabu4h4y",179,"Extreme","Harder than Reference",60,46,"present","Not Enforced",588,1893,0,0
"0t2cabu4h4y",180,"Moderate","Easier than Reference",18,60,"absent","Not Enforced",506,3089,0,1
"0t2cabu4h4y",181,"Moderate","Easier than Reference",4,18,"absent","Not Enforced",553,745,0,0
"0t2cabu4h4y",182,"Moderate","Harder than Reference",32,4,"absent","Not Enforced",662,2342,0,0
"0t2cabu4h4y",183,"Extreme","Harder than Reference",32,32,"absent","Not Enforced",512,1501,0,0
"0t2cabu4h4y",184,"Extreme","Easier than Reference",18,32,"absent","Not Enforced",503,1515,0,0
"0t2cabu4h4y",185,"Moderate","Easier than Reference",32,18,"absent","Not Enforced",977,3031,0,0
"0t2cabu4h4y",186,"Moderate","Harder than Reference",32,32,"present","Not Enforced",699,770,0,0
"0t2cabu4h4y",187,"Extreme","Easier than Reference",32,32,"absent","Not Enforced",672,2135,0,0
"0t2cabu4h4y",188,"Extreme","Harder than Reference",32,32,"present","Not Enforced",527,1050,0,0
"0t2cabu4h4y",189,"Moderate","Easier than Reference",32,32,"absent","Not Enforced",396,2169,0,0
"0t2cabu4h4y",190,"Moderate","Harder than Reference",46,32,"present","Not Enforced",889,723,0,0
"0t2cabu4h4y",191,"Extreme","Harder than Reference",32,46,"absent","Not Enforced",777,1971,0,0
"0t2cabu4h4y",192,"Extreme","Easier than Reference",18,32,"absent","Not Enforced",708,2090,0,0
"0t2cabu4h4y",193,"Moderate","Easier than Reference",32,18,"absent","Not Enforced",658,2124,0,0
"0t2cabu4h4y",194,"Extreme","Easier than Reference",32,32,"absent","Not Enforced",617,3070,0,0
"0t2cabu4h4y",195,"Extreme","Harder than Reference",32,32,"absent","Not Enforced",353,1588,0,0
"0t2cabu4h4y",196,"Moderate","Harder than Reference",46,32,"present","Not Enforced",605,2713,1,0
"0t2cabu4h4y",197,"Moderate","Easier than Reference",18,46,"absent","Not Enforced",536,1597,0,1
"0t2cabu4h4y",198,"Extreme","Easier than Reference",18,18,"present","Not Enforced",465,1034,0,0
"0t2cabu4h4y",199,"Extreme","Harder than Reference",60,18,"present","Not Enforced",510,2444,0,0
"0t2cabu4h4y",200,"Moderate","Harder than Reference",32,60,"present","Not Enforced",986,2879,0,0
"0t2cabu4h4y",201,"Extreme","Easier than Reference",32,32,"present","Not Enforced",484,2081,0,0
"0t2cabu4h4y",202,"Moderate","Harder than Reference",32,32,"absent","Not Enforced",496,2854,0,0
"0t2cabu4h4y",203,"Extreme","Harder than Reference",60,32,"absent","Not Enforced",641,3523,0,0
"0t2cabu4h4y",204,"Moderate","Easier than Reference",18,60,"absent","Not Enforced",469,2005,0,1
"0t2cabu4h4y",205,"Extreme","Harder than Reference",46,18,"absent","Not Enforced",483,3167,0,1
"0t2cabu4h4y",206,"Moderate","Harder than Reference",32,46,"absent","Not Enforced",615,1951,0,0
"0t2cabu4h4y",207,"Extreme","Easier than Reference",32,32,"present","Not Enforced",607,1042,0,0
"0t2cabu4h4y",208,"Moderate","Easier than Reference",18,32,"absent","Not Enforced",659,1400,0,1
"0t2cabu4h4y",209,"Extreme","Harder than Reference",32,18,"absent","Not Enforced",585,2937,0,0
"0t2cabu4h4y",210,"Moderate","Easier than Reference",4,32,"present","Not Enforced",642,658,0,0
"0t2cabu4h4y",211,"Extreme","Easier than Reference",32,4,"present","Not Enforced",517,1572,0,0
"0t2cabu4h4y",212,"Moderate","Harder than Reference",46,32,"absent","Not Enforced",956,2886,0,0
"0t2cabu4h4y",213,"Extreme","Easier than Reference",18,46,"present","Not Enforced",484,991,0,0
"0t2cabu4h4y",214,"Extreme","Harder than Reference",60,18,"absent","Not Enforced",815,3352,0,0
"0t2cabu4h4y",215,"Moderate","Easier than Reference",4,60,"present","Not Enforced",873,535,0,0
"0t2cabu4h4y",216,"Moderate","Harder than Reference",32,4,"absent","Not Enforced",787,2525,0,0
"0t2cabu4h4y",217,"Moderate","Easier than Reference",32,32,"absent","Not Enforced",520,2874,0,0
"0t2cabu4h4y",218,"Moderate","Harder than Reference",32,32,"absent","Not Enforced",598,1811,0,0
"0t2cabu4h4y",219,"Extreme","Harder than Reference",60,32,"present","Not Enforced",561,3633,1,0
"0t2cabu4h4y",220,"Extreme","Easier than Reference",25,60,"present","Not Enforced",721,1719,1,1
"0t2cabu4h4y",221,"Extreme","Harder than Reference",60,25,"absent","Not Enforced",634,2563,0,0
"0t2cabu4h4y",222,"Extreme","Easier than Reference",18,60,"present","Not Enforced",542,709,0,0
"0t2cabu4h4y",223,"Moderate","Easier than Reference",4,18,"present","Not Enforced",427,825,0,0
"0t2cabu4h4y",224,"Moderate","Harder than Reference",46,4,"absent","Not Enforced",636,2669,0,0
"0t2cabu4h4y",225,"Moderate","Easier than Reference",32,46,"absent","Not Enforced",576,1956,0,0
"0t2cabu4h4y",226,"Moderate","Harder than Reference",32,32,"absent","Not Enforced",467,1683,0,0
"0t2cabu4h4y",227,"Extreme","Harder than Reference",32,32,"absent","Not Enforced",610,1598,0,0
"0t2cabu4h4y",228,"Extreme","Easier than Reference",18,32,"present","Not Enforced",690,774,0,0
"0t2cabu4h4y",229,"Moderate","Harder than Reference",46,18,"present","Not Enforced",790,781,0,0
"0t2cabu4h4y",230,"Extreme","Harder than Reference",32,46,"present","Not Enforced",682,2082,0,0
"0t2cabu4h4y",231,"Moderate","Easier than Reference",4,32,"absent","Not Enforced",426,1000,0,0
"0t2cabu4h4y",232,"Extreme","Easier than Reference",32,4,"absent","Not Enforced",466,1688,0,0
"0t2cabu4h4y",233,"Moderate","Harder than Reference",32,32,"absent","Not Enforced",489,3306,0,0
"0t2cabu4h4y",234,"Extreme","Harder than Reference",60,32,"absent","Not Enforced",989,3352,0,0
"0t2cabu4h4y",235,"Moderate","Easier than Reference",4,60,"present","Not Enforced",424,542,0,0
"0t2cabu4h4y",236,"Extreme","Easier than Reference",25,4,"absent","Not Enforced",635,1952,0,1
"0t2cabu4h4y",237,"Extreme","Easier than Reference",32,25,"present","Not Enforced",538,1535,0,0
"0t2cabu4h4y",238,"Moderate","Easier than Reference",4,32,"present","Not Enforced",501,643,0,0
"0t2cabu4h4y",239,"Moderate","Harder than Reference",32,4,"present","Not Enforced",542,1237,0,0
"0t2cabu4h4y",240,"Extreme","Harder than Reference",32,32,"absent","Not Enforced",600,1789,0,0
"0t2cabu4h4y",241,"Extreme","Easier than Reference",32,32,"absent","Not Enforced",565,2524,0,0
"0t2cabu4h4y",242,"Extreme","Harder than Reference",32,32,"absent","Not Enforced",751,2380,0,0
"0t2cabu4h4y",243,"Moderate","Easier than Reference",4,32,"absent","Not Enforced",625,810,0,0
"0t2cabu4h4y",244,"Moderate","Harder than Reference",32,4,"absent","Not Enforced",512,1898,0,0
"0t2cabu4h4y",245,"Extreme","Easier than Reference",18,32,"absent","Not Enforced",419,1679,0,0
"0t2cabu4h4y",246,"Extreme","Harder than Reference",32,18,"present","Not Enforced",630,2069,1,0
"0t2cabu4h4y",247,"Moderate","Easier than Reference",18,32,"present","Not Enforced",430,749,0,1
"0t2cabu4h4y",248,"Moderate","Harder than Reference",32,18,"present","Not Enforced",583,875,0,0
"0t2cabu4h4y",249,"Extreme","Harder than Reference",60,32,"absent","Not Enforced",458,4139,0,0
"0t2cabu4h4y",250,"Extreme","Easier than Reference",32,60,"absent","Not Enforced",591,2917,0,0
"0t2cabu4h4y",251,"Moderate","Harder than Reference",39,32,"present","Not Enforced",702,1523,0,1
"0t2cabu4h4y",252,"Moderate","Easier than Reference",4,39,"present","Not Enforced",648,704,0,0
"0t2cabu4h4y",253,"Moderate","Easier than Reference",32,4,"absent","Not Enforced",603,1723,0,0
"0t2cabu4h4y",254,"Extreme","Harder than Reference",60,32,"absent","Not Enforced",623,3272,0,0
"0t2cabu4h4y",255,"Moderate","Harder than Reference",32,60,"absent","Not Enforced",542,2432,0,0
"0t2cabu4h4y",256,"Extreme","Easier than Reference",32,32,"absent","Not Enforced",402,1901,0,0
"0t2cabu4h4y",257,"Extreme","Easier than Reference",32,32,"absent","Not Enforced",558,2572,0,0
"0t2cabu4h4y",258,"Extreme","Harder than Reference",32,32,"present","Not Enforced",416,1388,0,0
"0t2cabu4h4y",259,"Moderate","Easier than Reference",32,32,"absent","Not Enforced",646,2386,0,0
"0t2cabu4h4y",260,"Moderate","Harder than Reference",46,32,"absent","Not Enforced",465,2498,0,0
"0t2cabu4h4y",261,"Moderate","Harder than Reference",46,46,"present","Not Enforced",652,1631,0,0
"0t2cabu4h4y",262,"Moderate","Easier than Reference",4,46,"present","Not Enforced",522,986,0,0
"0t2cabu4h4y",263,"Extreme","Harder than Reference",32,4,"present","Not Enforced",550,1517,0,0
"0t2cabu4h4y",264,"Extreme","Easier than Reference",32,32,"present","Not Enforced",458,1490,0,0
"0t2cabu4h4y",265,"Extreme","Easier than Reference",32,32,"present","Not Enforced",1203,3382,0,0
"0t2cabu4h4y",266,"Moderate","Harder than Reference",46,32,"present","Not Enforced",695,3683,0,0
"0t2cabu4h4y",267,"Extreme","Harder than Reference",60,46,"absent","Not Enforced",602,1935,0,0
"0t2cabu4h4y",268,"Moderate","Easier than Reference",32,60,"absent","Not Enforced",668,2003,0,0
"0t2cabu4h4y",269,"Moderate","Harder than Reference",32,32,"present","Not Enforced",1141,2103,1,0
"0t2cabu4h4y",270,"Extreme","Harder than Reference",60,32,"present","Not Enforced",502,259,1,0
"0t2cabu4h4y",271,"Moderate","Easier than Reference",18,60,"present","Not Enforced",582,988,0,1
"0t2cabu4h4y",272,"Extreme","Easier than Reference",18,18,"present","Not Enforced",489,1339,0,0
"0t2cabu4h4y",273,"Moderate","Easier than Reference",32,18,"present","Not Enforced",358,622,0,0
"0t2cabu4h4y",275,"Extreme","Easier than Reference",32,32,"present","Not Enforced",302,1117,1,0
"0t2cabu4h4y",276,"Extreme","Harder than Reference",60,32,"present","Not Enforced",564,1895,1,0
"0t2cabu4h4y",277,"Extreme","Easier than Reference",18,60,"present","Not Enforced",632,1213,0,0
"0t2cabu4h4y",278,"Moderate","Harder than Reference",32,18,"absent","Not Enforced",558,2301,0,0
"0t2cabu4h4y",280,"Moderate","Easier than Reference",4,60,"present","Not Enforced",546,1068,0,0
"0t2cabu4h4y",281,"Extreme","Harder than Reference",60,4,"absent","Not Enforced",1074,2810,0,0
"0t2cabu4h4y",282,"Moderate","Easier than Reference",32,60,"absent","Not Enforced",573,2432,0,0
"0t2cabu4h4y",283,"Moderate","Harder than Reference",32,32,"absent","Not Enforced",667,3326,0,0
"0t2cabu4h4y",284,"Extreme","Easier than Reference",32,32,"present","Not Enforced",652,1075,0,0
"0t2cabu4h4y",285,"Moderate","Easier than Reference",32,32,"absent","Not Enforced",424,1647,0,0
"0t2cabu4h4y",286,"Moderate","Harder than Reference",46,32,"absent","Not Enforced",454,1901,0,0
"0t2cabu4h4y",287,"Extreme","Easier than Reference",18,46,"absent","Not Enforced",426,1447,0,0
"0t2cabu4h4y",288,"Extreme","Harder than Reference",32,18,"absent","Not Enforced",364,2787,0,0
"0t2cabu4h4y",289,"Extreme","Easier than Reference",32,32,"present","Not Enforced",500,1236,0,0
"0t2cabu4h4y",290,"Moderate","Easier than Reference",18,32,"present","Not Enforced",489,870,0,1
"0t2cabu4h4y",291,"Moderate","Harder than Reference",46,18,"absent","Not Enforced",862,2456,0,0
"0t2cabu4h4y",292,"Extreme","Harder than Reference",32,46,"absent","Not Enforced",532,935,1,0
"0t2cabu4h4y",294,"Extreme","Easier than Reference",32,32,"present","Not Enforced",588,1716,0,0
"0t2cabu4h4y",295,"Extreme","Harder than Reference",60,32,"absent","Not Enforced",551,3139,0,0
"0t2cabu4h4y",296,"Moderate","Harder than Reference",32,60,"present","Not Enforced",418,2314,0,0
"0t2cabu4h4y",297,"Moderate","Easier than Reference",32,32,"present","Not Enforced",375,1512,0,0
"0t2cabu4h4y",298,"Extreme","Easier than Reference",32,32,"absent","Not Enforced",394,3274,0,0
"0t2cabu4h4y",299,"Moderate","Harder than Reference",32,32,"present","Not Enforced",601,1206,0,0
"0t2cabu4h4y",300,"Extreme","Harder than Reference",32,32,"absent","Not Enforced",586,2869,0,0
"0t2cabu4h4y",301,"Moderate","Harder than Reference",39,32,"present","Not Enforced",385,1970,0,1
"0t2cabu4h4y",302,"Extreme","Easier than Reference",25,39,"present","Not Enforced",617,1257,0,1
"0t2cabu4h4y",303,"Moderate","Easier than Reference",18,25,"present","Not Enforced",441,794,0,1
"0t2cabu4h4y",304,"Extreme","Harder than Reference",46,18,"present","Not Enforced",463,3010,1,1
"0t2cabu4h4y",305,"Moderate","Easier than Reference",32,46,"absent","Not Enforced",670,2968,0,0
"0t2cabu4h4y",306,"Extreme","Easier than Reference",25,32,"absent","Not Enforced",995,1536,0,1
"0t2cabu4h4y",307,"Extreme","Harder than Reference",46,25,"present","Not Enforced",407,1968,0,1
"0t2cabu4h4y",308,"Moderate","Harder than Reference",39,46,"absent","Not Enforced",553,2160,0,1
"12ca06vw3bvp",5,"Moderate","Harder than Reference",39,32,"absent","Not Enforced",2548,10362,0,1
"12ca06vw3bvp",7,"Moderate","Easier than Reference",18,25,"absent","Not Enforced",1882,3765,0,1
"12ca06vw3bvp",8,"Extreme","Harder than Reference",46,18,"absent","Not Enforced",1457,11332,0,1
"12ca06vw3bvp",9,"Moderate","Harder than Reference",39,46,"present","Not Enforced",1555,2145,0,1
"12ca06vw3bvp",10,"Extreme","Harder than Reference",46,39,"absent","Not Enforced",2379,9931,0,1
"12ca06vw3bvp",12,"Moderate","Easier than Reference",4,18,"present","Not Enforced",2222,933,0,0
"12ca06vw3bvp",14,"Extreme","Easier than Reference",18,60,"absent","Not Enforced",2353,8865,1,0
"12ca06vw3bvp",16,"Moderate","Harder than Reference",39,18,"present","Not Enforced",1218,1824,0,1
"12ca06vw3bvp",17,"Moderate","Easier than Reference",32,39,"present","Not Enforced",1382,1292,0,0
"12ca06vw3bvp",18,"Extreme","Easier than Reference",18,32,"present","Not Enforced",868,900,0,0
"12ca06vw3bvp",19,"Extreme","Harder than Reference",46,18,"absent","Not Enforced",1537,10199,0,1
"12ca06vw3bvp",20,"Moderate","Harder than Reference",39,46,"present","Not Enforced",1253,1868,0,1
"12ca06vw3bvp",21,"Extreme","Easier than Reference",18,39,"present","Not Enforced",1802,804,0,0
"12ca06vw3bvp",22,"Extreme","Harder than Reference",46,18,"present","Not Enforced",1919,910,0,1
"12ca06vw3bvp",23,"Moderate","Easier than Reference",4,46,"absent","Not Enforced",1556,844,0,0
"12ca06vw3bvp",24,"Moderate","Harder than Reference",39,4,"absent","Not Enforced",1147,9979,0,1
"12ca06vw3bvp",25,"Moderate","Easier than Reference",18,39,"present","Not Enforced",1369,1793,0,1
"12ca06vw3bvp",26,"Moderate","Harder than Reference",32,18,"absent","Not Enforced",1668,8594,0,0
"12ca06vw3bvp",27,"Extreme","Easier than Reference",25,32,"absent","Not Enforced",1938,4619,0,1
"12ca06vw3bvp",28,"Extreme","Harder than Reference",60,25,"absent","Not Enforced",1360,11539,0,0
"12ca06vw3bvp",29,"Extreme","Easier than Reference",32,60,"present","Not Enforced",1399,1731,0,0
"12ca06vw3bvp",30,"Moderate","Harder than Reference",39,32,"absent","Not Enforced",1140,5995,0,1
"12ca06vw3bvp",31,"Moderate","Easier than Reference",32,39,"present","Not Enforced",1508,2506,0,0
"12ca06vw3bvp",33,"Moderate","Easier than Reference",18,32,"present","Not Enforced",1563,1159,0,1
"12ca06vw3bvp",34,"Moderate","Harder than Reference",46,18,"present","Not Enforced",1740,3368,0,0
"12ca06vw3bvp",35,"Extreme","Easier than Reference",32,46,"absent","Not Enforced",1292,4665,0,0
"12ca06vw3bvp",37,"Extreme","Easier than Reference",32,60,"present","Not Enforced",1764,958,0,0
"12ca06vw3bvp",38,"Extreme","Harder than Reference",32,32,"present","Not Enforced",979,1395,0,0
"12ca06vw3bvp",39,"Moderate","Harder than Reference",32,32,"absent","Not Enforced",581,3838,0,0
"12ca06vw3bvp",40,"Moderate","Easier than Reference",32,32,"present","Not Enforced",1811,1262,0,0
"12ca06vw3bvp",41,"Extreme","Harder than Reference",60,32,"present","Not Enforced",1420,948,0,0
"12ca06vw3bvp",42,"Moderate","Harder than Reference",32,60,"absent","Not Enforced",1339,5958,0,0
"12ca06vw3bvp",43,"Extreme","Easier than Reference",25,32,"present","Not Enforced",1312,889,0,1
"12ca06vw3bvp",44,"Moderate","Easier than Reference",32,25,"absent","Not Enforced",1859,4098,0,0
"12ca06vw3bvp",46,"Moderate","Harder than Reference",46,32,"absent","Not Enforced",1115,4300,0,0
"12ca06vw3bvp",47,"Extreme","Easier than Reference",32,46,"absent","Not Enforced",1488,4145,0,0
"12ca06vw3bvp",48,"Extreme","Harder than Reference",46,32,"absent","Not Enforced",2499,6170,0,1
"12ca06vw3bvp",49,"Moderate","Easier than Reference",32,46,"present","Not Enforced",1286,1346,0,0
"12ca06vw3bvp",50,"Moderate","Harder than Reference",46,32,"present","Not Enforced",1273,4739,0,0
"12ca06vw3bvp",51,"Extreme","Easier than Reference",32,46,"present","Not Enforced",915,1414,0,0
"12ca06vw3bvp",52,"Extreme","Harder than Reference",60,32,"present","Not Enforced",1487,876,0,0
"12ca06vw3bvp",53,"Moderate","Harder than Reference",46,60,"present","Not Enforced",2056,862,0,0
"12ca06vw3bvp",54,"Extreme","Easier than Reference",32,46,"absent","Not Enforced",1434,3654,0,0
"12ca06vw3bvp",55,"Moderate","Easier than Reference",18,32,"present","Not Enforced",1468,887,0,1
"12ca06vw3bvp",56,"Extreme","Harder than Reference",32,18,"present","Not Enforced",1123,1372,0,0
"12ca06vw3bvp",57,"Extreme","Harder than Reference",46,32,"present","Not Enforced",1651,1221,0,1
"12ca06vw3bvp",58,"Extreme","Easier than Reference",18,46,"present","Not Enforced",1293,788,0,0
"12ca06vw3bvp",59,"Moderate","Easier than Reference",4,18,"present","Not Enforced",1649,651,0,0
"12ca06vw3bvp",60,"Moderate","Harder than Reference",46,4,"present","Not Enforced",1453,1135,0,0
"12ca06vw3bvp",61,"Moderate","Harder than Reference",32,46,"absent","Not Enforced",593,4642,0,0
"12ca06vw3bvp",62,"Extreme","Easier than Reference",18,32,"absent","Not Enforced",1573,2441,0,0
"12ca06vw3bvp",63,"Moderate","Easier than Reference",4,18,"absent","Not Enforced",1900,819,0,0
"12ca06vw3bvp",64,"Extreme","Harder than Reference",32,4,"absent","Not Enforced",1243,4776,0,0
"12ca06vw3bvp",65,"Extreme","Harder than Reference",46,32,"present","Not Enforced",1981,1007,0,1
"12ca06vw3bvp",66,"Moderate","Harder than Reference",32,46,"absent","Not Enforced",943,3757,0,0
"12ca06vw3bvp",67,"Moderate","Easier than Reference",32,32,"present","Not Enforced",2361,1498,0,0
"12ca06vw3bvp",68,"Extreme","Easier than Reference",32,32,"absent","Not Enforced",750,4001,0,0
"12ca06vw3bvp",69,"Extreme","Harder than Reference",32,32,"present","Not Enforced",1176,694,0,0
"12ca06vw3bvp",70,"Moderate","Easier than Reference",4,32,"absent","Not Enforced",1213,778,0,0
"12ca06vw3bvp",71,"Extreme","Easier than Reference",32,4,"absent","Not Enforced",1039,4028,0,0
"12ca06vw3bvp",72,"Moderate","Harder than Reference",46,32,"present","Not Enforced",1440,2613,0,0
"12ca06vw3bvp",73,"Moderate","Easier than Reference",32,46,"present","Not Enforced",1746,1059,1,0
"12ca06vw3bvp",74,"Extreme","Easier than Reference",32,32,"present","Not Enforced",654,886,0,0
"12ca06vw3bvp",76,"Extreme","Harder than Reference",60,39,"absent","Not Enforced",1352,8179,0,0
"12ca06vw3bvp",78,"Moderate","Harder than Reference",46,46,"present","Not Enforced",1755,1966,0,0
"12ca06vw3bvp",79,"Moderate","Easier than Reference",18,46,"absent","Not Enforced",865,2058,0,1
"12ca06vw3bvp",80,"Extreme","Easier than Reference",32,18,"absent","Not Enforced",1522,3630,0,0
"12ca06vw3bvp",81,"Moderate","Easier than Reference",32,32,"absent","Not Enforced",1524,3040,0,0
"12ca06vw3bvp",82,"Moderate","Harder than Reference",46,32,"absent","Not Enforced",905,4133,0,0
"12ca06vw3bvp",83,"Extreme","Easier than Reference",32,46,"present","Not Enforced",614,1727,0,0
"12ca06vw3bvp",84,"Extreme","Harder than Reference",32,32,"present","Not Enforced",1162,1687,0,0
"12ca06vw3bvp",87,"Moderate","Harder than Reference",32,60,"present","Not Enforced",1074,1210,0,0
"12ca06vw3bvp",88,"Moderate","Easier than Reference",18,32,"absent","Not Enforced",650,1510,0,1
"12ca06vw3bvp",90,"Moderate","Harder than Reference",32,25,"absent","Not Enforced",1342,4093,0,0
"12ca06vw3bvp",91,"Moderate","Easier than Reference",4,32,"present","Not Enforced",684,599,0,0
"12ca06vw3bvp",92,"Extreme","Harder than Reference",46,4,"absent","Not Enforced",500,2840,0,1
"12ca06vw3bvp",93,"Moderate","Easier than Reference",18,46,"absent","Not Enforced",527,1976,0,1
"12ca06vw3bvp",94,"Extreme","Easier than Reference",18,18,"present","Not Enforced",507,1002,0,0
"12ca06vw3bvp",95,"Moderate","Harder than Reference",39,18,"absent","Not Enforced",914,2481,0,1
"12ca06vw3bvp",96,"Extreme","Harder than Reference",60,39,"present","Not Enforced",1736,1618,0,0
"12ca06vw3bvp",97,"Moderate","Harder than Reference",32,60,"absent","Not Enforced",653,4003,0,0
"12ca06vw3bvp",98,"Extreme","Easier than Reference",25,32,"absent","Not Enforced",524,2930,0,1
"12ca06vw3bvp",99,"Extreme","Harder than Reference",60,25,"present","Not Enforced",1533,4177,0,0
"12ca06vw3bvp",100,"Moderate","Easier than Reference",4,60,"absent","Not Enforced",774,772,0,0
"12ca06vw3bvp",101,"Extreme","Harder than Reference",60,4,"present","Not Enforced",659,2250,0,0
"12ca06vw3bvp",102,"Moderate","Easier than Reference",18,60,"absent","Not Enforced",571,1721,0,1
"12ca06vw3bvp",103,"Extreme","Easier than Reference",32,18,"present","Not Enforced",1026,2007,0,0
"12ca06vw3bvp",104,"Moderate","Harder than Reference",46,32,"absent","Not Enforced",1712,3933,0,0
"12ca06vw3bvp",105,"Moderate","Easier than Reference",32,46,"absent","Not Enforced",820,3209,0,0
"12ca06vw3bvp",106,"Moderate","Harder than Reference",39,32,"present","Not Enforced",2404,1022,0,1
"12ca06vw3bvp",107,"Extreme","Easier than Reference",25,39,"present","Not Enforced",664,685,0,1
"12ca06vw3bvp",108,"Extreme","Harder than Reference",32,25,"absent","Not Enforced",1199,2814,0,0
"12ca06vw3bvp",109,"Moderate","Harder than Reference",32,32,"present","Not Enforced",1245,1540,0,0
"12ca06vw3bvp",110,"Moderate","Easier than Reference",4,32,"present","Not Enforced",654,730,0,0
"12ca06vw3bvp",111,"Extreme","Harder than Reference",32,4,"absent","Not Enforced",1228,2326,0,0
"12ca06vw3bvp",112,"Extreme","Easier than Reference",25,32,"absent","Not Enforced",825,2361,0,1
"12ca06vw3bvp",113,"Moderate","Harder than Reference",39,25,"absent","Not Enforced",789,3880,0,1
"12ca06vw3bvp",114,"Extreme","Easier than Reference",18,39,"absent","Not Enforced",530,2034,0,0
"12ca06vw3bvp",115,"Moderate","Easier than Reference",4,18,"absent","Not Enforced",918,668,0,0
"12ca06vw3bvp",116,"Extreme","Harder than Reference",60,4,"present","Not Enforced",671,1477,0,0
"12ca06vw3bvp",117,"Moderate","Harder than Reference",39,60,"absent","Not Enforced",755,2654,0,1
"12ca06vw3bvp",118,"Moderate","Easier than Reference",4,39,"absent","Not Enforced",923,542,0,0
"12ca06vw3bvp",119,"Extreme","Easier than Reference",32,4,"present","Not Enforced",626,1850,0,0
"12ca06vw3bvp",120,"Extreme","Harder than Reference",46,32,"present","Not Enforced",842,1075,0,1
"12ca06vw3bvp",121,"Extreme","Harder than Reference",32,46,"present","Not Enforced",1171,1893,0,0
"12ca06vw3bvp",122,"Moderate","Easier than Reference",32,32,"present","Not Enforced",751,1976,0,0
"12ca06vw3bvp",123,"Moderate","Harder than Reference",39,32,"absent","Not Enforced",950,4316,0,1
"12ca06vw3bvp",124,"Extreme","Easier than Reference",18,39,"present","Not Enforced",1151,772,0,0
"12ca06vw3bvp",125,"Moderate","Harder than Reference",46,18,"present","Not Enforced",1747,1086,0,0
"12ca06vw3bvp",126,"Moderate","Easier than Reference",32,46,"absent","Not Enforced",706,3273,0,0
"12ca06vw3bvp",127,"Extreme","Harder than Reference",32,32,"present","Not Enforced",1114,1902,0,0
"12ca06vw3bvp",128,"Extreme","Easier than Reference",32,32,"present","Not Enforced",1352,710,0,0
"12ca06vw3bvp",129,"Moderate","Harder than Reference",32,32,"absent","Not Enforced",763,2269,0,0
"12ca06vw3bvp",130,"Extreme","Easier than Reference",18,32,"absent","Not Enforced",671,1406,0,0
"12ca06vw3bvp",131,"Moderate","Easier than Reference",32,18,"present","Not Enforced",1666,998,0,0
"12ca06vw3bvp",132,"Extreme","Harder than Reference",60,32,"present","Not Enforced",1368,1109,0,0
"12ca06vw3bvp",133,"Extreme","Harder than Reference",60,60,"present","Not Enforced",780,3156,0,0
"12ca06vw3bvp",134,"Extreme","Easier than Reference",32,60,"absent","Not Enforced",623,3540,0,0
"12ca06vw3bvp",135,"Moderate","Easier than Reference",4,32,"present","Not Enforced",1547,532,0,0
"12ca06vw3bvp",136,"Moderate","Harder than Reference",32,4,"absent","Not Enforced",739,1757,0,0
"12ca06vw3bvp",137,"Extreme","Easier than Reference",32,32,"present","Not Enforced",570,2188,0,0
"12ca06vw3bvp",138,"Moderate","Easier than Reference",4,32,"present","Not Enforced",647,1110,0,0
"12ca06vw3bvp",139,"Extreme","Harder than Reference",60,4,"absent","Not Enforced",1814,4969,0,0
"12ca06vw3bvp",140,"Moderate","Harder than Reference",46,60,"present","Not Enforced",616,1675,0,0
"12ca06vw3bvp",141,"Moderate","Harder than Reference",39,46,"present","Not Enforced",762,1330,0,1
"12ca06vw3bvp",142,"Moderate","Easier than Reference",32,39,"present","Not Enforced",1078,1924,0,0
"12ca06vw3bvp",143,"Extreme","Harder than Reference",46,32,"present","Not Enforced",1105,1460,0,1
"12ca06vw3bvp",144,"Extreme","Easier than Reference",32,46,"absent","Not Enforced",1121,3970,0,0
"12ca06vw3bvp",145,"Extreme","Harder than Reference",60,32,"absent","Not Enforced",1216,5016,0,0
"12ca06vw3bvp",146,"Moderate","Easier than Reference",32,60,"present","Not Enforced",1092,1121,0,0
"12ca06vw3bvp",147,"Extreme","Easier than Reference",18,32,"absent","Not Enforced",1129,1437,0,0
"12ca06vw3bvp",148,"Moderate","Harder than Reference",46,18,"absent","Not Enforced",805,4810,0,0
"12ca06vw3bvp",149,"Moderate","Harder than Reference",32,46,"present","Not Enforced",1132,1115,0,0
"12ca06vw3bvp",150,"Extreme","Easier than Reference",32,32,"absent","Not Enforced",919,1647,0,0
"12ca06vw3bvp",151,"Extreme","Harder than Reference",46,32,"present","Not Enforced",974,2058,0,1
"12ca06vw3bvp",152,"Moderate","Easier than Reference",4,46,"present","Not Enforced",1026,474,0,0
"12ca06vw3bvp",153,"Extreme","Easier than Reference",32,4,"absent","Not Enforced",614,2524,0,0
"12ca06vw3bvp",154,"Moderate","Harder than Reference",46,32,"present","Not Enforced",677,854,0,0
"12ca06vw3bvp",155,"Extreme","Harder than Reference",60,46,"absent","Not Enforced",1346,4611,0,0
"12ca06vw3bvp",156,"Moderate","Easier than Reference",18,60,"absent","Not Enforced",1015,1752,0,1
"12ca06vw3bvp",157,"Moderate","Easier than Reference",32,18,"absent","Not Enforced",809,2873,0,0
"12ca06vw3bvp",158,"Moderate","Harder than Reference",32,32,"absent","Not Enforced",800,2412,0,0
"12ca06vw3bvp",159,"Extreme","Harder than Reference",46,32,"absent","Not Enforced",506,4436,0,1
"12ca06vw3bvp",160,"Extreme","Easier than Reference",18,46,"absent","Not Enforced",675,2702,0,0
"12ca06vw3bvp",161,"Extreme","Harder than Reference",32,18,"present","Not Enforced",554,1882,0,0
"12ca06vw3bvp",162,"Extreme","Easier than Reference",18,32,"absent","Not Enforced",1169,1948,0,0
"12ca06vw3bvp",163,"Moderate","Easier than Reference",4,18,"present","Not Enforced",1024,631,0,0
"12ca06vw3bvp",164,"Moderate","Harder than Reference",46,4,"present","Not Enforced",1562,2743,0,0
"12ca06vw3bvp",165,"Moderate","Harder than Reference",46,46,"present","Not Enforced",684,1584,0,0
"12ca06vw3bvp",166,"Extreme","Harder than Reference",60,46,"absent","Not Enforced",767,8127,0,0
"12ca06vw3bvp",167,"Extreme","Easier than Reference",32,60,"present","Not Enforced",1060,4593,0,0
"12ca06vw3bvp",168,"Moderate","Easier than Reference",4,32,"present","Not Enforced",1552,732,0,0
"12ca06vw3bvp",169,"Extreme","Easier than Reference",32,4,"present","Not Enforced",986,986,0,0
"12ca06vw3bvp",170,"Moderate","Harder than Reference",39,32,"absent","Not Enforced",842,3733,0,1
"12ca06vw3bvp",171,"Extreme","Harder than Reference",32,39,"present","Not Enforced",961,713,0,0
"12ca06vw3bvp",172,"Moderate","Easier than Reference",32,32,"absent","Not Enforced",994,2047,0,0
"12ca06vw3bvp",173,"Extreme","Easier than Reference",32,32,"present","Not Enforced",848,637,0,0
"12ca06vw3bvp",174,"Extreme","Harder than Reference",60,32,"absent","Not Enforced",1551,3306,0,0
"12ca06vw3bvp",175,"Moderate","Easier than Reference",18,60,"present","Not Enforced",660,1269,0,1
"12ca06vw3bvp",176,"Moderate","Harder than Reference",46,18,"present","Not Enforced",814,2692,0,0
"12ca06vw3bvp",177,"Moderate","Easier than Reference",18,46,"absent","Not Enforced",894,1725,0,1
"12ca06vw3bvp",178,"Moderate","Harder than Reference",46,18,"present","Not Enforced",902,3790,1,0
"12ca06vw3bvp",179,"Extreme","Easier than Reference",18,46,"present","Not Enforced",1288,1530,0,0
"12ca06vw3bvp",180,"Extreme","Harder than Reference",32,18,"absent","Not Enforced",700,3073,0,0
"12ca06vw3bvp",181,"Moderate","Harder than Reference",32,32,"absent","Not Enforced",1633,3052,0,0
"12ca06vw3bvp",182,"Extreme","Harder than Reference",60,32,"absent","Not Enforced",503,5099,0,0
"12ca06vw3bvp",183,"Moderate","Easier than Reference",4,60,"absent","Not Enforced",667,602,0,0
"12ca06vw3bvp",184,"Extreme","Easier than Reference",32,4,"absent","Not Enforced",979,3162,0,0
"12ca06vw3bvp",185,"Moderate","Easier than Reference",4,32,"present","Not Enforced",515,567,0,0
"12ca06vw3bvp",186,"Extreme","Harder than Reference",60,4,"absent","Not Enforced",819,5642,0,0
"12ca06vw3bvp",187,"Extreme","Easier than Reference",32,60,"present","Not Enforced",566,1446,0,0
"12ca06vw3bvp",188,"Moderate","Harder than Reference",32,32,"present","Not Enforced",488,1069,0,0
"12ca06vw3bvp",189,"Moderate","Harder than Reference",46,32,"present","Not Enforced",619,3382,0,0
"12ca06vw3bvp",190,"Extreme","Easier than Reference",32,46,"present","Not Enforced",585,1109,0,0
"12ca06vw3bvp",191,"Moderate","Easier than Reference",4,32,"present","Not Enforced",1734,680,0,0
"12ca06vw3bvp",192,"Extreme","Harder than Reference",60,4,"absent","Not Enforced",868,4395,0,0
"12ca06vw3bvp",193,"Moderate","Harder than Reference",46,60,"absent","Not Enforced",922,6772,0,0
"12ca06vw3bvp",194,"Extreme","Easier than Reference",18,46,"present","Not Enforced",455,1631,0,0
"12ca06vw3bvp",195,"Moderate","Easier than Reference",32,18,"present","Not Enforced",1081,1533,0,0
"12ca06vw3bvp",196,"Extreme","Harder than Reference",60,32,"absent","Not Enforced",617,9567,0,0
"12ca06vw3bvp",197,"Moderate","Harder than Reference",32,60,"present","Not Enforced",680,784,0,0
"12ca06vw3bvp",198,"Extreme","Easier than Reference",18,32,"present","Not Enforced",804,1102,0,0
"12ca06vw3bvp",199,"Extreme","Harder than Reference",32,18,"present","Not Enforced",475,1564,0,0
"12ca06vw3bvp",200,"Moderate","Easier than Reference",18,32,"present","Not Enforced",630,1119,0,1
"12ca06vw3bvp",201,"Extreme","Harder than Reference",60,18,"present","Not Enforced",522,1470,0,0
"12ca06vw3bvp",202,"Extreme","Easier than Reference",32,60,"present","Not Enforced",872,1879,0,0
"12ca06vw3bvp",203,"Moderate","Easier than Reference",32,32,"present","Not Enforced",616,947,0,0
"12ca06vw3bvp",204,"Moderate","Harder than Reference",39,32,"absent","Not Enforced",774,4520,0,1
"12ca06vw3bvp",205,"Extreme","Harder than Reference",32,39,"absent","Not Enforced",727,6738,0,0
"12ca06vw3bvp",206,"Extreme","Easier than Reference",18,32,"absent","Not Enforced",1124,1675,0,0
"12ca06vw3bvp",208,"Moderate","Harder than Reference",46,32,"absent","Not Enforced",1531,4236,0,0
"12ca06vw3bvp",209,"Moderate","Harder than Reference",46,46,"absent","Not Enforced",743,3822,0,0
"12ca06vw3bvp",210,"Moderate","Easier than Reference",18,46,"absent","Not Enforced",617,1434,0,1
"12ca06vw3bvp",211,"Extreme","Easier than Reference",18,18,"absent","Not Enforced",447,2316,0,0
"12ca06vw3bvp",212,"Extreme","Harder than Reference",32,18,"present","Not Enforced",592,697,0,0
"12ca06vw3bvp",213,"Moderate","Easier than Reference",4,32,"present","Not Enforced",704,635,0,0
"12ca06vw3bvp",214,"Moderate","Harder than Reference",39,4,"present","Not Enforced",2301,1587,0,1
"12ca06vw3bvp",215,"Extreme","Harder than Reference",46,39,"absent","Not Enforced",1193,4394,0,1
"12ca06vw3bvp",216,"Extreme","Easier than Reference",18,46,"absent","Not Enforced",853,3259,0,0
"12ca06vw3bvp",217,"Extreme","Harder than Reference",32,18,"present","Not Enforced",613,4064,1,0
"12ca06vw3bvp",218,"Moderate","Easier than Reference",4,32,"present","Not Enforced",523,625,0,0
"12ca06vw3bvp",219,"Moderate","Harder than Reference",32,4,"absent","Not Enforced",800,4247,0,0
"12ca06vw3bvp",220,"Extreme","Easier than Reference",32,32,"absent","Not Enforced",588,4734,0,0
"12ca06vw3bvp",221,"Moderate","Harder than Reference",39,32,"present","Not Enforced",783,845,0,1
"12ca06vw3bvp",222,"Moderate","Easier than Reference",32,39,"present","Not Enforced",907,2343,0,0
"12ca06vw3bvp",223,"Extreme","Easier than Reference",25,32,"absent","Not Enforced",736,5643,0,1
"12ca06vw3bvp",224,"Extreme","Harder than Reference",46,25,"absent","Not Enforced",727,5309,0,1
"12ca06vw3bvp",225,"Moderate","Harder than Reference",46,46,"absent","Not Enforced",2226,3151,0,0
"12ca06vw3bvp",226,"Moderate","Easier than Reference",4,46,"present","Not Enforced",800,1006,0,0
"12ca06vw3bvp",227,"Extreme","Easier than Reference",32,4,"absent","Not Enforced",2337,5071,0,0
"12ca06vw3bvp",228,"Extreme","Harder than Reference",60,32,"present","Not Enforced",705,4020,0,0
"12ca06vw3bvp",229,"Extreme","Harder than Reference",60,60,"absent","Not Enforced",415,4915,0,0
"12ca06vw3bvp",230,"Extreme","Easier than Reference",25,60,"present","Not Enforced",370,1054,0,1
"12ca06vw3bvp",231,"Moderate","Easier than Reference",18,25,"present","Not Enforced",964,596,0,1
"12ca06vw3bvp",232,"Moderate","Harder than Reference",39,18,"absent","Not Enforced",776,3406,0,1
"12ca06vw3bvp",233,"Moderate","Easier than Reference",4,39,"absent","Not Enforced",832,855,0,0
"12ca06vw3bvp",234,"Moderate","Harder than Reference",46,4,"present","Not Enforced",711,980,0,0
"12ca06vw3bvp",235,"Extreme","Harder than Reference",32,46,"present","Not Enforced",433,2108,0,0
"12ca06vw3bvp",236,"Extreme","Easier than Reference",32,32,"present","Not Enforced",542,695,0,0
"12ca06vw3bvp",237,"Moderate","Harder than Reference",32,32,"present","Not Enforced",987,966,0,0
"12ca06vw3bvp",238,"Moderate","Easier than Reference",32,32,"absent","Not Enforced",1310,2974,0,0
"12ca06vw3bvp",239,"Extreme","Easier than Reference",25,32,"absent","Not Enforced",447,2364,0,1
"12ca06vw3bvp",240,"Extreme","Harder than Reference",60,25,"absent","Not Enforced",682,5525,0,0
"12ca06vw3bvp",241,"Extreme","Harder than Reference",32,60,"absent","Not Enforced",663,2780,0,0
"12ca06vw3bvp",242,"Moderate","Easier than Reference",4,32,"absent","Not Enforced",886,983,0,0
"12ca06vw3bvp",243,"Moderate","Harder than Reference",46,4,"present","Not Enforced",604,1049,0,0
"12ca06vw3bvp",244,"Extreme","Easier than Reference",32,46,"absent","Not Enforced",508,3606,0,0
"12ca06vw3bvp",245,"Extreme","Easier than Reference",25,32,"absent","Not Enforced",613,4102,0,1
"12ca06vw3bvp",246,"Moderate","Harder than Reference",46,25,"present","Not Enforced",1571,1435,0,0
"12ca06vw3bvp",247,"Moderate","Easier than Reference",32,46,"absent","Not Enforced",728,2727,0,0
"12ca06vw3bvp",248,"Extreme","Harder than Reference",46,32,"absent","Not Enforced",698,3798,0,1
"12ca06vw3bvp",249,"Moderate","Harder than Reference",32,46,"present","Not Enforced",559,870,0,0
"12ca06vw3bvp",250,"Extreme","Harder than Reference",32,32,"present","Not Enforced",519,2670,0,0
"12ca06vw3bvp",251,"Moderate","Easier than Reference",4,32,"present","Not Enforced",770,651,0,0
"12ca06vw3bvp",252,"Extreme","Easier than Reference",32,4,"present","Not Enforced",598,1405,0,0
"12ca06vw3bvp",253,"Extreme","Easier than Reference",32,32,"present","Not Enforced",611,1957,0,0
"12ca06vw3bvp",254,"Moderate","Easier than Reference",4,32,"present","Not Enforced",454,663,0,0
"12ca06vw3bvp",255,"Extreme","Harder than Reference",60,4,"present","Not Enforced",1058,2961,0,0
"12ca06vw3bvp",256,"Moderate","Harder than Reference",39,60,"present","Not Enforced",697,1962,0,1
"12ca06vw3bvp",257,"Extreme","Harder than Reference",60,39,"present","Not Enforced",623,688,0,0
"12ca06vw3bvp",258,"Extreme","Easier than Reference",18,60,"present","Not Enforced",478,805,0,0
"12ca06vw3bvp",259,"Moderate","Easier than Reference",32,18,"absent","Not Enforced",770,2377,0,0
"12ca06vw3bvp",260,"Moderate","Harder than Reference",39,32,"present","Not Enforced",574,1455,0,1
"12ca06vw3bvp",261,"Moderate","Easier than Reference",4,39,"present","Not Enforced",877,546,0,0
"12ca06vw3bvp",262,"Extreme","Easier than Reference",32,4,"present","Not Enforced",504,1169,0,0
"12ca06vw3bvp",263,"Extreme","Harder than Reference",32,32,"present","Not Enforced",774,762,0,0
"12ca06vw3bvp",264,"Moderate","Harder than Reference",32,32,"absent","Not Enforced",611,2051,0,0
"12ca06vw3bvp",265,"Extreme","Easier than Reference",25,32,"absent","Not Enforced",721,2703,0,1
"12ca06vw3bvp",266,"Moderate","Easier than Reference",4,25,"present","Not Enforced",667,727,0,0
"12ca06vw3bvp",267,"Moderate","Harder than Reference",32,4,"absent","Not Enforced",946,2452,0,0
"12ca06vw3bvp",268,"Extreme","Harder than Reference",60,32,"present","Not Enforced",2126,880,0,0
"12ca06vw3bvp",270,"Moderate","Easier than Reference",32,32,"absent","Not Enforced",605,3755,0,0
"12ca06vw3bvp",271,"Moderate","Harder than Reference",39,32,"absent","Not Enforced",829,2465,0,1
"12ca06vw3bvp",272,"Extreme","Harder than Reference",32,39,"absent","Not Enforced",741,2448,0,0
"12ca06vw3bvp",273,"Moderate","Harder than Reference",46,32,"present","Not Enforced",956,1302,0,0
"12ca06vw3bvp",274,"Moderate","Easier than Reference",4,46,"absent","Not Enforced",885,883,0,0
"12ca06vw3bvp",275,"Extreme","Easier than Reference",32,4,"absent","Not Enforced",884,3011,0,0
"12ca06vw3bvp",276,"Extreme","Harder than Reference",32,32,"absent","Not Enforced",1072,2827,0,0
"12ca06vw3bvp",277,"Moderate","Harder than Reference",46,32,"present","Not Enforced",762,721,0,0
"12ca06vw3bvp",278,"Moderate","Easier than Reference",32,46,"present","Not Enforced",676,1287,0,0
"12ca06vw3bvp",279,"Extreme","Easier than Reference",18,32,"present","Not Enforced",1264,1386,0,0
"12ca06vw3bvp",280,"Extreme","Harder than Reference",60,18,"absent","Not Enforced",2461,5131,0,0
"12ca06vw3bvp",281,"Moderate","Harder than Reference",32,60,"present","Not Enforced",703,1239,0,0
"12ca06vw3bvp",282,"Moderate","Easier than Reference",4,32,"present","Not Enforced",559,689,0,0
"12ca06vw3bvp",283,"Extreme","Easier than Reference",32,4,"absent","Not Enforced",791,2074,0,0
"12ca06vw3bvp",284,"Extreme","Harder than Reference",60,32,"present","Not Enforced",592,1413,0,0
"12ca06vw3bvp",285,"Extreme","Harder than Reference",60,60,"absent","Not Enforced",773,3224,0,0
"12ca06vw3bvp",286,"Moderate","Easier than Reference",18,60,"present","Not Enforced",1154,970,0,1
"12ca06vw3bvp",287,"Extreme","Easier than Reference",32,18,"absent","Not Enforced",621,3310,0,0
"12ca06vw3bvp",288,"Moderate","Harder than Reference",39,32,"absent","Not Enforced",840,1730,0,1
"12ca06vw3bvp",289,"Extreme","Harder than Reference",60,39,"absent","Not Enforced",772,4461,0,0
"12ca06vw3bvp",290,"Moderate","Harder than Reference",39,60,"absent","Not Enforced",538,2969,0,1
"12ca06vw3bvp",291,"Moderate","Easier than Reference",4,39,"present","Not Enforced",641,653,0,0
"12ca06vw3bvp",292,"Extreme","Easier than Reference",18,4,"absent","Not Enforced",741,2082,0,0
"12ca06vw3bvp",293,"Extreme","Easier than Reference",32,18,"absent","Not Enforced",549,1592,0,0
"12ca06vw3bvp",294,"Moderate","Easier than Reference",4,32,"absent","Not Enforced",940,890,0,0
"12ca06vw3bvp",295,"Moderate","Harder than Reference",32,4,"present","Not Enforced",627,949,0,0
"12ca06vw3bvp",296,"Extreme","Harder than Reference",32,32,"present","Not Enforced",541,1033,0,0
"12ca06vw3bvp",297,"Moderate","Harder than Reference",32,32,"present","Not Enforced",781,995,0,0
"12ca06vw3bvp",298,"Extreme","Easier than Reference",32,32,"absent","Not Enforced",553,2442,0,0
"12ca06vw3bvp",299,"Extreme","Harder than Reference",32,32,"present","Not Enforced",836,678,0,0
"12ca06vw3bvp",300,"Moderate","Easier than Reference",4,32,"absent","Not Enforced",494,1323,0,0
"12ca06vw3bvp",301,"Moderate","Harder than Reference",39,4,"absent","Not Enforced",828,3297,0,1
"12ca06vw3bvp",302,"Extreme","Easier than Reference",18,39,"present","Not Enforced",618,902,0,0
"12ca06vw3bvp",303,"Moderate","Easier than Reference",32,18,"absent","Not Enforced",542,2873,0,0
"12ca06vw3bvp",304,"Extreme","Harder than Reference",60,32,"present","Not Enforced",739,2210,0,0
"12ca06vw3bvp",305,"Moderate","Easier than Reference",18,60,"present","Not Enforced",545,824,0,1
"12ca06vw3bvp",306,"Extreme","Harder than Reference",60,18,"present","Not Enforced",483,1304,0,0
"12ca06vw3bvp",307,"Extreme","Easier than Reference",25,60,"present","Not Enforced",646,2201,1,1
"12ca06vw3bvp",308,"Moderate","Harder than Reference",32,25,"absent","Not Enforced",556,2815,0,0
"1ctomglu2e7i",2,"Moderate","Harder than Reference",32,32,"absent","Not Enforced",1521,2033,0,0
"1ctomglu2e7i",4,"Extreme","Easier than Reference",32,18,"present","Not Enforced",1093,3606,1,0
"1ctomglu2e7i",5,"Extreme","Harder than Reference",46,32,"absent","Not Enforced",2037,3067,0,1
"1ctomglu2e7i",6,"Moderate","Harder than Reference",46,46,"absent","Not Enforced",1154,4452,0,0
"1ctomglu2e7i",7,"Extreme","Easier than Reference",18,46,"absent","Not Enforced",1219,2928,1,0
"1ctomglu2e7i",8,"Moderate","Easier than Reference",18,18,"absent","Not Enforced",863,1289,0,1
"1ctomglu2e7i",9,"Moderate","Easier than Reference",32,18,"present","Not Enforced",1165,1916,0,0
"1ctomglu2e7i",10,"Moderate","Harder than Reference",32,32,"present","Not Enforced",911,1394,0,0
"1ctomglu2e7i",11,"Extreme","Harder than Reference",32,32,"absent","Not Enforced",735,1968,0,0
"1ctomglu2e7i",12,"Extreme","Easier than Reference",25,32,"absent","Not Enforced",796,1587,0,1
"1ctomglu2e7i",13,"Moderate","Easier than Reference",18,25,"present","Not Enforced",993,1925,0,1
"1ctomglu2e7i",14,"Extreme","Harder than Reference",46,18,"present","Not Enforced",1057,2149,0,1
"1ctomglu2e7i",15,"Moderate","Harder than Reference",32,46,"absent","Not Enforced",698,4724,0,0
"1ctomglu2e7i",16,"Extreme","Easier than Reference",32,32,"absent","Not Enforced",838,2737,0,0
"1ctomglu2e7i",17,"Extreme","Easier than Reference",18,32,"present","Not Enforced",964,2502,1,0
"1ctomglu2e7i",18,"Extreme","Harder than Reference",46,18,"absent","Not Enforced",847,3790,0,1
"1ctomglu2e7i",19,"Moderate","Harder than Reference",39,46,"present","Not Enforced",962,4637,1,1
"1ctomglu2e7i",20,"Moderate","Easier than Reference",18,39,"present","Not Enforced",352,1926,0,1
"1ctomglu2e7i",21,"Extreme","Harder than Reference",46,18,"absent","Not Enforced",1034,4191,0,1
"1ctomglu2e7i",22,"Moderate","Easier than Reference",4,46,"present","Not Enforced",1627,1670,0,0
"1ctomglu2e7i",23,"Extreme","Easier than Reference",18,4,"present","Not Enforced",2179,1817,1,0
"1ctomglu2e7i",24,"Moderate","Harder than Reference",39,18,"present","Not Enforced",1454,1909,0,1
"1ctomglu2e7i",25,"Extreme","Easier than Reference",18,39,"present","Not Enforced",1159,1502,0,0
"1ctomglu2e7i",26,"Moderate","Harder than Reference",39,18,"absent","Not Enforced",1464,4043,0,1
"1ctomglu2e7i",27,"Extreme","Harder than Reference",46,39,"absent","Not Enforced",1243,3576,0,1
"1ctomglu2e7i",29,"Moderate","Harder than Reference",39,18,"present","Not Enforced",1599,2637,0,1
"1ctomglu2e7i",30,"Moderate","Easier than Reference",18,39,"absent","Not Enforced",1118,1981,0,1
"1ctomglu2e7i",31,"Extreme","Harder than Reference",60,18,"absent","Not Enforced",1228,6539,0,0
"1ctomglu2e7i",32,"Extreme","Easier than Reference",25,60,"absent","Not Enforced",1303,4100,0,1
"1ctomglu2e7i",33,"Moderate","Harder than Reference",39,25,"present","Not Enforced",1033,1070,0,1
"1ctomglu2e7i",34,"Extreme","Harder than Reference",46,39,"absent","Not Enforced",1065,3591,0,1
"1ctomglu2e7i",35,"Moderate","Easier than Reference",18,46,"present","Not Enforced",1074,1221,0,1
"1ctomglu2e7i",36,"Extreme","Easier than Reference",25,18,"absent","Not Enforced",1455,2618,0,1
"1ctomglu2e7i",37,"Moderate","Harder than Reference",39,25,"present","Not Enforced",1419,3729,0,1
"1ctomglu2e7i",38,"Extreme","Harder than Reference",46,39,"present","Not Enforced",1110,1087,0,1
"1ctomglu2e7i",39,"Moderate","Easier than Reference",18,46,"present","Not Enforced",1161,783,0,1
"1ctomglu2e7i",40,"Extreme","Easier than Reference",25,18,"present","Not Enforced",714,2379,0,1
"1ctomglu2e7i",41,"Extreme","Harder than Reference",46,25,"present","Not Enforced",1095,1381,0,1
"1ctomglu2e7i",42,"Extreme","Easier than Reference",25,46,"present","Not Enforced",877,847,0,1
"1ctomglu2e7i",43,"Moderate","Harder than Reference",39,25,"absent","Not Enforced",1431,3344,0,1
"1ctomglu2e7i",44,"Moderate","Easier than Reference",18,39,"absent","Not Enforced",1103,3358,0,1
"1ctomglu2e7i",46,"Moderate","Easier than Reference",18,39,"present","Not Enforced",1302,3570,0,1
"1ctomglu2e7i",48,"Extreme","Easier than Reference",32,46,"present","Not Enforced",1022,3075,0,0
"1ctomglu2e7i",49,"Extreme","Easier than Reference",25,32,"present","Not Enforced",1107,2218,0,1
"1ctomglu2e7i",50,"Extreme","Harder than Reference",46,25,"absent","Not Enforced",918,9159,0,1
"1ctomglu2e7i",51,"Moderate","Easier than Reference",18,46,"present","Not Enforced",1467,1272,0,1
"1ctomglu2e7i",52,"Moderate","Harder than Reference",39,18,"absent","Not Enforced",1102,3343,0,1
"1ctomglu2e7i",53,"Moderate","Easier than Reference",18,39,"absent","Not Enforced",1289,3924,0,1
"1ctomglu2e7i",54,"Extreme","Harder than Reference",46,18,"absent","Not Enforced",916,2512,0,1
"1ctomglu2e7i",55,"Moderate","Harder than Reference",39,46,"present","Not Enforced",720,1049,0,1
"1ctomglu2e7i",56,"Extreme","Easier than Reference",25,39,"absent","Not Enforced",1103,2829,0,1
"1ctomglu2e7i",57,"Extreme","Harder than Reference",46,25,"present","Not Enforced",1015,1432,0,1
"1ctomglu2e7i",58,"Moderate","Easier than Reference",18,46,"absent","Not Enforced",879,1744,1,1
"1ctomglu2e7i",59,"Extreme","Easier than Reference",25,18,"absent","Not Enforced",690,4126,0,1
"1ctomglu2e7i",60,"Moderate","Harder than Reference",39,25,"absent","Not Enforced",1054,3320,1,1
"1ctomglu2e7i",61,"Extreme","Harder than Reference",46,39,"absent","Not Enforced",960,3341,1,1
"1ctomglu2e7i",62,"Extreme","Easier than Reference",25,46,"present","Not Enforced",769,925,0,1
"1ctomglu2e7i",63,"Moderate","Harder than Reference",39,25,"absent","Not Enforced",823,2580,0,1
"1ctomglu2e7i",64,"Moderate","Easier than Reference",18,39,"present","Not Enforced",932,948,0,1
"1ctomglu2e7i",65,"Moderate","Harder than Reference",39,18,"present","Not Enforced",952,2066,0,1
"1ctomglu2e7i",66,"Extreme","Easier than Reference",25,39,"present","Not Enforced",1063,1827,0,1
"1ctomglu2e7i",67,"Extreme","Harder than Reference",46,25,"present","Not Enforced",997,2889,0,1
"1ctomglu2e7i",68,"Moderate","Easier than Reference",18,46,"present","Not Enforced",1020,756,0,1
"1ctomglu2e7i",69,"Moderate","Harder than Reference",39,18,"absent","Not Enforced",659,1263,0,1
"1ctomglu2e7i",70,"Moderate","Easier than Reference",18,39,"present","Not Enforced",881,728,0,1
"1ctomglu2e7i",71,"Extreme","Harder than Reference",46,18,"present","Not Enforced",672,760,1,1
"1ctomglu2e7i",72,"Extreme","Easier than Reference",25,46,"absent","Not Enforced",877,1198,0,1
"1ctomglu2e7i",73,"Moderate","Easier than Reference",18,25,"present","Not Enforced",810,846,0,1
"1ctomglu2e7i",74,"Extreme","Harder than Reference",60,18,"present","Not Enforced",772,2108,0,0
"1ctomglu2e7i",75,"Moderate","Harder than Reference",39,60,"absent","Not Enforced",956,1130,0,1
"1ctomglu2e7i",76,"Extreme","Easier than Reference",25,39,"present","Not Enforced",1788,1455,0,1
"1ctomglu2e7i",77,"Moderate","Easier than Reference",18,25,"present","Not Enforced",982,946,0,1
"1ctomglu2e7i",78,"Moderate","Harder than Reference",39,18,"absent","Not Enforced",831,1604,0,1
"1ctomglu2e7i",79,"Extreme","Harder than Reference",46,39,"present","Not Enforced",856,834,0,1
"1ctomglu2e7i",80,"Extreme","Easier than Reference",25,46,"absent","Not Enforced",939,3327,0,1
"1ctomglu2e7i",81,"Extreme","Easier than Reference",25,25,"present","Not Enforced",909,2301,0,1
"1ctomglu2e7i",82,"Moderate","Easier than Reference",18,25,"present","Not Enforced",908,732,0,1
"1ctomglu2e7i",83,"Extreme","Harder than Reference",60,18,"absent","Not Enforced",991,1661,0,0
"1ctomglu2e7i",84,"Moderate","Harder than Reference",39,60,"absent","Not Enforced",646,1763,1,1
"1ctomglu2e7i",85,"Moderate","Easier than Reference",18,39,"absent","Not Enforced",731,2254,0,1
"1ctomglu2e7i",86,"Extreme","Harder than Reference",46,18,"absent","Not Enforced",926,2630,0,1
"1ctomglu2e7i",87,"Moderate","Harder than Reference",39,46,"present","Not Enforced",765,2718,1,1
"1ctomglu2e7i",88,"Extreme","Easier than Reference",25,39,"present","Not Enforced",933,1789,0,1
"1ctomglu2e7i",90,"Extreme","Harder than Reference",46,46,"absent","Not Enforced",405,944,0,1
"1ctomglu2e7i",91,"Moderate","Easier than Reference",18,46,"absent","Not Enforced",353,201,0,1
"1ctomglu2e7i",92,"Extreme","Easier than Reference",25,18,"absent","Not Enforced",355,1123,0,1
"1ctomglu2e7i",93,"Extreme","Harder than Reference",32,25,"present","Not Enforced",444,824,1,0
"1ctomglu2e7i",94,"Moderate","Easier than Reference",18,32,"absent","Not Enforced",1084,1256,0,1
"1ctomglu2e7i",95,"Moderate","Harder than Reference",39,18,"absent","Not Enforced",1107,1149,0,1
"1ctomglu2e7i",96,"Extreme","Easier than Reference",25,39,"absent","Not Enforced",770,1246,0,1
"1ctomglu2e7i",97,"Moderate","Harder than Reference",39,25,"absent","Not Enforced",1010,885,0,1
"1ctomglu2e7i",98,"Extreme","Harder than Reference",46,39,"absent","Not Enforced",771,1017,0,1
"1ctomglu2e7i",99,"Extreme","Easier than Reference",25,46,"absent","Not Enforced",501,1047,0,1
"1ctomglu2e7i",100,"Moderate","Easier than Reference",18,25,"absent","Not Enforced",1126,913,0,1
"1ctomglu2e7i",101,"Moderate","Harder than Reference",39,18,"absent","Not Enforced",522,1580,0,1
"1ctomglu2e7i",102,"Extreme","Easier than Reference",18,39,"present","Not Enforced",352,1161,0,0
"1ctomglu2e7i",103,"Extreme","Harder than Reference",46,18,"absent","Not Enforced",903,2327,0,1
