subject,sona_id,curTime,userAgent,screenWidth,screenHeight,windowWidth,windowHeight,phase,phase_run_time,trial,exp_runtime_mins,phase_runtime_mins,condition,magnitude,direction,choice_response_key,left_deck_id,right_deck_id,risky_deck_outcome_top,risky_deck_outcome_bottom,selected_deck_location,selectedRiskyDeck,error,n_stimuli,present_or_absent,chosenDeckId,choice_rt,searchRt,safe_deck_outcome
5qnkb9p8i0q_pilot,test_id,16/02/2022@18:10:55,"Mozilla/5.0 (Macintosh; Intel Mac OS X 10_15_7) AppleWebKit/605.1.15 (KHTML, like Gecko) Version/14.1 Safari/605.1.15",1440,900,1324,710,main,3165532,1,5,2,EM,Moderate,Easier than Reference,F,safeDeck,riskyDeck,0,-28,right,1,0,32,absent,riskyDeck,5574,7095,
5qnkb9p8i0q_pilot,test_id,16/02/2022@18:10:55,"Mozilla/5.0 (Macintosh; Intel Mac OS X 10_15_7) AppleWebKit/605.1.15 (KHTML, like Gecko) Version/14.1 Safari/605.1.15",1440,900,1324,710,main,3165532,2,5,2,HE,Extreme,Harder than Reference,D,riskyDeck,safeDeck,28,0,left,1,0,60,present,riskyDeck,2268,4803,14.0
5qnkb9p8i0q_pilot,test_id,16/02/2022@18:10:55,"Mozilla/5.0 (Macintosh; Intel Mac OS X 10_15_7) AppleWebKit/605.1.15 (KHTML, like Gecko) Version/14.1 Safari/605.1.15",1440,900,1324,710,main,3165532,3,5,2,EE,Extreme,Easier than Reference,D,safeDeck,riskyDeck,0,-14,left,0,0,25,absent,safeDeck,2106,5404,
5qnkb9p8i0q_pilot,test_id,16/02/2022@18:10:55,"Mozilla/5.0 (Macintosh; Intel Mac OS X 10_15_7) AppleWebKit/605.1.15 (KHTML, like Gecko) Version/14.1 Safari/605.1.15",1440,900,1324,710,main,3165532,4,5,2,HM,Moderate,Harder than Reference,F,riskyDeck,safeDeck,14,0,right,0,0,39,absent,safeDeck,2010,6169,7.0
5qnkb9p8i0q_pilot,test_id,16/02/2022@18:10:55,"Mozilla/5.0 (Macintosh; Intel Mac OS X 10_15_7) AppleWebKit/605.1.15 (KHTML, like Gecko) Version/14.1 Safari/605.1.15",1440,900,1324,710,main,3165532,5,5,3,HM,Moderate,Harder than Reference,D,riskyDeck,safeDeck,0,14,left,1,0,32,present,riskyDeck,1235,3446,7.0
5qnkb9p8i0q_pilot,test_id,16/02/2022@18:10:55,"Mozilla/5.0 (Macintosh; Intel Mac OS X 10_15_7) AppleWebKit/605.1.15 (KHTML, like Gecko) Version/14.1 Safari/605.1.15",1440,900,1324,710,main,3165532,6,5,3,HE,Extreme,Harder than Reference,F,safeDeck,riskyDeck,0,28,right,1,0,32,present,riskyDeck,1736,4149,
5qnkb9p8i0q_pilot,test_id,16/02/2022@18:10:55,"Mozilla/5.0 (Macintosh; Intel Mac OS X 10_15_7) AppleWebKit/605.1.15 (KHTML, like Gecko) Version/14.1 Safari/605.1.15",1440,900,1324,710,main,3165532,7,6,3,EE,Extreme,Easier than Reference,D,safeDeck,riskyDeck,-14,0,left,0,0,25,present,safeDeck,1102,4330,
5qnkb9p8i0q_pilot,test_id,16/02/2022@18:10:55,"Mozilla/5.0 (Macintosh; Intel Mac OS X 10_15_7) AppleWebKit/605.1.15 (KHTML, like Gecko) Version/14.1 Safari/605.1.15",1440,900,1324,710,main,3165532,8,6,3,EM,Moderate,Easier than Reference,F,safeDeck,riskyDeck,0,-28,right,1,0,32,present,riskyDeck,1553,3583,
5qnkb9p8i0q_pilot,test_id,16/02/2022@18:10:55,"Mozilla/5.0 (Macintosh; Intel Mac OS X 10_15_7) AppleWebKit/605.1.15 (KHTML, like Gecko) Version/14.1 Safari/605.1.15",1440,900,1324,710,main,3165532,9,6,3,HE,Extreme,Harder than Reference,D,riskyDeck,safeDeck,28,0,left,1,0,32,absent,riskyDeck,1827,4897,14.0
5qnkb9p8i0q_pilot,test_id,16/02/2022@18:10:55,"Mozilla/5.0 (Macintosh; Intel Mac OS X 10_15_7) AppleWebKit/605.1.15 (KHTML, like Gecko) Version/14.1 Safari/605.1.15",1440,900,1324,710,main,3165532,10,6,3,EM,Moderate,Easier than Reference,D,riskyDeck,safeDeck,0,-28,left,1,0,4,absent,riskyDeck,1485,2229,-14.0
5qnkb9p8i0q_pilot,test_id,16/02/2022@18:10:55,"Mozilla/5.0 (Macintosh; Intel Mac OS X 10_15_7) AppleWebKit/605.1.15 (KHTML, like Gecko) Version/14.1 Safari/605.1.15",1440,900,1324,710,main,3165532,11,6,3,HM,Moderate,Harder than Reference,F,riskyDeck,safeDeck,14,0,right,0,0,39,present,safeDeck,1889,3798,7.0
5qnkb9p8i0q_pilot,test_id,16/02/2022@18:10:55,"Mozilla/5.0 (Macintosh; Intel Mac OS X 10_15_7) AppleWebKit/605.1.15 (KHTML, like Gecko) Version/14.1 Safari/605.1.15",1440,900,1324,710,main,3165532,12,6,3,EE,Extreme,Easier than Reference,F,safeDeck,riskyDeck,-14,0,right,1,0,32,absent,riskyDeck,962,4125,
5qnkb9p8i0q_pilot,test_id,16/02/2022@18:10:55,"Mozilla/5.0 (Macintosh; Intel Mac OS X 10_15_7) AppleWebKit/605.1.15 (KHTML, like Gecko) Version/14.1 Safari/605.1.15",1440,900,1324,710,main,3165532,13,6,3,EE,Extreme,Easier than Reference,F,safeDeck,riskyDeck,0,-14,right,1,0,32,present,riskyDeck,1169,3629,
5qnkb9p8i0q_pilot,test_id,16/02/2022@18:10:55,"Mozilla/5.0 (Macintosh; Intel Mac OS X 10_15_7) AppleWebKit/605.1.15 (KHTML, like Gecko) Version/14.1 Safari/605.1.15",1440,900,1324,710,main,3165532,14,6,4,HE,Extreme,Harder than Reference,F,riskyDeck,safeDeck,0,28,right,0,0,46,absent,safeDeck,1010,4629,14.0
5qnkb9p8i0q_pilot,test_id,16/02/2022@18:10:55,"Mozilla/5.0 (Macintosh; Intel Mac OS X 10_15_7) AppleWebKit/605.1.15 (KHTML, like Gecko) Version/14.1 Safari/605.1.15",1440,900,1324,710,main,3165532,15,6,4,EM,Moderate,Easier than Reference,F,safeDeck,riskyDeck,-28,0,right,1,0,4,present,riskyDeck,1721,1128,
5qnkb9p8i0q_pilot,test_id,16/02/2022@18:10:55,"Mozilla/5.0 (Macintosh; Intel Mac OS X 10_15_7) AppleWebKit/605.1.15 (KHTML, like Gecko) Version/14.1 Safari/605.1.15",1440,900,1324,710,main,3165532,16,7,4,HM,Moderate,Harder than Reference,F,safeDeck,riskyDeck,0,14,right,1,0,32,absent,riskyDeck,2142,5858,
5qnkb9p8i0q_pilot,test_id,16/02/2022@18:10:55,"Mozilla/5.0 (Macintosh; Intel Mac OS X 10_15_7) AppleWebKit/605.1.15 (KHTML, like Gecko) Version/14.1 Safari/605.1.15",1440,900,1324,710,main,3165532,17,7,4,HE,Extreme,Harder than Reference,F,riskyDeck,safeDeck,28,0,right,0,0,46,absent,safeDeck,798,5000,14.0
5qnkb9p8i0q_pilot,test_id,16/02/2022@18:10:55,"Mozilla/5.0 (Macintosh; Intel Mac OS X 10_15_7) AppleWebKit/605.1.15 (KHTML, like Gecko) Version/14.1 Safari/605.1.15",1440,900,1324,710,main,3165532,18,7,4,HM,Moderate,Harder than Reference,F,riskyDeck,safeDeck,14,0,right,0,0,39,absent,safeDeck,724,5732,7.0
5qnkb9p8i0q_pilot,test_id,16/02/2022@18:10:55,"Mozilla/5.0 (Macintosh; Intel Mac OS X 10_15_7) AppleWebKit/605.1.15 (KHTML, like Gecko) Version/14.1 Safari/605.1.15",1440,900,1324,710,main,3165532,19,7,4,EM,Moderate,Easier than Reference,D,riskyDeck,safeDeck,-28,0,left,1,0,32,present,riskyDeck,1023,1227,-14.0
5qnkb9p8i0q_pilot,test_id,16/02/2022@18:10:55,"Mozilla/5.0 (Macintosh; Intel Mac OS X 10_15_7) AppleWebKit/605.1.15 (KHTML, like Gecko) Version/14.1 Safari/605.1.15",1440,900,1324,710,main,3165532,20,7,4,EE,Extreme,Easier than Reference,F,safeDeck,riskyDeck,0,-14,right,1,1,32,present,riskyDeck,752,3460,
5qnkb9p8i0q_pilot,test_id,16/02/2022@18:10:55,"Mozilla/5.0 (Macintosh; Intel Mac OS X 10_15_7) AppleWebKit/605.1.15 (KHTML, like Gecko) Version/14.1 Safari/605.1.15",1440,900,1324,710,main,3165532,21,7,4,HM,Moderate,Harder than Reference,F,safeDeck,riskyDeck,0,14,right,1,0,32,present,riskyDeck,1046,4681,
5qnkb9p8i0q_pilot,test_id,16/02/2022@18:10:55,"Mozilla/5.0 (Macintosh; Intel Mac OS X 10_15_7) AppleWebKit/605.1.15 (KHTML, like Gecko) Version/14.1 Safari/605.1.15",1440,900,1324,710,main,3165532,22,7,5,EE,Extreme,Easier than Reference,D,safeDeck,riskyDeck,0,-14,left,0,0,25,absent,safeDeck,663,4694,
5qnkb9p8i0q_pilot,test_id,16/02/2022@18:10:55,"Mozilla/5.0 (Macintosh; Intel Mac OS X 10_15_7) AppleWebKit/605.1.15 (KHTML, like Gecko) Version/14.1 Safari/605.1.15",1440,900,1324,710,main,3165532,23,7,5,EM,Moderate,Easier than Reference,F,riskyDeck,safeDeck,-28,0,right,0,0,18,present,safeDeck,714,4450,-14.0
5qnkb9p8i0q_pilot,test_id,16/02/2022@18:10:55,"Mozilla/5.0 (Macintosh; Intel Mac OS X 10_15_7) AppleWebKit/605.1.15 (KHTML, like Gecko) Version/14.1 Safari/605.1.15",1440,900,1324,710,main,3165532,24,8,5,HE,Extreme,Harder than Reference,F,safeDeck,riskyDeck,28,0,right,1,0,60,absent,riskyDeck,1093,5342,
5qnkb9p8i0q_pilot,test_id,16/02/2022@18:10:55,"Mozilla/5.0 (Macintosh; Intel Mac OS X 10_15_7) AppleWebKit/605.1.15 (KHTML, like Gecko) Version/14.1 Safari/605.1.15",1440,900,1324,710,main,3165532,25,8,5,EE,Extreme,Easier than Reference,F,safeDeck,riskyDeck,0,-14,right,1,0,18,absent,riskyDeck,1245,3295,
5qnkb9p8i0q_pilot,test_id,16/02/2022@18:10:55,"Mozilla/5.0 (Macintosh; Intel Mac OS X 10_15_7) AppleWebKit/605.1.15 (KHTML, like Gecko) Version/14.1 Safari/605.1.15",1440,900,1324,710,main,3165532,26,8,5,HE,Extreme,Harder than Reference,F,riskyDeck,safeDeck,28,0,right,0,0,46,absent,safeDeck,974,5846,14.0
5qnkb9p8i0q_pilot,test_id,16/02/2022@18:10:55,"Mozilla/5.0 (Macintosh; Intel Mac OS X 10_15_7) AppleWebKit/605.1.15 (KHTML, like Gecko) Version/14.1 Safari/605.1.15",1440,900,1324,710,main,3165532,27,8,5,HM,Moderate,Harder than Reference,F,riskyDeck,safeDeck,0,14,right,0,1,39,present,safeDeck,1010,9162,7.0
5qnkb9p8i0q_pilot,test_id,16/02/2022@18:10:55,"Mozilla/5.0 (Macintosh; Intel Mac OS X 10_15_7) AppleWebKit/605.1.15 (KHTML, like Gecko) Version/14.1 Safari/605.1.15",1440,900,1324,710,main,3165532,28,8,5,EM,Moderate,Easier than Reference,D,riskyDeck,safeDeck,-28,0,left,1,0,32,absent,riskyDeck,847,4941,-14.0
5qnkb9p8i0q_pilot,test_id,16/02/2022@18:10:55,"Mozilla/5.0 (Macintosh; Intel Mac OS X 10_15_7) AppleWebKit/605.1.15 (KHTML, like Gecko) Version/14.1 Safari/605.1.15",1440,900,1324,710,main,3165532,29,8,5,HM,Moderate,Harder than Reference,F,riskyDeck,safeDeck,0,14,right,0,0,39,absent,safeDeck,614,3755,7.0
5qnkb9p8i0q_pilot,test_id,16/02/2022@18:10:55,"Mozilla/5.0 (Macintosh; Intel Mac OS X 10_15_7) AppleWebKit/605.1.15 (KHTML, like Gecko) Version/14.1 Safari/605.1.15",1440,900,1324,710,main,3165532,30,8,6,EE,Extreme,Easier than Reference,D,riskyDeck,safeDeck,-14,0,left,1,0,32,present,riskyDeck,1392,1863,-7.0
5qnkb9p8i0q_pilot,test_id,16/02/2022@18:10:55,"Mozilla/5.0 (Macintosh; Intel Mac OS X 10_15_7) AppleWebKit/605.1.15 (KHTML, like Gecko) Version/14.1 Safari/605.1.15",1440,900,1324,710,main,3165532,31,8,6,HE,Extreme,Harder than Reference,F,riskyDeck,safeDeck,28,0,right,0,0,46,absent,safeDeck,910,6920,14.0
5qnkb9p8i0q_pilot,test_id,16/02/2022@18:10:55,"Mozilla/5.0 (Macintosh; Intel Mac OS X 10_15_7) AppleWebKit/605.1.15 (KHTML, like Gecko) Version/14.1 Safari/605.1.15",1440,900,1324,710,main,3165532,32,9,6,EM,Moderate,Easier than Reference,F,riskyDeck,safeDeck,0,-28,right,0,0,18,absent,safeDeck,598,6030,-14.0
5qnkb9p8i0q_pilot,test_id,16/02/2022@18:10:55,"Mozilla/5.0 (Macintosh; Intel Mac OS X 10_15_7) AppleWebKit/605.1.15 (KHTML, like Gecko) Version/14.1 Safari/605.1.15",1440,900,1324,710,main,3165532,33,9,6,HM,Moderate,Harder than Reference,F,safeDeck,riskyDeck,0,14,right,1,0,32,absent,riskyDeck,638,3092,
5qnkb9p8i0q_pilot,test_id,16/02/2022@18:10:55,"Mozilla/5.0 (Macintosh; Intel Mac OS X 10_15_7) AppleWebKit/605.1.15 (KHTML, like Gecko) Version/14.1 Safari/605.1.15",1440,900,1324,710,main,3165532,34,9,6,EE,Extreme,Easier than Reference,F,safeDeck,riskyDeck,0,-14,right,1,0,32,absent,riskyDeck,782,3395,
5qnkb9p8i0q_pilot,test_id,16/02/2022@18:10:55,"Mozilla/5.0 (Macintosh; Intel Mac OS X 10_15_7) AppleWebKit/605.1.15 (KHTML, like Gecko) Version/14.1 Safari/605.1.15",1440,900,1324,710,main,3165532,35,9,6,EM,Moderate,Easier than Reference,F,safeDeck,riskyDeck,-28,0,right,1,0,4,present,riskyDeck,725,872,
5qnkb9p8i0q_pilot,test_id,16/02/2022@18:10:55,"Mozilla/5.0 (Macintosh; Intel Mac OS X 10_15_7) AppleWebKit/605.1.15 (KHTML, like Gecko) Version/14.1 Safari/605.1.15",1440,900,1324,710,main,3165532,36,9,6,HE,Extreme,Harder than Reference,F,riskyDeck,safeDeck,28,0,right,0,0,46,absent,safeDeck,884,4531,14.0
5qnkb9p8i0q_pilot,test_id,16/02/2022@18:10:55,"Mozilla/5.0 (Macintosh; Intel Mac OS X 10_15_7) AppleWebKit/605.1.15 (KHTML, like Gecko) Version/14.1 Safari/605.1.15",1440,900,1324,710,main,3165532,37,9,6,EM,Moderate,Easier than Reference,F,riskyDeck,safeDeck,-28,0,right,0,0,18,present,safeDeck,413,932,-14.0
5qnkb9p8i0q_pilot,test_id,16/02/2022@18:10:55,"Mozilla/5.0 (Macintosh; Intel Mac OS X 10_15_7) AppleWebKit/605.1.15 (KHTML, like Gecko) Version/14.1 Safari/605.1.15",1440,900,1324,710,main,3165532,38,9,6,HE,Extreme,Harder than Reference,F,riskyDeck,safeDeck,0,28,right,0,0,46,present,safeDeck,773,3571,14.0
5qnkb9p8i0q_pilot,test_id,16/02/2022@18:10:55,"Mozilla/5.0 (Macintosh; Intel Mac OS X 10_15_7) AppleWebKit/605.1.15 (KHTML, like Gecko) Version/14.1 Safari/605.1.15",1440,900,1324,710,main,3165532,39,9,6,HM,Moderate,Harder than Reference,F,safeDeck,riskyDeck,0,14,right,1,1,32,absent,riskyDeck,622,3659,
5qnkb9p8i0q_pilot,test_id,16/02/2022@18:10:55,"Mozilla/5.0 (Macintosh; Intel Mac OS X 10_15_7) AppleWebKit/605.1.15 (KHTML, like Gecko) Version/14.1 Safari/605.1.15",1440,900,1324,710,main,3165532,40,9,7,EE,Extreme,Easier than Reference,F,riskyDeck,safeDeck,-14,0,right,0,0,25,absent,safeDeck,682,3326,-7.0
5qnkb9p8i0q_pilot,test_id,16/02/2022@18:10:55,"Mozilla/5.0 (Macintosh; Intel Mac OS X 10_15_7) AppleWebKit/605.1.15 (KHTML, like Gecko) Version/14.1 Safari/605.1.15",1440,900,1324,710,main,3165532,41,9,7,EE,Extreme,Easier than Reference,F,safeDeck,riskyDeck,-14,0,right,1,0,32,absent,riskyDeck,589,4839,
5qnkb9p8i0q_pilot,test_id,16/02/2022@18:10:55,"Mozilla/5.0 (Macintosh; Intel Mac OS X 10_15_7) AppleWebKit/605.1.15 (KHTML, like Gecko) Version/14.1 Safari/605.1.15",1440,900,1324,710,main,3165532,42,10,7,HM,Moderate,Harder than Reference,F,riskyDeck,safeDeck,14,0,right,0,0,39,absent,safeDeck,733,4536,7.0
5qnkb9p8i0q_pilot,test_id,16/02/2022@18:10:55,"Mozilla/5.0 (Macintosh; Intel Mac OS X 10_15_7) AppleWebKit/605.1.15 (KHTML, like Gecko) Version/14.1 Safari/605.1.15",1440,900,1324,710,main,3165532,43,10,7,EM,Moderate,Easier than Reference,F,riskyDeck,safeDeck,0,-28,right,0,0,18,absent,safeDeck,561,3397,-14.0
5qnkb9p8i0q_pilot,test_id,16/02/2022@18:10:55,"Mozilla/5.0 (Macintosh; Intel Mac OS X 10_15_7) AppleWebKit/605.1.15 (KHTML, like Gecko) Version/14.1 Safari/605.1.15",1440,900,1324,710,main,3165532,44,10,7,HE,Extreme,Harder than Reference,F,riskyDeck,safeDeck,28,0,right,0,1,46,present,safeDeck,551,5234,14.0
5qnkb9p8i0q_pilot,test_id,16/02/2022@18:10:55,"Mozilla/5.0 (Macintosh; Intel Mac OS X 10_15_7) AppleWebKit/605.1.15 (KHTML, like Gecko) Version/14.1 Safari/605.1.15",1440,900,1324,710,main,3165532,45,10,7,EE,Extreme,Easier than Reference,F,safeDeck,riskyDeck,-14,0,right,1,0,18,absent,riskyDeck,562,2926,
5qnkb9p8i0q_pilot,test_id,16/02/2022@18:10:55,"Mozilla/5.0 (Macintosh; Intel Mac OS X 10_15_7) AppleWebKit/605.1.15 (KHTML, like Gecko) Version/14.1 Safari/605.1.15",1440,900,1324,710,main,3165532,46,10,7,HM,Moderate,Harder than Reference,F,safeDeck,riskyDeck,14,0,right,1,0,32,present,riskyDeck,508,3875,
5qnkb9p8i0q_pilot,test_id,16/02/2022@18:10:55,"Mozilla/5.0 (Macintosh; Intel Mac OS X 10_15_7) AppleWebKit/605.1.15 (KHTML, like Gecko) Version/14.1 Safari/605.1.15",1440,900,1324,710,main,3165532,47,10,7,EM,Moderate,Easier than Reference,D,riskyDeck,safeDeck,0,-28,left,1,0,4,present,riskyDeck,692,733,-14.0
5qnkb9p8i0q_pilot,test_id,16/02/2022@18:10:55,"Mozilla/5.0 (Macintosh; Intel Mac OS X 10_15_7) AppleWebKit/605.1.15 (KHTML, like Gecko) Version/14.1 Safari/605.1.15",1440,900,1324,710,main,3165532,48,10,7,HE,Extreme,Harder than Reference,F,safeDeck,riskyDeck,28,0,right,1,1,60,present,riskyDeck,812,4463,
5qnkb9p8i0q_pilot,test_id,16/02/2022@18:10:55,"Mozilla/5.0 (Macintosh; Intel Mac OS X 10_15_7) AppleWebKit/605.1.15 (KHTML, like Gecko) Version/14.1 Safari/605.1.15",1440,900,1324,710,main,3165532,49,10,7,EM,Moderate,Easier than Reference,F,safeDeck,riskyDeck,-28,0,right,1,0,4,present,riskyDeck,695,1112,
5qnkb9p8i0q_pilot,test_id,16/02/2022@18:10:55,"Mozilla/5.0 (Macintosh; Intel Mac OS X 10_15_7) AppleWebKit/605.1.15 (KHTML, like Gecko) Version/14.1 Safari/605.1.15",1440,900,1324,710,main,3165532,50,10,8,HM,Moderate,Harder than Reference,F,safeDeck,riskyDeck,0,14,right,1,0,46,absent,riskyDeck,1037,7259,
5qnkb9p8i0q_pilot,test_id,16/02/2022@18:10:55,"Mozilla/5.0 (Macintosh; Intel Mac OS X 10_15_7) AppleWebKit/605.1.15 (KHTML, like Gecko) Version/14.1 Safari/605.1.15",1440,900,1324,710,main,3165532,51,11,8,EE,Extreme,Easier than Reference,D,riskyDeck,safeDeck,-14,0,left,1,0,18,absent,riskyDeck,2146,7325,-7.0
5qnkb9p8i0q_pilot,test_id,16/02/2022@18:10:55,"Mozilla/5.0 (Macintosh; Intel Mac OS X 10_15_7) AppleWebKit/605.1.15 (KHTML, like Gecko) Version/14.1 Safari/605.1.15",1440,900,1324,710,main,3165532,52,11,8,HE,Extreme,Harder than Reference,F,riskyDeck,safeDeck,28,0,right,0,0,46,present,safeDeck,567,1325,14.0
5qnkb9p8i0q_pilot,test_id,16/02/2022@18:10:55,"Mozilla/5.0 (Macintosh; Intel Mac OS X 10_15_7) AppleWebKit/605.1.15 (KHTML, like Gecko) Version/14.1 Safari/605.1.15",1440,900,1324,710,main,3165532,53,11,8,EM,Moderate,Easier than Reference,D,riskyDeck,safeDeck,-28,0,left,1,0,4,absent,riskyDeck,597,1143,-14.0
5qnkb9p8i0q_pilot,test_id,16/02/2022@18:10:55,"Mozilla/5.0 (Macintosh; Intel Mac OS X 10_15_7) AppleWebKit/605.1.15 (KHTML, like Gecko) Version/14.1 Safari/605.1.15",1440,900,1324,710,main,3165532,54,11,8,HE,Extreme,Harder than Reference,F,riskyDeck,safeDeck,28,0,right,0,0,46,present,safeDeck,1125,5592,14.0
5qnkb9p8i0q_pilot,test_id,16/02/2022@18:10:55,"Mozilla/5.0 (Macintosh; Intel Mac OS X 10_15_7) AppleWebKit/605.1.15 (KHTML, like Gecko) Version/14.1 Safari/605.1.15",1440,900,1324,710,main,3165532,55,11,8,HM,Moderate,Harder than Reference,F,safeDeck,riskyDeck,14,0,right,1,0,46,absent,riskyDeck,984,6215,
5qnkb9p8i0q_pilot,test_id,16/02/2022@18:10:55,"Mozilla/5.0 (Macintosh; Intel Mac OS X 10_15_7) AppleWebKit/605.1.15 (KHTML, like Gecko) Version/14.1 Safari/605.1.15",1440,900,1324,710,main,3165532,56,11,8,EE,Extreme,Easier than Reference,F,safeDeck,riskyDeck,-14,0,right,1,0,32,absent,riskyDeck,550,5421,
5qnkb9p8i0q_pilot,test_id,16/02/2022@18:10:55,"Mozilla/5.0 (Macintosh; Intel Mac OS X 10_15_7) AppleWebKit/605.1.15 (KHTML, like Gecko) Version/14.1 Safari/605.1.15",1440,900,1324,710,main,3165532,57,11,9,EM,Moderate,Easier than Reference,F,riskyDeck,safeDeck,0,-28,right,0,0,18,absent,safeDeck,389,5282,-14.0
5qnkb9p8i0q_pilot,test_id,16/02/2022@18:10:55,"Mozilla/5.0 (Macintosh; Intel Mac OS X 10_15_7) AppleWebKit/605.1.15 (KHTML, like Gecko) Version/14.1 Safari/605.1.15",1440,900,1324,710,main,3165532,58,11,9,EE,Extreme,Easier than Reference,D,safeDeck,riskyDeck,-14,0,left,0,0,25,present,safeDeck,1003,2864,
5qnkb9p8i0q_pilot,test_id,16/02/2022@18:10:55,"Mozilla/5.0 (Macintosh; Intel Mac OS X 10_15_7) AppleWebKit/605.1.15 (KHTML, like Gecko) Version/14.1 Safari/605.1.15",1440,900,1324,710,main,3165532,59,11,9,HM,Moderate,Harder than Reference,F,safeDeck,riskyDeck,0,14,right,1,0,32,present,riskyDeck,558,1920,
5qnkb9p8i0q_pilot,test_id,16/02/2022@18:10:55,"Mozilla/5.0 (Macintosh; Intel Mac OS X 10_15_7) AppleWebKit/605.1.15 (KHTML, like Gecko) Version/14.1 Safari/605.1.15",1440,900,1324,710,main,3165532,60,12,9,HE,Extreme,Harder than Reference,F,safeDeck,riskyDeck,0,28,right,1,0,60,absent,riskyDeck,342,5601,
5qnkb9p8i0q_pilot,test_id,16/02/2022@18:10:55,"Mozilla/5.0 (Macintosh; Intel Mac OS X 10_15_7) AppleWebKit/605.1.15 (KHTML, like Gecko) Version/14.1 Safari/605.1.15",1440,900,1324,710,main,3165532,61,12,9,EE,Extreme,Easier than Reference,D,riskyDeck,safeDeck,0,-14,left,1,0,18,present,riskyDeck,635,1415,-7.0
5qnkb9p8i0q_pilot,test_id,16/02/2022@18:10:55,"Mozilla/5.0 (Macintosh; Intel Mac OS X 10_15_7) AppleWebKit/605.1.15 (KHTML, like Gecko) Version/14.1 Safari/605.1.15",1440,900,1324,710,main,3165532,62,12,9,EM,Moderate,Easier than Reference,F,riskyDeck,safeDeck,0,-28,right,0,0,18,absent,safeDeck,329,4974,-14.0
5qnkb9p8i0q_pilot,test_id,16/02/2022@18:10:55,"Mozilla/5.0 (Macintosh; Intel Mac OS X 10_15_7) AppleWebKit/605.1.15 (KHTML, like Gecko) Version/14.1 Safari/605.1.15",1440,900,1324,710,main,3165532,63,12,9,HM,Moderate,Harder than Reference,F,safeDeck,riskyDeck,14,0,right,1,0,46,absent,riskyDeck,485,4334,
5qnkb9p8i0q_pilot,test_id,16/02/2022@18:10:55,"Mozilla/5.0 (Macintosh; Intel Mac OS X 10_15_7) AppleWebKit/605.1.15 (KHTML, like Gecko) Version/14.1 Safari/605.1.15",1440,900,1324,710,main,3165532,64,12,9,HE,Extreme,Harder than Reference,D,riskyDeck,safeDeck,0,28,left,1,0,32,absent,riskyDeck,3420,2814,14.0
5qnkb9p8i0q_pilot,test_id,16/02/2022@18:10:55,"Mozilla/5.0 (Macintosh; Intel Mac OS X 10_15_7) AppleWebKit/605.1.15 (KHTML, like Gecko) Version/14.1 Safari/605.1.15",1440,900,1324,710,main,3165532,65,12,9,EE,Extreme,Easier than Reference,F,safeDeck,riskyDeck,-14,0,right,1,0,32,present,riskyDeck,675,926,
5qnkb9p8i0q_pilot,test_id,16/02/2022@18:10:55,"Mozilla/5.0 (Macintosh; Intel Mac OS X 10_15_7) AppleWebKit/605.1.15 (KHTML, like Gecko) Version/14.1 Safari/605.1.15",1440,900,1324,710,main,3165532,66,12,9,EM,Moderate,Easier than Reference,D,riskyDeck,safeDeck,0,-28,left,1,0,32,absent,riskyDeck,568,3530,-14.0
5qnkb9p8i0q_pilot,test_id,16/02/2022@18:10:55,"Mozilla/5.0 (Macintosh; Intel Mac OS X 10_15_7) AppleWebKit/605.1.15 (KHTML, like Gecko) Version/14.1 Safari/605.1.15",1440,900,1324,710,main,3165532,67,12,9,HM,Moderate,Harder than Reference,F,riskyDeck,safeDeck,14,0,right,0,0,39,absent,safeDeck,642,4325,7.0
5qnkb9p8i0q_pilot,test_id,16/02/2022@18:10:55,"Mozilla/5.0 (Macintosh; Intel Mac OS X 10_15_7) AppleWebKit/605.1.15 (KHTML, like Gecko) Version/14.1 Safari/605.1.15",1440,900,1324,710,main,3165532,68,12,10,HE,Extreme,Harder than Reference,D,riskyDeck,safeDeck,28,0,left,1,1,32,present,riskyDeck,434,3420,14.0
5qnkb9p8i0q_pilot,test_id,16/02/2022@18:10:55,"Mozilla/5.0 (Macintosh; Intel Mac OS X 10_15_7) AppleWebKit/605.1.15 (KHTML, like Gecko) Version/14.1 Safari/605.1.15",1440,900,1324,710,main,3165532,69,12,10,EE,Extreme,Easier than Reference,F,riskyDeck,safeDeck,0,-14,right,0,0,25,present,safeDeck,468,951,-7.0
5qnkb9p8i0q_pilot,test_id,16/02/2022@18:10:55,"Mozilla/5.0 (Macintosh; Intel Mac OS X 10_15_7) AppleWebKit/605.1.15 (KHTML, like Gecko) Version/14.1 Safari/605.1.15",1440,900,1324,710,main,3165532,70,12,10,HE,Extreme,Harder than Reference,D,riskyDeck,safeDeck,28,0,left,1,0,32,present,riskyDeck,679,2304,14.0
5qnkb9p8i0q_pilot,test_id,16/02/2022@18:10:55,"Mozilla/5.0 (Macintosh; Intel Mac OS X 10_15_7) AppleWebKit/605.1.15 (KHTML, like Gecko) Version/14.1 Safari/605.1.15",1440,900,1324,710,main,3165532,71,13,10,EM,Moderate,Easier than Reference,F,safeDeck,riskyDeck,0,-28,right,1,0,4,present,riskyDeck,779,968,
5qnkb9p8i0q_pilot,test_id,16/02/2022@18:10:55,"Mozilla/5.0 (Macintosh; Intel Mac OS X 10_15_7) AppleWebKit/605.1.15 (KHTML, like Gecko) Version/14.1 Safari/605.1.15",1440,900,1324,710,main,3165532,72,13,10,HM,Moderate,Harder than Reference,D,riskyDeck,safeDeck,14,0,left,1,0,32,absent,riskyDeck,644,6605,7.0
5qnkb9p8i0q_pilot,test_id,16/02/2022@18:10:55,"Mozilla/5.0 (Macintosh; Intel Mac OS X 10_15_7) AppleWebKit/605.1.15 (KHTML, like Gecko) Version/14.1 Safari/605.1.15",1440,900,1324,710,main,3165532,73,13,10,HE,Extreme,Harder than Reference,F,riskyDeck,safeDeck,0,28,right,0,0,46,present,safeDeck,628,2237,14.0
5qnkb9p8i0q_pilot,test_id,16/02/2022@18:10:55,"Mozilla/5.0 (Macintosh; Intel Mac OS X 10_15_7) AppleWebKit/605.1.15 (KHTML, like Gecko) Version/14.1 Safari/605.1.15",1440,900,1324,710,main,3165532,74,13,10,EM,Moderate,Easier than Reference,D,riskyDeck,safeDeck,0,-28,left,1,0,4,absent,riskyDeck,693,1405,-14.0
5qnkb9p8i0q_pilot,test_id,16/02/2022@18:10:55,"Mozilla/5.0 (Macintosh; Intel Mac OS X 10_15_7) AppleWebKit/605.1.15 (KHTML, like Gecko) Version/14.1 Safari/605.1.15",1440,900,1324,710,main,3165532,75,13,10,HM,Moderate,Harder than Reference,F,safeDeck,riskyDeck,14,0,right,1,0,46,present,riskyDeck,362,1116,
5qnkb9p8i0q_pilot,test_id,16/02/2022@18:10:55,"Mozilla/5.0 (Macintosh; Intel Mac OS X 10_15_7) AppleWebKit/605.1.15 (KHTML, like Gecko) Version/14.1 Safari/605.1.15",1440,900,1324,710,main,3165532,76,13,10,EE,Extreme,Easier than Reference,D,riskyDeck,safeDeck,0,-14,left,1,0,18,present,riskyDeck,282,2060,-7.0
5qnkb9p8i0q_pilot,test_id,16/02/2022@18:10:55,"Mozilla/5.0 (Macintosh; Intel Mac OS X 10_15_7) AppleWebKit/605.1.15 (KHTML, like Gecko) Version/14.1 Safari/605.1.15",1440,900,1324,710,main,3165532,77,13,10,EM,Moderate,Easier than Reference,F,safeDeck,riskyDeck,-28,0,right,1,0,32,present,riskyDeck,322,1638,
5qnkb9p8i0q_pilot,test_id,16/02/2022@18:10:55,"Mozilla/5.0 (Macintosh; Intel Mac OS X 10_15_7) AppleWebKit/605.1.15 (KHTML, like Gecko) Version/14.1 Safari/605.1.15",1440,900,1324,710,main,3165532,78,13,10,HE,Extreme,Harder than Reference,D,safeDeck,riskyDeck,28,0,left,0,0,46,present,safeDeck,349,2070,
5qnkb9p8i0q_pilot,test_id,16/02/2022@18:10:55,"Mozilla/5.0 (Macintosh; Intel Mac OS X 10_15_7) AppleWebKit/605.1.15 (KHTML, like Gecko) Version/14.1 Safari/605.1.15",1440,900,1324,710,main,3165532,79,13,10,HM,Moderate,Harder than Reference,F,safeDeck,riskyDeck,14,0,right,1,0,32,absent,riskyDeck,282,3482,
5qnkb9p8i0q_pilot,test_id,16/02/2022@18:10:55,"Mozilla/5.0 (Macintosh; Intel Mac OS X 10_15_7) AppleWebKit/605.1.15 (KHTML, like Gecko) Version/14.1 Safari/605.1.15",1440,900,1324,710,main,3165532,80,13,10,EE,Extreme,Easier than Reference,F,safeDeck,riskyDeck,-14,0,right,1,0,18,present,riskyDeck,266,1195,
5qnkb9p8i0q_pilot,test_id,16/02/2022@18:10:55,"Mozilla/5.0 (Macintosh; Intel Mac OS X 10_15_7) AppleWebKit/605.1.15 (KHTML, like Gecko) Version/14.1 Safari/605.1.15",1440,900,1324,710,main,3165532,81,13,11,HM,Moderate,Harder than Reference,D,riskyDeck,safeDeck,14,0,left,1,0,32,absent,riskyDeck,257,6959,7.0
5qnkb9p8i0q_pilot,test_id,16/02/2022@18:10:55,"Mozilla/5.0 (Macintosh; Intel Mac OS X 10_15_7) AppleWebKit/605.1.15 (KHTML, like Gecko) Version/14.1 Safari/605.1.15",1440,900,1324,710,main,3165532,82,13,11,EE,Extreme,Easier than Reference,F,safeDeck,riskyDeck,0,-14,right,1,0,32,absent,riskyDeck,344,3863,
5qnkb9p8i0q_pilot,test_id,16/02/2022@18:10:55,"Mozilla/5.0 (Macintosh; Intel Mac OS X 10_15_7) AppleWebKit/605.1.15 (KHTML, like Gecko) Version/14.1 Safari/605.1.15",1440,900,1324,710,main,3165532,83,14,11,HE,Extreme,Harder than Reference,F,riskyDeck,safeDeck,0,28,right,0,0,46,absent,safeDeck,326,6865,14.0
5qnkb9p8i0q_pilot,test_id,16/02/2022@18:10:55,"Mozilla/5.0 (Macintosh; Intel Mac OS X 10_15_7) AppleWebKit/605.1.15 (KHTML, like Gecko) Version/14.1 Safari/605.1.15",1440,900,1324,710,main,3165532,84,14,11,EM,Moderate,Easier than Reference,F,riskyDeck,safeDeck,0,-28,right,0,0,18,absent,safeDeck,201,2157,-14.0
5qnkb9p8i0q_pilot,test_id,16/02/2022@18:10:55,"Mozilla/5.0 (Macintosh; Intel Mac OS X 10_15_7) AppleWebKit/605.1.15 (KHTML, like Gecko) Version/14.1 Safari/605.1.15",1440,900,1324,710,main,3165532,85,14,11,HE,Extreme,Harder than Reference,F,riskyDeck,safeDeck,28,0,right,0,0,46,present,safeDeck,271,1902,14.0
5qnkb9p8i0q_pilot,test_id,16/02/2022@18:10:55,"Mozilla/5.0 (Macintosh; Intel Mac OS X 10_15_7) AppleWebKit/605.1.15 (KHTML, like Gecko) Version/14.1 Safari/605.1.15",1440,900,1324,710,main,3165532,86,14,11,EM,Moderate,Easier than Reference,D,safeDeck,riskyDeck,-28,0,left,0,0,18,absent,safeDeck,140,5766,
5qnkb9p8i0q_pilot,test_id,16/02/2022@18:10:55,"Mozilla/5.0 (Macintosh; Intel Mac OS X 10_15_7) AppleWebKit/605.1.15 (KHTML, like Gecko) Version/14.1 Safari/605.1.15",1440,900,1324,710,main,3165532,87,14,11,EE,Extreme,Easier than Reference,D,safeDeck,riskyDeck,0,-14,left,0,0,25,present,safeDeck,255,2714,
5qnkb9p8i0q_pilot,test_id,16/02/2022@18:10:55,"Mozilla/5.0 (Macintosh; Intel Mac OS X 10_15_7) AppleWebKit/605.1.15 (KHTML, like Gecko) Version/14.1 Safari/605.1.15",1440,900,1324,710,main,3165532,88,14,11,HM,Moderate,Harder than Reference,F,riskyDeck,safeDeck,14,0,right,0,0,39,present,safeDeck,899,1934,7.0
5qnkb9p8i0q_pilot,test_id,16/02/2022@18:10:55,"Mozilla/5.0 (Macintosh; Intel Mac OS X 10_15_7) AppleWebKit/605.1.15 (KHTML, like Gecko) Version/14.1 Safari/605.1.15",1440,900,1324,710,main,3165532,89,14,11,HM,Moderate,Harder than Reference,F,safeDeck,riskyDeck,14,0,right,1,0,46,present,riskyDeck,1011,3725,
5qnkb9p8i0q_pilot,test_id,16/02/2022@18:10:55,"Mozilla/5.0 (Macintosh; Intel Mac OS X 10_15_7) AppleWebKit/605.1.15 (KHTML, like Gecko) Version/14.1 Safari/605.1.15",1440,900,1324,710,main,3165532,90,14,11,HE,Extreme,Harder than Reference,D,safeDeck,riskyDeck,28,0,left,0,0,46,present,safeDeck,206,1706,
5qnkb9p8i0q_pilot,test_id,16/02/2022@18:10:55,"Mozilla/5.0 (Macintosh; Intel Mac OS X 10_15_7) AppleWebKit/605.1.15 (KHTML, like Gecko) Version/14.1 Safari/605.1.15",1440,900,1324,710,main,3165532,91,14,11,EE,Extreme,Easier than Reference,F,safeDeck,riskyDeck,0,-14,right,1,0,18,absent,riskyDeck,828,1652,
5qnkb9p8i0q_pilot,test_id,16/02/2022@18:10:55,"Mozilla/5.0 (Macintosh; Intel Mac OS X 10_15_7) AppleWebKit/605.1.15 (KHTML, like Gecko) Version/14.1 Safari/605.1.15",1440,900,1324,710,main,3165532,92,14,11,EM,Moderate,Easier than Reference,F,safeDeck,riskyDeck,0,-28,right,1,0,32,present,riskyDeck,906,1227,
5qnkb9p8i0q_pilot,test_id,16/02/2022@18:10:55,"Mozilla/5.0 (Macintosh; Intel Mac OS X 10_15_7) AppleWebKit/605.1.15 (KHTML, like Gecko) Version/14.1 Safari/605.1.15",1440,900,1324,710,main,3165532,93,14,12,EM,Moderate,Easier than Reference,F,safeDeck,riskyDeck,-28,0,right,1,0,4,absent,riskyDeck,628,1001,
5qnkb9p8i0q_pilot,test_id,16/02/2022@18:10:55,"Mozilla/5.0 (Macintosh; Intel Mac OS X 10_15_7) AppleWebKit/605.1.15 (KHTML, like Gecko) Version/14.1 Safari/605.1.15",1440,900,1324,710,main,3165532,94,14,12,EE,Extreme,Easier than Reference,F,safeDeck,riskyDeck,-14,0,right,1,0,18,absent,riskyDeck,431,3358,
5qnkb9p8i0q_pilot,test_id,16/02/2022@18:10:55,"Mozilla/5.0 (Macintosh; Intel Mac OS X 10_15_7) AppleWebKit/605.1.15 (KHTML, like Gecko) Version/14.1 Safari/605.1.15",1440,900,1324,710,main,3165532,95,15,12,HE,Extreme,Harder than Reference,F,riskyDeck,safeDeck,0,28,right,0,0,46,absent,safeDeck,905,4092,14.0
5qnkb9p8i0q_pilot,test_id,16/02/2022@18:10:55,"Mozilla/5.0 (Macintosh; Intel Mac OS X 10_15_7) AppleWebKit/605.1.15 (KHTML, like Gecko) Version/14.1 Safari/605.1.15",1440,900,1324,710,main,3165532,96,15,12,HM,Moderate,Harder than Reference,D,riskyDeck,safeDeck,0,14,left,1,0,46,present,riskyDeck,279,1892,7.0
5qnkb9p8i0q_pilot,test_id,16/02/2022@18:10:55,"Mozilla/5.0 (Macintosh; Intel Mac OS X 10_15_7) AppleWebKit/605.1.15 (KHTML, like Gecko) Version/14.1 Safari/605.1.15",1440,900,1324,710,main,3165532,97,15,12,EM,Moderate,Easier than Reference,F,safeDeck,riskyDeck,0,-28,right,1,0,32,absent,riskyDeck,493,2266,
5qnkb9p8i0q_pilot,test_id,16/02/2022@18:10:55,"Mozilla/5.0 (Macintosh; Intel Mac OS X 10_15_7) AppleWebKit/605.1.15 (KHTML, like Gecko) Version/14.1 Safari/605.1.15",1440,900,1324,710,main,3165532,98,15,12,EE,Extreme,Easier than Reference,D,riskyDeck,safeDeck,-14,0,left,1,0,32,absent,riskyDeck,192,2671,-7.0
5qnkb9p8i0q_pilot,test_id,16/02/2022@18:10:55,"Mozilla/5.0 (Macintosh; Intel Mac OS X 10_15_7) AppleWebKit/605.1.15 (KHTML, like Gecko) Version/14.1 Safari/605.1.15",1440,900,1324,710,main,3165532,99,15,12,HE,Extreme,Harder than Reference,F,safeDeck,riskyDeck,28,0,right,1,0,32,absent,riskyDeck,338,3263,
5qnkb9p8i0q_pilot,test_id,16/02/2022@18:10:55,"Mozilla/5.0 (Macintosh; Intel Mac OS X 10_15_7) AppleWebKit/605.1.15 (KHTML, like Gecko) Version/14.1 Safari/605.1.15",1440,900,1324,710,main,3165532,100,15,12,HM,Moderate,Harder than Reference,D,safeDeck,riskyDeck,14,0,left,0,0,39,absent,safeDeck,259,2928,
5qnkb9p8i0q_pilot,test_id,16/02/2022@18:10:55,"Mozilla/5.0 (Macintosh; Intel Mac OS X 10_15_7) AppleWebKit/605.1.15 (KHTML, like Gecko) Version/14.1 Safari/605.1.15",1440,900,1324,710,main,3165532,101,16,13,EM,Moderate,Easier than Reference,D,riskyDeck,safeDeck,0,-28,left,1,0,4,absent,riskyDeck,1441,1550,-14.0
5qnkb9p8i0q_pilot,test_id,16/02/2022@18:10:55,"Mozilla/5.0 (Macintosh; Intel Mac OS X 10_15_7) AppleWebKit/605.1.15 (KHTML, like Gecko) Version/14.1 Safari/605.1.15",1440,900,1324,710,main,3165532,102,16,13,EE,Extreme,Easier than Reference,F,riskyDeck,safeDeck,-14,0,right,0,0,25,absent,safeDeck,674,2317,-7.0
5qnkb9p8i0q_pilot,test_id,16/02/2022@18:10:55,"Mozilla/5.0 (Macintosh; Intel Mac OS X 10_15_7) AppleWebKit/605.1.15 (KHTML, like Gecko) Version/14.1 Safari/605.1.15",1440,900,1324,710,main,3165532,103,16,13,HM,Moderate,Harder than Reference,D,riskyDeck,safeDeck,0,14,left,1,0,32,present,riskyDeck,535,1583,7.0
5qnkb9p8i0q_pilot,test_id,16/02/2022@18:10:55,"Mozilla/5.0 (Macintosh; Intel Mac OS X 10_15_7) AppleWebKit/605.1.15 (KHTML, like Gecko) Version/14.1 Safari/605.1.15",1440,900,1324,710,main,3165532,104,16,13,HE,Extreme,Harder than Reference,F,safeDeck,riskyDeck,0,28,right,1,1,60,present,riskyDeck,431,8219,
5qnkb9p8i0q_pilot,test_id,16/02/2022@18:10:55,"Mozilla/5.0 (Macintosh; Intel Mac OS X 10_15_7) AppleWebKit/605.1.15 (KHTML, like Gecko) Version/14.1 Safari/605.1.15",1440,900,1324,710,main,3165532,105,16,13,HM,Moderate,Harder than Reference,F,riskyDeck,safeDeck,14,0,right,0,0,39,absent,safeDeck,558,2359,7.0
5qnkb9p8i0q_pilot,test_id,16/02/2022@18:10:55,"Mozilla/5.0 (Macintosh; Intel Mac OS X 10_15_7) AppleWebKit/605.1.15 (KHTML, like Gecko) Version/14.1 Safari/605.1.15",1440,900,1324,710,main,3165532,106,16,13,HE,Extreme,Harder than Reference,F,safeDeck,riskyDeck,28,0,right,1,0,60,present,riskyDeck,541,6242,
5qnkb9p8i0q_pilot,test_id,16/02/2022@18:10:55,"Mozilla/5.0 (Macintosh; Intel Mac OS X 10_15_7) AppleWebKit/605.1.15 (KHTML, like Gecko) Version/14.1 Safari/605.1.15",1440,900,1324,710,main,3165532,107,16,13,EM,Moderate,Easier than Reference,D,riskyDeck,safeDeck,0,-28,left,1,1,32,present,riskyDeck,675,2400,-14.0
5qnkb9p8i0q_pilot,test_id,16/02/2022@18:10:55,"Mozilla/5.0 (Macintosh; Intel Mac OS X 10_15_7) AppleWebKit/605.1.15 (KHTML, like Gecko) Version/14.1 Safari/605.1.15",1440,900,1324,710,main,3165532,108,16,13,EE,Extreme,Easier than Reference,F,safeDeck,riskyDeck,0,-14,right,1,0,32,absent,riskyDeck,242,2519,
5qnkb9p8i0q_pilot,test_id,16/02/2022@18:10:55,"Mozilla/5.0 (Macintosh; Intel Mac OS X 10_15_7) AppleWebKit/605.1.15 (KHTML, like Gecko) Version/14.1 Safari/605.1.15",1440,900,1324,710,main,3165532,109,16,14,EE,Extreme,Easier than Reference,F,riskyDeck,safeDeck,0,-14,right,0,0,25,absent,safeDeck,288,3295,-7.0
5qnkb9p8i0q_pilot,test_id,16/02/2022@18:10:55,"Mozilla/5.0 (Macintosh; Intel Mac OS X 10_15_7) AppleWebKit/605.1.15 (KHTML, like Gecko) Version/14.1 Safari/605.1.15",1440,900,1324,710,main,3165532,110,16,14,HM,Moderate,Harder than Reference,F,safeDeck,riskyDeck,0,14,right,1,0,32,present,riskyDeck,241,1927,
5qnkb9p8i0q_pilot,test_id,16/02/2022@18:10:55,"Mozilla/5.0 (Macintosh; Intel Mac OS X 10_15_7) AppleWebKit/605.1.15 (KHTML, like Gecko) Version/14.1 Safari/605.1.15",1440,900,1324,710,main,3165532,111,16,14,HE,Extreme,Harder than Reference,D,safeDeck,riskyDeck,28,0,left,0,0,46,present,safeDeck,271,1171,
5qnkb9p8i0q_pilot,test_id,16/02/2022@18:10:55,"Mozilla/5.0 (Macintosh; Intel Mac OS X 10_15_7) AppleWebKit/605.1.15 (KHTML, like Gecko) Version/14.1 Safari/605.1.15",1440,900,1324,710,main,3165532,112,16,14,EM,Moderate,Easier than Reference,F,safeDeck,riskyDeck,0,-28,right,1,0,4,present,riskyDeck,315,1121,
5qnkb9p8i0q_pilot,test_id,16/02/2022@18:10:55,"Mozilla/5.0 (Macintosh; Intel Mac OS X 10_15_7) AppleWebKit/605.1.15 (KHTML, like Gecko) Version/14.1 Safari/605.1.15",1440,900,1324,710,main,3165532,113,17,14,HE,Extreme,Harder than Reference,F,safeDeck,riskyDeck,0,28,right,1,0,32,present,riskyDeck,418,3461,
5qnkb9p8i0q_pilot,test_id,16/02/2022@18:10:55,"Mozilla/5.0 (Macintosh; Intel Mac OS X 10_15_7) AppleWebKit/605.1.15 (KHTML, like Gecko) Version/14.1 Safari/605.1.15",1440,900,1324,710,main,3165532,114,17,14,EM,Moderate,Easier than Reference,D,riskyDeck,safeDeck,-28,0,left,1,0,32,present,riskyDeck,587,1962,-14.0
5qnkb9p8i0q_pilot,test_id,16/02/2022@18:10:55,"Mozilla/5.0 (Macintosh; Intel Mac OS X 10_15_7) AppleWebKit/605.1.15 (KHTML, like Gecko) Version/14.1 Safari/605.1.15",1440,900,1324,710,main,3165532,115,17,14,EE,Extreme,Easier than Reference,F,riskyDeck,safeDeck,-14,0,right,0,0,25,absent,safeDeck,196,4332,-7.0
5qnkb9p8i0q_pilot,test_id,16/02/2022@18:10:55,"Mozilla/5.0 (Macintosh; Intel Mac OS X 10_15_7) AppleWebKit/605.1.15 (KHTML, like Gecko) Version/14.1 Safari/605.1.15",1440,900,1324,710,main,3165532,116,17,14,HM,Moderate,Harder than Reference,F,safeDeck,riskyDeck,0,14,right,1,1,46,present,riskyDeck,662,3342,
5qnkb9p8i0q_pilot,test_id,16/02/2022@18:10:55,"Mozilla/5.0 (Macintosh; Intel Mac OS X 10_15_7) AppleWebKit/605.1.15 (KHTML, like Gecko) Version/14.1 Safari/605.1.15",1440,900,1324,710,main,3165532,117,17,14,EM,Moderate,Easier than Reference,F,safeDeck,riskyDeck,0,-28,right,1,0,4,absent,riskyDeck,705,1072,
5qnkb9p8i0q_pilot,test_id,16/02/2022@18:10:55,"Mozilla/5.0 (Macintosh; Intel Mac OS X 10_15_7) AppleWebKit/605.1.15 (KHTML, like Gecko) Version/14.1 Safari/605.1.15",1440,900,1324,710,main,3165532,118,17,14,HE,Extreme,Harder than Reference,F,safeDeck,riskyDeck,28,0,right,1,1,60,present,riskyDeck,717,9329,
5qnkb9p8i0q_pilot,test_id,16/02/2022@18:10:55,"Mozilla/5.0 (Macintosh; Intel Mac OS X 10_15_7) AppleWebKit/605.1.15 (KHTML, like Gecko) Version/14.1 Safari/605.1.15",1440,900,1324,710,main,3165532,119,17,14,EE,Extreme,Easier than Reference,F,safeDeck,riskyDeck,-14,0,right,1,0,18,present,riskyDeck,434,2355,
5qnkb9p8i0q_pilot,test_id,16/02/2022@18:10:55,"Mozilla/5.0 (Macintosh; Intel Mac OS X 10_15_7) AppleWebKit/605.1.15 (KHTML, like Gecko) Version/14.1 Safari/605.1.15",1440,900,1324,710,main,3165532,120,17,15,HM,Moderate,Harder than Reference,F,safeDeck,riskyDeck,14,0,right,1,0,46,present,riskyDeck,753,4852,
5qnkb9p8i0q_pilot,test_id,16/02/2022@18:10:55,"Mozilla/5.0 (Macintosh; Intel Mac OS X 10_15_7) AppleWebKit/605.1.15 (KHTML, like Gecko) Version/14.1 Safari/605.1.15",1440,900,1324,710,main,3165532,121,17,15,HM,Moderate,Harder than Reference,D,riskyDeck,safeDeck,14,0,left,1,0,46,absent,riskyDeck,316,4968,7.0
5qnkb9p8i0q_pilot,test_id,16/02/2022@18:10:55,"Mozilla/5.0 (Macintosh; Intel Mac OS X 10_15_7) AppleWebKit/605.1.15 (KHTML, like Gecko) Version/14.1 Safari/605.1.15",1440,900,1324,710,main,3165532,122,18,15,EM,Moderate,Easier than Reference,F,riskyDeck,safeDeck,-28,0,right,0,0,18,absent,safeDeck,181,2707,-14.0
5qnkb9p8i0q_pilot,test_id,16/02/2022@18:10:55,"Mozilla/5.0 (Macintosh; Intel Mac OS X 10_15_7) AppleWebKit/605.1.15 (KHTML, like Gecko) Version/14.1 Safari/605.1.15",1440,900,1324,710,main,3165532,123,18,15,EE,Extreme,Easier than Reference,D,riskyDeck,safeDeck,0,-14,left,1,1,18,present,riskyDeck,532,2774,-7.0
5qnkb9p8i0q_pilot,test_id,16/02/2022@18:10:55,"Mozilla/5.0 (Macintosh; Intel Mac OS X 10_15_7) AppleWebKit/605.1.15 (KHTML, like Gecko) Version/14.1 Safari/605.1.15",1440,900,1324,710,main,3165532,124,18,15,HE,Extreme,Harder than Reference,F,riskyDeck,safeDeck,0,28,right,0,0,46,present,safeDeck,520,1750,14.0
5qnkb9p8i0q_pilot,test_id,16/02/2022@18:10:55,"Mozilla/5.0 (Macintosh; Intel Mac OS X 10_15_7) AppleWebKit/605.1.15 (KHTML, like Gecko) Version/14.1 Safari/605.1.15",1440,900,1324,710,main,3165532,125,18,15,HM,Moderate,Harder than Reference,F,riskyDeck,safeDeck,14,0,right,0,0,39,absent,safeDeck,722,6853,7.0
5qnkb9p8i0q_pilot,test_id,16/02/2022@18:10:55,"Mozilla/5.0 (Macintosh; Intel Mac OS X 10_15_7) AppleWebKit/605.1.15 (KHTML, like Gecko) Version/14.1 Safari/605.1.15",1440,900,1324,710,main,3165532,126,18,15,EE,Extreme,Easier than Reference,F,safeDeck,riskyDeck,0,-14,right,1,0,18,present,riskyDeck,563,1366,
5qnkb9p8i0q_pilot,test_id,16/02/2022@18:10:55,"Mozilla/5.0 (Macintosh; Intel Mac OS X 10_15_7) AppleWebKit/605.1.15 (KHTML, like Gecko) Version/14.1 Safari/605.1.15",1440,900,1324,710,main,3165532,127,18,15,HE,Extreme,Harder than Reference,F,safeDeck,riskyDeck,0,28,right,1,0,60,absent,riskyDeck,661,10927,
5qnkb9p8i0q_pilot,test_id,16/02/2022@18:10:55,"Mozilla/5.0 (Macintosh; Intel Mac OS X 10_15_7) AppleWebKit/605.1.15 (KHTML, like Gecko) Version/14.1 Safari/605.1.15",1440,900,1324,710,main,3165532,128,18,15,EM,Moderate,Easier than Reference,F,riskyDeck,safeDeck,-28,0,right,0,0,18,absent,safeDeck,212,3621,-14.0
5qnkb9p8i0q_pilot,test_id,16/02/2022@18:10:55,"Mozilla/5.0 (Macintosh; Intel Mac OS X 10_15_7) AppleWebKit/605.1.15 (KHTML, like Gecko) Version/14.1 Safari/605.1.15",1440,900,1324,710,main,3165532,129,18,16,EE,Extreme,Easier than Reference,F,safeDeck,riskyDeck,-14,0,right,1,0,32,absent,riskyDeck,612,4067,
5qnkb9p8i0q_pilot,test_id,16/02/2022@18:10:55,"Mozilla/5.0 (Macintosh; Intel Mac OS X 10_15_7) AppleWebKit/605.1.15 (KHTML, like Gecko) Version/14.1 Safari/605.1.15",1440,900,1324,710,main,3165532,130,18,16,HE,Extreme,Harder than Reference,F,safeDeck,riskyDeck,0,28,right,1,0,32,absent,riskyDeck,175,4807,
5qnkb9p8i0q_pilot,test_id,16/02/2022@18:10:55,"Mozilla/5.0 (Macintosh; Intel Mac OS X 10_15_7) AppleWebKit/605.1.15 (KHTML, like Gecko) Version/14.1 Safari/605.1.15",1440,900,1324,710,main,3165532,131,19,16,EM,Moderate,Easier than Reference,D,safeDeck,riskyDeck,0,-28,left,0,0,18,present,safeDeck,334,2909,
5qnkb9p8i0q_pilot,test_id,16/02/2022@18:10:55,"Mozilla/5.0 (Macintosh; Intel Mac OS X 10_15_7) AppleWebKit/605.1.15 (KHTML, like Gecko) Version/14.1 Safari/605.1.15",1440,900,1324,710,main,3165532,132,19,16,HM,Moderate,Harder than Reference,D,riskyDeck,safeDeck,14,0,left,1,0,46,absent,riskyDeck,91,3911,7.0
5qnkb9p8i0q_pilot,test_id,16/02/2022@18:10:55,"Mozilla/5.0 (Macintosh; Intel Mac OS X 10_15_7) AppleWebKit/605.1.15 (KHTML, like Gecko) Version/14.1 Safari/605.1.15",1440,900,1324,710,main,3165532,133,19,16,HM,Moderate,Harder than Reference,F,safeDeck,riskyDeck,0,14,right,1,0,46,present,riskyDeck,220,4325,
5qnkb9p8i0q_pilot,test_id,16/02/2022@18:10:55,"Mozilla/5.0 (Macintosh; Intel Mac OS X 10_15_7) AppleWebKit/605.1.15 (KHTML, like Gecko) Version/14.1 Safari/605.1.15",1440,900,1324,710,main,3165532,134,19,16,EM,Moderate,Easier than Reference,D,riskyDeck,safeDeck,-28,0,left,1,0,32,absent,riskyDeck,127,4600,-14.0
5qnkb9p8i0q_pilot,test_id,16/02/2022@18:10:55,"Mozilla/5.0 (Macintosh; Intel Mac OS X 10_15_7) AppleWebKit/605.1.15 (KHTML, like Gecko) Version/14.1 Safari/605.1.15",1440,900,1324,710,main,3165532,135,19,16,EE,Extreme,Easier than Reference,D,riskyDeck,safeDeck,-14,0,left,1,0,18,absent,riskyDeck,174,1989,-7.0
5qnkb9p8i0q_pilot,test_id,16/02/2022@18:10:55,"Mozilla/5.0 (Macintosh; Intel Mac OS X 10_15_7) AppleWebKit/605.1.15 (KHTML, like Gecko) Version/14.1 Safari/605.1.15",1440,900,1324,710,main,3165532,136,19,16,HE,Extreme,Harder than Reference,F,safeDeck,riskyDeck,28,0,right,1,0,60,present,riskyDeck,720,2993,
5qnkb9p8i0q_pilot,test_id,16/02/2022@18:10:55,"Mozilla/5.0 (Macintosh; Intel Mac OS X 10_15_7) AppleWebKit/605.1.15 (KHTML, like Gecko) Version/14.1 Safari/605.1.15",1440,900,1324,710,main,3165532,137,19,16,EM,Moderate,Easier than Reference,F,safeDeck,riskyDeck,-28,0,right,1,0,32,absent,riskyDeck,925,2516,
5qnkb9p8i0q_pilot,test_id,16/02/2022@18:10:55,"Mozilla/5.0 (Macintosh; Intel Mac OS X 10_15_7) AppleWebKit/605.1.15 (KHTML, like Gecko) Version/14.1 Safari/605.1.15",1440,900,1324,710,main,3165532,138,19,16,HM,Moderate,Harder than Reference,D,safeDeck,riskyDeck,0,14,left,0,0,39,absent,safeDeck,277,4712,
5qnkb9p8i0q_pilot,test_id,16/02/2022@18:10:55,"Mozilla/5.0 (Macintosh; Intel Mac OS X 10_15_7) AppleWebKit/605.1.15 (KHTML, like Gecko) Version/14.1 Safari/605.1.15",1440,900,1324,710,main,3165532,139,19,16,EE,Extreme,Easier than Reference,F,safeDeck,riskyDeck,0,-14,right,1,0,18,absent,riskyDeck,350,4288,
5qnkb9p8i0q_pilot,test_id,16/02/2022@18:10:55,"Mozilla/5.0 (Macintosh; Intel Mac OS X 10_15_7) AppleWebKit/605.1.15 (KHTML, like Gecko) Version/14.1 Safari/605.1.15",1440,900,1324,710,main,3165532,140,19,17,HE,Extreme,Harder than Reference,F,safeDeck,riskyDeck,0,28,right,1,1,60,present,riskyDeck,513,5374,
5qnkb9p8i0q_pilot,test_id,16/02/2022@18:10:55,"Mozilla/5.0 (Macintosh; Intel Mac OS X 10_15_7) AppleWebKit/605.1.15 (KHTML, like Gecko) Version/14.1 Safari/605.1.15",1440,900,1324,710,main,3165532,141,20,17,HE,Extreme,Harder than Reference,F,safeDeck,riskyDeck,0,28,right,1,0,32,absent,riskyDeck,466,8045,
5qnkb9p8i0q_pilot,test_id,16/02/2022@18:10:55,"Mozilla/5.0 (Macintosh; Intel Mac OS X 10_15_7) AppleWebKit/605.1.15 (KHTML, like Gecko) Version/14.1 Safari/605.1.15",1440,900,1324,710,main,3165532,142,20,17,HM,Moderate,Harder than Reference,D,riskyDeck,safeDeck,14,0,left,1,0,46,present,riskyDeck,316,3939,7.0
5qnkb9p8i0q_pilot,test_id,16/02/2022@18:10:55,"Mozilla/5.0 (Macintosh; Intel Mac OS X 10_15_7) AppleWebKit/605.1.15 (KHTML, like Gecko) Version/14.1 Safari/605.1.15",1440,900,1324,710,main,3165532,143,20,17,EM,Moderate,Easier than Reference,F,safeDeck,riskyDeck,-28,0,right,1,0,4,present,riskyDeck,659,902,
5qnkb9p8i0q_pilot,test_id,16/02/2022@18:10:55,"Mozilla/5.0 (Macintosh; Intel Mac OS X 10_15_7) AppleWebKit/605.1.15 (KHTML, like Gecko) Version/14.1 Safari/605.1.15",1440,900,1324,710,main,3165532,144,20,17,EE,Extreme,Easier than Reference,F,safeDeck,riskyDeck,0,-14,right,1,0,18,present,riskyDeck,500,2769,
5qnkb9p8i0q_pilot,test_id,16/02/2022@18:10:55,"Mozilla/5.0 (Macintosh; Intel Mac OS X 10_15_7) AppleWebKit/605.1.15 (KHTML, like Gecko) Version/14.1 Safari/605.1.15",1440,900,1324,710,main,3165532,145,20,17,HM,Moderate,Harder than Reference,F,riskyDeck,safeDeck,14,0,right,0,0,39,present,safeDeck,460,1371,7.0
5qnkb9p8i0q_pilot,test_id,16/02/2022@18:10:55,"Mozilla/5.0 (Macintosh; Intel Mac OS X 10_15_7) AppleWebKit/605.1.15 (KHTML, like Gecko) Version/14.1 Safari/605.1.15",1440,900,1324,710,main,3165532,146,20,17,EE,Extreme,Easier than Reference,D,riskyDeck,safeDeck,0,-14,left,1,0,18,absent,riskyDeck,501,1924,-7.0
5qnkb9p8i0q_pilot,test_id,16/02/2022@18:10:55,"Mozilla/5.0 (Macintosh; Intel Mac OS X 10_15_7) AppleWebKit/605.1.15 (KHTML, like Gecko) Version/14.1 Safari/605.1.15",1440,900,1324,710,main,3165532,147,20,17,EM,Moderate,Easier than Reference,F,safeDeck,riskyDeck,-28,0,right,1,0,32,absent,riskyDeck,454,3960,
5qnkb9p8i0q_pilot,test_id,16/02/2022@18:10:55,"Mozilla/5.0 (Macintosh; Intel Mac OS X 10_15_7) AppleWebKit/605.1.15 (KHTML, like Gecko) Version/14.1 Safari/605.1.15",1440,900,1324,710,main,3165532,148,20,17,HE,Extreme,Harder than Reference,F,riskyDeck,safeDeck,0,28,right,0,0,46,absent,safeDeck,599,4206,14.0
5qnkb9p8i0q_pilot,test_id,16/02/2022@18:10:55,"Mozilla/5.0 (Macintosh; Intel Mac OS X 10_15_7) AppleWebKit/605.1.15 (KHTML, like Gecko) Version/14.1 Safari/605.1.15",1440,900,1324,710,main,3165532,149,20,17,EE,Extreme,Easier than Reference,F,riskyDeck,safeDeck,-14,0,right,0,0,25,present,safeDeck,208,3548,-7.0
5qnkb9p8i0q_pilot,test_id,16/02/2022@18:10:55,"Mozilla/5.0 (Macintosh; Intel Mac OS X 10_15_7) AppleWebKit/605.1.15 (KHTML, like Gecko) Version/14.1 Safari/605.1.15",1440,900,1324,710,main,3165532,150,20,17,EM,Moderate,Easier than Reference,D,safeDeck,riskyDeck,-28,0,left,0,0,18,absent,safeDeck,138,2582,
5qnkb9p8i0q_pilot,test_id,16/02/2022@18:10:55,"Mozilla/5.0 (Macintosh; Intel Mac OS X 10_15_7) AppleWebKit/605.1.15 (KHTML, like Gecko) Version/14.1 Safari/605.1.15",1440,900,1324,710,main,3165532,151,21,18,HM,Moderate,Harder than Reference,D,riskyDeck,safeDeck,14,0,left,1,0,46,absent,riskyDeck,1721,4742,7.0
5qnkb9p8i0q_pilot,test_id,16/02/2022@18:10:55,"Mozilla/5.0 (Macintosh; Intel Mac OS X 10_15_7) AppleWebKit/605.1.15 (KHTML, like Gecko) Version/14.1 Safari/605.1.15",1440,900,1324,710,main,3165532,152,21,18,HE,Extreme,Harder than Reference,F,safeDeck,riskyDeck,0,28,right,1,0,32,present,riskyDeck,292,1548,
5qnkb9p8i0q_pilot,test_id,16/02/2022@18:10:55,"Mozilla/5.0 (Macintosh; Intel Mac OS X 10_15_7) AppleWebKit/605.1.15 (KHTML, like Gecko) Version/14.1 Safari/605.1.15",1440,900,1324,710,main,3165532,153,21,18,HM,Moderate,Harder than Reference,D,safeDeck,riskyDeck,14,0,left,0,0,39,present,safeDeck,168,745,
5qnkb9p8i0q_pilot,test_id,16/02/2022@18:10:55,"Mozilla/5.0 (Macintosh; Intel Mac OS X 10_15_7) AppleWebKit/605.1.15 (KHTML, like Gecko) Version/14.1 Safari/605.1.15",1440,900,1324,710,main,3165532,154,21,18,HE,Extreme,Harder than Reference,F,riskyDeck,safeDeck,28,0,right,0,0,46,present,safeDeck,178,1352,14.0
5qnkb9p8i0q_pilot,test_id,16/02/2022@18:10:55,"Mozilla/5.0 (Macintosh; Intel Mac OS X 10_15_7) AppleWebKit/605.1.15 (KHTML, like Gecko) Version/14.1 Safari/605.1.15",1440,900,1324,710,main,3165532,155,21,18,EM,Moderate,Easier than Reference,D,safeDeck,riskyDeck,0,-28,left,0,0,18,present,safeDeck,32,729,
5qnkb9p8i0q_pilot,test_id,16/02/2022@18:10:55,"Mozilla/5.0 (Macintosh; Intel Mac OS X 10_15_7) AppleWebKit/605.1.15 (KHTML, like Gecko) Version/14.1 Safari/605.1.15",1440,900,1324,710,main,3165532,156,21,19,EE,Extreme,Easier than Reference,D,safeDeck,riskyDeck,0,-14,left,0,1,25,present,safeDeck,18,1724,
5qnkb9p8i0q_pilot,test_id,16/02/2022@18:10:55,"Mozilla/5.0 (Macintosh; Intel Mac OS X 10_15_7) AppleWebKit/605.1.15 (KHTML, like Gecko) Version/14.1 Safari/605.1.15",1440,900,1324,710,main,3165532,157,21,19,EM,Moderate,Easier than Reference,F,safeDeck,riskyDeck,-28,0,right,1,0,4,absent,riskyDeck,305,1138,
5qnkb9p8i0q_pilot,test_id,16/02/2022@18:10:55,"Mozilla/5.0 (Macintosh; Intel Mac OS X 10_15_7) AppleWebKit/605.1.15 (KHTML, like Gecko) Version/14.1 Safari/605.1.15",1440,900,1324,710,main,3165532,158,21,19,HE,Extreme,Harder than Reference,F,riskyDeck,safeDeck,0,28,right,0,0,46,present,safeDeck,616,3904,14.0
5qnkb9p8i0q_pilot,test_id,16/02/2022@18:10:55,"Mozilla/5.0 (Macintosh; Intel Mac OS X 10_15_7) AppleWebKit/605.1.15 (KHTML, like Gecko) Version/14.1 Safari/605.1.15",1440,900,1324,710,main,3165532,159,22,19,HM,Moderate,Harder than Reference,D,riskyDeck,safeDeck,14,0,left,1,0,32,present,riskyDeck,165,1894,7.0
5qnkb9p8i0q_pilot,test_id,16/02/2022@18:10:55,"Mozilla/5.0 (Macintosh; Intel Mac OS X 10_15_7) AppleWebKit/605.1.15 (KHTML, like Gecko) Version/14.1 Safari/605.1.15",1440,900,1324,710,main,3165532,160,22,19,EE,Extreme,Easier than Reference,F,riskyDeck,safeDeck,-14,0,right,0,0,25,absent,safeDeck,20,4484,-7.0
5qnkb9p8i0q_pilot,test_id,16/02/2022@18:10:55,"Mozilla/5.0 (Macintosh; Intel Mac OS X 10_15_7) AppleWebKit/605.1.15 (KHTML, like Gecko) Version/14.1 Safari/605.1.15",1440,900,1324,710,main,3165532,161,22,19,EE,Extreme,Easier than Reference,F,safeDeck,riskyDeck,-14,0,right,1,1,18,present,riskyDeck,46,4151,
5qnkb9p8i0q_pilot,test_id,16/02/2022@18:10:55,"Mozilla/5.0 (Macintosh; Intel Mac OS X 10_15_7) AppleWebKit/605.1.15 (KHTML, like Gecko) Version/14.1 Safari/605.1.15",1440,900,1324,710,main,3165532,162,22,19,HM,Moderate,Harder than Reference,F,safeDeck,riskyDeck,14,0,right,1,0,32,present,riskyDeck,89,2114,
5qnkb9p8i0q_pilot,test_id,16/02/2022@18:10:55,"Mozilla/5.0 (Macintosh; Intel Mac OS X 10_15_7) AppleWebKit/605.1.15 (KHTML, like Gecko) Version/14.1 Safari/605.1.15",1440,900,1324,710,main,3165532,163,22,19,HE,Extreme,Harder than Reference,D,safeDeck,riskyDeck,28,0,left,0,0,46,absent,safeDeck,88,7628,
5qnkb9p8i0q_pilot,test_id,16/02/2022@18:10:55,"Mozilla/5.0 (Macintosh; Intel Mac OS X 10_15_7) AppleWebKit/605.1.15 (KHTML, like Gecko) Version/14.1 Safari/605.1.15",1440,900,1324,710,main,3165532,164,22,19,EM,Moderate,Easier than Reference,F,safeDeck,riskyDeck,-28,0,right,1,0,32,present,riskyDeck,62,4270,
5qnkb9p8i0q_pilot,test_id,16/02/2022@18:10:55,"Mozilla/5.0 (Macintosh; Intel Mac OS X 10_15_7) AppleWebKit/605.1.15 (KHTML, like Gecko) Version/14.1 Safari/605.1.15",1440,900,1324,710,main,3165532,165,22,19,EM,Moderate,Easier than Reference,D,riskyDeck,safeDeck,0,-28,left,1,0,32,present,riskyDeck,1576,1707,-14.0
5qnkb9p8i0q_pilot,test_id,16/02/2022@18:10:55,"Mozilla/5.0 (Macintosh; Intel Mac OS X 10_15_7) AppleWebKit/605.1.15 (KHTML, like Gecko) Version/14.1 Safari/605.1.15",1440,900,1324,710,main,3165532,166,22,19,EE,Extreme,Easier than Reference,D,riskyDeck,safeDeck,0,-14,left,1,0,18,present,riskyDeck,396,2101,-7.0
5qnkb9p8i0q_pilot,test_id,16/02/2022@18:10:55,"Mozilla/5.0 (Macintosh; Intel Mac OS X 10_15_7) AppleWebKit/605.1.15 (KHTML, like Gecko) Version/14.1 Safari/605.1.15",1440,900,1324,710,main,3165532,167,22,20,HM,Moderate,Harder than Reference,F,riskyDeck,safeDeck,14,0,right,0,0,39,absent,safeDeck,101,5428,7.0
5qnkb9p8i0q_pilot,test_id,16/02/2022@18:10:55,"Mozilla/5.0 (Macintosh; Intel Mac OS X 10_15_7) AppleWebKit/605.1.15 (KHTML, like Gecko) Version/14.1 Safari/605.1.15",1440,900,1324,710,main,3165532,168,22,20,HE,Extreme,Harder than Reference,F,riskyDeck,safeDeck,0,28,right,0,1,46,present,safeDeck,235,5140,14.0
5qnkb9p8i0q_pilot,test_id,16/02/2022@18:10:55,"Mozilla/5.0 (Macintosh; Intel Mac OS X 10_15_7) AppleWebKit/605.1.15 (KHTML, like Gecko) Version/14.1 Safari/605.1.15",1440,900,1324,710,main,3165532,169,23,20,HE,Extreme,Harder than Reference,F,safeDeck,riskyDeck,28,0,right,1,0,32,present,riskyDeck,443,1833,
5qnkb9p8i0q_pilot,test_id,16/02/2022@18:10:55,"Mozilla/5.0 (Macintosh; Intel Mac OS X 10_15_7) AppleWebKit/605.1.15 (KHTML, like Gecko) Version/14.1 Safari/605.1.15",1440,900,1324,710,main,3165532,170,23,20,EM,Moderate,Easier than Reference,D,riskyDeck,safeDeck,-28,0,left,1,0,32,present,riskyDeck,300,1548,-14.0
5qnkb9p8i0q_pilot,test_id,16/02/2022@18:10:55,"Mozilla/5.0 (Macintosh; Intel Mac OS X 10_15_7) AppleWebKit/605.1.15 (KHTML, like Gecko) Version/14.1 Safari/605.1.15",1440,900,1324,710,main,3165532,171,23,20,EE,Extreme,Easier than Reference,D,riskyDeck,safeDeck,-14,0,left,1,0,18,absent,riskyDeck,180,2548,-7.0
5qnkb9p8i0q_pilot,test_id,16/02/2022@18:10:55,"Mozilla/5.0 (Macintosh; Intel Mac OS X 10_15_7) AppleWebKit/605.1.15 (KHTML, like Gecko) Version/14.1 Safari/605.1.15",1440,900,1324,710,main,3165532,172,23,20,HM,Moderate,Harder than Reference,F,safeDeck,riskyDeck,0,14,right,1,0,46,absent,riskyDeck,130,5460,
5qnkb9p8i0q_pilot,test_id,16/02/2022@18:10:55,"Mozilla/5.0 (Macintosh; Intel Mac OS X 10_15_7) AppleWebKit/605.1.15 (KHTML, like Gecko) Version/14.1 Safari/605.1.15",1440,900,1324,710,main,3165532,173,23,20,HE,Extreme,Harder than Reference,F,safeDeck,riskyDeck,0,28,right,1,0,60,absent,riskyDeck,99,4603,
5qnkb9p8i0q_pilot,test_id,16/02/2022@18:10:55,"Mozilla/5.0 (Macintosh; Intel Mac OS X 10_15_7) AppleWebKit/605.1.15 (KHTML, like Gecko) Version/14.1 Safari/605.1.15",1440,900,1324,710,main,3165532,174,23,20,EM,Moderate,Easier than Reference,F,riskyDeck,safeDeck,0,-28,right,0,0,18,present,safeDeck,124,906,-14.0
5qnkb9p8i0q_pilot,test_id,16/02/2022@18:10:55,"Mozilla/5.0 (Macintosh; Intel Mac OS X 10_15_7) AppleWebKit/605.1.15 (KHTML, like Gecko) Version/14.1 Safari/605.1.15",1440,900,1324,710,main,3165532,175,23,20,EE,Extreme,Easier than Reference,D,riskyDeck,safeDeck,0,-14,left,1,0,18,absent,riskyDeck,52,3336,-7.0
5qnkb9p8i0q_pilot,test_id,16/02/2022@18:10:55,"Mozilla/5.0 (Macintosh; Intel Mac OS X 10_15_7) AppleWebKit/605.1.15 (KHTML, like Gecko) Version/14.1 Safari/605.1.15",1440,900,1324,710,main,3165532,176,23,20,HM,Moderate,Harder than Reference,D,riskyDeck,safeDeck,14,0,left,1,0,46,present,riskyDeck,208,3318,7.0
5qnkb9p8i0q_pilot,test_id,16/02/2022@18:10:55,"Mozilla/5.0 (Macintosh; Intel Mac OS X 10_15_7) AppleWebKit/605.1.15 (KHTML, like Gecko) Version/14.1 Safari/605.1.15",1440,900,1324,710,main,3165532,177,23,20,HE,Extreme,Harder than Reference,D,riskyDeck,safeDeck,0,28,left,1,0,32,absent,riskyDeck,52,3026,14.0
5qnkb9p8i0q_pilot,test_id,16/02/2022@18:10:55,"Mozilla/5.0 (Macintosh; Intel Mac OS X 10_15_7) AppleWebKit/605.1.15 (KHTML, like Gecko) Version/14.1 Safari/605.1.15",1440,900,1324,710,main,3165532,178,23,20,HM,Moderate,Harder than Reference,D,riskyDeck,safeDeck,0,14,left,1,0,32,present,riskyDeck,291,1884,7.0
5qnkb9p8i0q_pilot,test_id,16/02/2022@18:10:55,"Mozilla/5.0 (Macintosh; Intel Mac OS X 10_15_7) AppleWebKit/605.1.15 (KHTML, like Gecko) Version/14.1 Safari/605.1.15",1440,900,1324,710,main,3165532,179,23,21,EE,Extreme,Easier than Reference,D,riskyDeck,safeDeck,-14,0,left,1,0,18,present,riskyDeck,301,1937,-7.0
5qnkb9p8i0q_pilot,test_id,16/02/2022@18:10:55,"Mozilla/5.0 (Macintosh; Intel Mac OS X 10_15_7) AppleWebKit/605.1.15 (KHTML, like Gecko) Version/14.1 Safari/605.1.15",1440,900,1324,710,main,3165532,180,23,21,EM,Moderate,Easier than Reference,D,safeDeck,riskyDeck,0,-28,left,0,0,18,present,safeDeck,118,1698,
5qnkb9p8i0q_pilot,test_id,16/02/2022@18:10:55,"Mozilla/5.0 (Macintosh; Intel Mac OS X 10_15_7) AppleWebKit/605.1.15 (KHTML, like Gecko) Version/14.1 Safari/605.1.15",1440,900,1324,710,main,3165532,181,24,21,HE,Extreme,Harder than Reference,D,riskyDeck,safeDeck,28,0,left,1,0,60,absent,riskyDeck,542,6788,14.0
5qnkb9p8i0q_pilot,test_id,16/02/2022@18:10:55,"Mozilla/5.0 (Macintosh; Intel Mac OS X 10_15_7) AppleWebKit/605.1.15 (KHTML, like Gecko) Version/14.1 Safari/605.1.15",1440,900,1324,710,main,3165532,182,24,21,EE,Extreme,Easier than Reference,D,safeDeck,riskyDeck,-14,0,left,0,0,25,present,safeDeck,243,1381,
5qnkb9p8i0q_pilot,test_id,16/02/2022@18:10:55,"Mozilla/5.0 (Macintosh; Intel Mac OS X 10_15_7) AppleWebKit/605.1.15 (KHTML, like Gecko) Version/14.1 Safari/605.1.15",1440,900,1324,710,main,3165532,183,24,21,EM,Moderate,Easier than Reference,F,riskyDeck,safeDeck,0,-28,right,0,0,18,absent,safeDeck,304,2938,-14.0
5qnkb9p8i0q_pilot,test_id,16/02/2022@18:10:55,"Mozilla/5.0 (Macintosh; Intel Mac OS X 10_15_7) AppleWebKit/605.1.15 (KHTML, like Gecko) Version/14.1 Safari/605.1.15",1440,900,1324,710,main,3165532,184,24,21,HM,Moderate,Harder than Reference,F,riskyDeck,safeDeck,14,0,right,0,1,39,present,safeDeck,73,8698,7.0
5qnkb9p8i0q_pilot,test_id,16/02/2022@18:10:55,"Mozilla/5.0 (Macintosh; Intel Mac OS X 10_15_7) AppleWebKit/605.1.15 (KHTML, like Gecko) Version/14.1 Safari/605.1.15",1440,900,1324,710,main,3165532,185,24,21,EM,Moderate,Easier than Reference,F,riskyDeck,safeDeck,0,-28,right,0,0,18,absent,safeDeck,921,2340,-14.0
5qnkb9p8i0q_pilot,test_id,16/02/2022@18:10:55,"Mozilla/5.0 (Macintosh; Intel Mac OS X 10_15_7) AppleWebKit/605.1.15 (KHTML, like Gecko) Version/14.1 Safari/605.1.15",1440,900,1324,710,main,3165532,186,24,21,EE,Extreme,Easier than Reference,D,safeDeck,riskyDeck,-14,0,left,0,0,25,present,safeDeck,500,4061,
5qnkb9p8i0q_pilot,test_id,16/02/2022@18:10:55,"Mozilla/5.0 (Macintosh; Intel Mac OS X 10_15_7) AppleWebKit/605.1.15 (KHTML, like Gecko) Version/14.1 Safari/605.1.15",1440,900,1324,710,main,3165532,187,24,21,HE,Extreme,Harder than Reference,F,riskyDeck,safeDeck,0,28,right,0,0,46,present,safeDeck,916,5758,14.0
5qnkb9p8i0q_pilot,test_id,16/02/2022@18:10:55,"Mozilla/5.0 (Macintosh; Intel Mac OS X 10_15_7) AppleWebKit/605.1.15 (KHTML, like Gecko) Version/14.1 Safari/605.1.15",1440,900,1324,710,main,3165532,188,24,21,HM,Moderate,Harder than Reference,D,riskyDeck,safeDeck,14,0,left,1,1,46,absent,riskyDeck,424,4832,7.0
5qnkb9p8i0q_pilot,test_id,16/02/2022@18:10:55,"Mozilla/5.0 (Macintosh; Intel Mac OS X 10_15_7) AppleWebKit/605.1.15 (KHTML, like Gecko) Version/14.1 Safari/605.1.15",1440,900,1324,710,main,3165532,189,24,22,EM,Moderate,Easier than Reference,D,riskyDeck,safeDeck,0,-28,left,1,0,32,present,riskyDeck,703,1446,-14.0
5qnkb9p8i0q_pilot,test_id,16/02/2022@18:10:55,"Mozilla/5.0 (Macintosh; Intel Mac OS X 10_15_7) AppleWebKit/605.1.15 (KHTML, like Gecko) Version/14.1 Safari/605.1.15",1440,900,1324,710,main,3165532,190,25,22,HM,Moderate,Harder than Reference,F,riskyDeck,safeDeck,14,0,right,0,0,39,absent,safeDeck,559,7504,7.0
5qnkb9p8i0q_pilot,test_id,16/02/2022@18:10:55,"Mozilla/5.0 (Macintosh; Intel Mac OS X 10_15_7) AppleWebKit/605.1.15 (KHTML, like Gecko) Version/14.1 Safari/605.1.15",1440,900,1324,710,main,3165532,191,25,22,EE,Extreme,Easier than Reference,F,safeDeck,riskyDeck,0,-14,right,1,0,32,absent,riskyDeck,611,5622,
5qnkb9p8i0q_pilot,test_id,16/02/2022@18:10:55,"Mozilla/5.0 (Macintosh; Intel Mac OS X 10_15_7) AppleWebKit/605.1.15 (KHTML, like Gecko) Version/14.1 Safari/605.1.15",1440,900,1324,710,main,3165532,192,25,22,HE,Extreme,Harder than Reference,D,riskyDeck,safeDeck,0,28,left,1,0,32,present,riskyDeck,532,1347,14.0
5qnkb9p8i0q_pilot,test_id,16/02/2022@18:10:55,"Mozilla/5.0 (Macintosh; Intel Mac OS X 10_15_7) AppleWebKit/605.1.15 (KHTML, like Gecko) Version/14.1 Safari/605.1.15",1440,900,1324,710,main,3165532,193,25,22,EM,Moderate,Easier than Reference,F,safeDeck,riskyDeck,-28,0,right,1,0,32,absent,riskyDeck,1266,4680,
5qnkb9p8i0q_pilot,test_id,16/02/2022@18:10:55,"Mozilla/5.0 (Macintosh; Intel Mac OS X 10_15_7) AppleWebKit/605.1.15 (KHTML, like Gecko) Version/14.1 Safari/605.1.15",1440,900,1324,710,main,3165532,194,25,22,HM,Moderate,Harder than Reference,F,safeDeck,riskyDeck,14,0,right,1,0,46,absent,riskyDeck,220,7513,
5qnkb9p8i0q_pilot,test_id,16/02/2022@18:10:55,"Mozilla/5.0 (Macintosh; Intel Mac OS X 10_15_7) AppleWebKit/605.1.15 (KHTML, like Gecko) Version/14.1 Safari/605.1.15",1440,900,1324,710,main,3165532,195,25,22,EE,Extreme,Easier than Reference,F,safeDeck,riskyDeck,0,-14,right,1,0,18,absent,riskyDeck,195,4392,
5qnkb9p8i0q_pilot,test_id,16/02/2022@18:10:55,"Mozilla/5.0 (Macintosh; Intel Mac OS X 10_15_7) AppleWebKit/605.1.15 (KHTML, like Gecko) Version/14.1 Safari/605.1.15",1440,900,1324,710,main,3165532,196,25,22,HE,Extreme,Harder than Reference,F,riskyDeck,safeDeck,0,28,right,0,0,46,absent,safeDeck,122,4177,14.0
5qnkb9p8i0q_pilot,test_id,16/02/2022@18:10:55,"Mozilla/5.0 (Macintosh; Intel Mac OS X 10_15_7) AppleWebKit/605.1.15 (KHTML, like Gecko) Version/14.1 Safari/605.1.15",1440,900,1324,710,main,3165532,197,25,23,HE,Extreme,Harder than Reference,F,riskyDeck,safeDeck,0,28,right,0,0,46,present,safeDeck,201,5091,14.0
5qnkb9p8i0q_pilot,test_id,16/02/2022@18:10:55,"Mozilla/5.0 (Macintosh; Intel Mac OS X 10_15_7) AppleWebKit/605.1.15 (KHTML, like Gecko) Version/14.1 Safari/605.1.15",1440,900,1324,710,main,3165532,198,25,23,HM,Moderate,Harder than Reference,F,safeDeck,riskyDeck,0,14,right,1,0,46,present,riskyDeck,6,1541,
5qnkb9p8i0q_pilot,test_id,16/02/2022@18:10:55,"Mozilla/5.0 (Macintosh; Intel Mac OS X 10_15_7) AppleWebKit/605.1.15 (KHTML, like Gecko) Version/14.1 Safari/605.1.15",1440,900,1324,710,main,3165532,199,25,23,EM,Moderate,Easier than Reference,D,riskyDeck,safeDeck,-28,0,left,1,0,4,present,riskyDeck,234,888,-14.0
5qnkb9p8i0q_pilot,test_id,16/02/2022@18:10:55,"Mozilla/5.0 (Macintosh; Intel Mac OS X 10_15_7) AppleWebKit/605.1.15 (KHTML, like Gecko) Version/14.1 Safari/605.1.15",1440,900,1324,710,main,3165532,200,25,23,EE,Extreme,Easier than Reference,F,safeDeck,riskyDeck,0,-14,right,1,0,18,present,riskyDeck,131,1910,
5qnkb9p8i0q_pilot,test_id,16/02/2022@18:10:55,"Mozilla/5.0 (Macintosh; Intel Mac OS X 10_15_7) AppleWebKit/605.1.15 (KHTML, like Gecko) Version/14.1 Safari/605.1.15",1440,900,1324,710,main,3165532,201,26,23,HE,Extreme,Harder than Reference,F,riskyDeck,safeDeck,28,0,right,0,0,46,present,safeDeck,1431,4018,14.0
5qnkb9p8i0q_pilot,test_id,16/02/2022@18:10:55,"Mozilla/5.0 (Macintosh; Intel Mac OS X 10_15_7) AppleWebKit/605.1.15 (KHTML, like Gecko) Version/14.1 Safari/605.1.15",1440,900,1324,710,main,3165532,202,26,23,EM,Moderate,Easier than Reference,F,riskyDeck,safeDeck,-28,0,right,0,0,18,absent,safeDeck,260,2240,-14.0
5qnkb9p8i0q_pilot,test_id,16/02/2022@18:10:55,"Mozilla/5.0 (Macintosh; Intel Mac OS X 10_15_7) AppleWebKit/605.1.15 (KHTML, like Gecko) Version/14.1 Safari/605.1.15",1440,900,1324,710,main,3165532,203,26,23,HM,Moderate,Harder than Reference,D,safeDeck,riskyDeck,14,0,left,0,0,39,absent,safeDeck,36,4582,
5qnkb9p8i0q_pilot,test_id,16/02/2022@18:10:55,"Mozilla/5.0 (Macintosh; Intel Mac OS X 10_15_7) AppleWebKit/605.1.15 (KHTML, like Gecko) Version/14.1 Safari/605.1.15",1440,900,1324,710,main,3165532,204,26,23,EE,Extreme,Easier than Reference,F,safeDeck,riskyDeck,0,-14,right,1,0,18,absent,riskyDeck,75,3077,
5qnkb9p8i0q_pilot,test_id,16/02/2022@18:10:55,"Mozilla/5.0 (Macintosh; Intel Mac OS X 10_15_7) AppleWebKit/605.1.15 (KHTML, like Gecko) Version/14.1 Safari/605.1.15",1440,900,1324,710,main,3165532,205,26,23,HM,Moderate,Harder than Reference,F,riskyDeck,safeDeck,14,0,right,0,0,39,absent,safeDeck,280,4244,7.0
5qnkb9p8i0q_pilot,test_id,16/02/2022@18:10:55,"Mozilla/5.0 (Macintosh; Intel Mac OS X 10_15_7) AppleWebKit/605.1.15 (KHTML, like Gecko) Version/14.1 Safari/605.1.15",1440,900,1324,710,main,3165532,206,26,24,EE,Extreme,Easier than Reference,F,riskyDeck,safeDeck,-14,0,right,0,0,25,present,safeDeck,396,3180,-7.0
5qnkb9p8i0q_pilot,test_id,16/02/2022@18:10:55,"Mozilla/5.0 (Macintosh; Intel Mac OS X 10_15_7) AppleWebKit/605.1.15 (KHTML, like Gecko) Version/14.1 Safari/605.1.15",1440,900,1324,710,main,3165532,207,26,24,EM,Moderate,Easier than Reference,F,safeDeck,riskyDeck,0,-28,right,1,0,4,present,riskyDeck,553,1232,
5qnkb9p8i0q_pilot,test_id,16/02/2022@18:10:55,"Mozilla/5.0 (Macintosh; Intel Mac OS X 10_15_7) AppleWebKit/605.1.15 (KHTML, like Gecko) Version/14.1 Safari/605.1.15",1440,900,1324,710,main,3165532,208,27,24,HE,Extreme,Harder than Reference,F,riskyDeck,safeDeck,0,28,right,0,0,46,present,safeDeck,133,4521,14.0
5qnkb9p8i0q_pilot,test_id,16/02/2022@18:10:55,"Mozilla/5.0 (Macintosh; Intel Mac OS X 10_15_7) AppleWebKit/605.1.15 (KHTML, like Gecko) Version/14.1 Safari/605.1.15",1440,900,1324,710,main,3165532,209,27,24,HE,Extreme,Harder than Reference,D,riskyDeck,safeDeck,28,0,left,1,0,60,absent,riskyDeck,13,4765,14.0
5qnkb9p8i0q_pilot,test_id,16/02/2022@18:10:55,"Mozilla/5.0 (Macintosh; Intel Mac OS X 10_15_7) AppleWebKit/605.1.15 (KHTML, like Gecko) Version/14.1 Safari/605.1.15",1440,900,1324,710,main,3165532,210,27,24,HM,Moderate,Harder than Reference,F,safeDeck,riskyDeck,14,0,right,1,0,32,absent,riskyDeck,71,6104,
5qnkb9p8i0q_pilot,test_id,16/02/2022@18:10:55,"Mozilla/5.0 (Macintosh; Intel Mac OS X 10_15_7) AppleWebKit/605.1.15 (KHTML, like Gecko) Version/14.1 Safari/605.1.15",1440,900,1324,710,main,3165532,211,27,24,EM,Moderate,Easier than Reference,F,safeDeck,riskyDeck,-28,0,right,1,0,32,absent,riskyDeck,244,1607,
5qnkb9p8i0q_pilot,test_id,16/02/2022@18:10:55,"Mozilla/5.0 (Macintosh; Intel Mac OS X 10_15_7) AppleWebKit/605.1.15 (KHTML, like Gecko) Version/14.1 Safari/605.1.15",1440,900,1324,710,main,3165532,212,27,24,EE,Extreme,Easier than Reference,D,riskyDeck,safeDeck,-14,0,left,1,0,32,absent,riskyDeck,179,4269,-7.0
5qnkb9p8i0q_pilot,test_id,16/02/2022@18:10:55,"Mozilla/5.0 (Macintosh; Intel Mac OS X 10_15_7) AppleWebKit/605.1.15 (KHTML, like Gecko) Version/14.1 Safari/605.1.15",1440,900,1324,710,main,3165532,213,27,24,HE,Extreme,Harder than Reference,D,safeDeck,riskyDeck,0,28,left,0,0,46,absent,safeDeck,115,4033,
5qnkb9p8i0q_pilot,test_id,16/02/2022@18:10:55,"Mozilla/5.0 (Macintosh; Intel Mac OS X 10_15_7) AppleWebKit/605.1.15 (KHTML, like Gecko) Version/14.1 Safari/605.1.15",1440,900,1324,710,main,3165532,214,27,24,HM,Moderate,Harder than Reference,D,safeDeck,riskyDeck,0,14,left,0,0,39,absent,safeDeck,32,4576,
5qnkb9p8i0q_pilot,test_id,16/02/2022@18:10:55,"Mozilla/5.0 (Macintosh; Intel Mac OS X 10_15_7) AppleWebKit/605.1.15 (KHTML, like Gecko) Version/14.1 Safari/605.1.15",1440,900,1324,710,main,3165532,215,27,24,EM,Moderate,Easier than Reference,F,riskyDeck,safeDeck,0,-28,right,0,0,18,absent,safeDeck,127,2394,-14.0
5qnkb9p8i0q_pilot,test_id,16/02/2022@18:10:55,"Mozilla/5.0 (Macintosh; Intel Mac OS X 10_15_7) AppleWebKit/605.1.15 (KHTML, like Gecko) Version/14.1 Safari/605.1.15",1440,900,1324,710,main,3165532,216,27,24,EE,Extreme,Easier than Reference,F,safeDeck,riskyDeck,-14,0,right,1,0,32,absent,riskyDeck,573,3377,
5qnkb9p8i0q_pilot,test_id,16/02/2022@18:10:55,"Mozilla/5.0 (Macintosh; Intel Mac OS X 10_15_7) AppleWebKit/605.1.15 (KHTML, like Gecko) Version/14.1 Safari/605.1.15",1440,900,1324,710,main,3165532,217,27,25,HE,Extreme,Harder than Reference,F,riskyDeck,safeDeck,28,0,right,0,0,46,absent,safeDeck,167,4882,14.0
5qnkb9p8i0q_pilot,test_id,16/02/2022@18:10:55,"Mozilla/5.0 (Macintosh; Intel Mac OS X 10_15_7) AppleWebKit/605.1.15 (KHTML, like Gecko) Version/14.1 Safari/605.1.15",1440,900,1324,710,main,3165532,218,27,25,HM,Moderate,Harder than Reference,D,riskyDeck,safeDeck,0,14,left,1,0,46,present,riskyDeck,39,4807,7.0
5qnkb9p8i0q_pilot,test_id,16/02/2022@18:10:55,"Mozilla/5.0 (Macintosh; Intel Mac OS X 10_15_7) AppleWebKit/605.1.15 (KHTML, like Gecko) Version/14.1 Safari/605.1.15",1440,900,1324,710,main,3165532,219,28,25,EE,Extreme,Easier than Reference,D,safeDeck,riskyDeck,0,-14,left,0,0,25,absent,safeDeck,114,3334,
5qnkb9p8i0q_pilot,test_id,16/02/2022@18:10:55,"Mozilla/5.0 (Macintosh; Intel Mac OS X 10_15_7) AppleWebKit/605.1.15 (KHTML, like Gecko) Version/14.1 Safari/605.1.15",1440,900,1324,710,main,3165532,220,28,25,EM,Moderate,Easier than Reference,F,safeDeck,riskyDeck,0,-28,right,1,0,4,absent,riskyDeck,79,1042,
5qnkb9p8i0q_pilot,test_id,16/02/2022@18:10:55,"Mozilla/5.0 (Macintosh; Intel Mac OS X 10_15_7) AppleWebKit/605.1.15 (KHTML, like Gecko) Version/14.1 Safari/605.1.15",1440,900,1324,710,main,3165532,221,28,25,EE,Extreme,Easier than Reference,D,riskyDeck,safeDeck,0,-14,left,1,0,18,absent,riskyDeck,114,2558,-7.0
5qnkb9p8i0q_pilot,test_id,16/02/2022@18:10:55,"Mozilla/5.0 (Macintosh; Intel Mac OS X 10_15_7) AppleWebKit/605.1.15 (KHTML, like Gecko) Version/14.1 Safari/605.1.15",1440,900,1324,710,main,3165532,222,28,25,EM,Moderate,Easier than Reference,F,safeDeck,riskyDeck,0,-28,right,1,0,4,absent,riskyDeck,255,1144,
5qnkb9p8i0q_pilot,test_id,16/02/2022@18:10:55,"Mozilla/5.0 (Macintosh; Intel Mac OS X 10_15_7) AppleWebKit/605.1.15 (KHTML, like Gecko) Version/14.1 Safari/605.1.15",1440,900,1324,710,main,3165532,223,28,25,HE,Extreme,Harder than Reference,D,safeDeck,riskyDeck,28,0,left,0,0,46,present,safeDeck,54,4358,
5qnkb9p8i0q_pilot,test_id,16/02/2022@18:10:55,"Mozilla/5.0 (Macintosh; Intel Mac OS X 10_15_7) AppleWebKit/605.1.15 (KHTML, like Gecko) Version/14.1 Safari/605.1.15",1440,900,1324,710,main,3165532,224,28,25,HM,Moderate,Harder than Reference,F,riskyDeck,safeDeck,14,0,right,0,0,39,present,safeDeck,108,1416,7.0
5qnkb9p8i0q_pilot,test_id,16/02/2022@18:10:55,"Mozilla/5.0 (Macintosh; Intel Mac OS X 10_15_7) AppleWebKit/605.1.15 (KHTML, like Gecko) Version/14.1 Safari/605.1.15",1440,900,1324,710,main,3165532,225,28,25,HM,Moderate,Harder than Reference,D,riskyDeck,safeDeck,14,0,left,1,0,32,present,riskyDeck,908,2138,7.0
5qnkb9p8i0q_pilot,test_id,16/02/2022@18:10:55,"Mozilla/5.0 (Macintosh; Intel Mac OS X 10_15_7) AppleWebKit/605.1.15 (KHTML, like Gecko) Version/14.1 Safari/605.1.15",1440,900,1324,710,main,3165532,226,28,25,EM,Moderate,Easier than Reference,F,safeDeck,riskyDeck,0,-28,right,1,0,4,absent,riskyDeck,596,824,
5qnkb9p8i0q_pilot,test_id,16/02/2022@18:10:55,"Mozilla/5.0 (Macintosh; Intel Mac OS X 10_15_7) AppleWebKit/605.1.15 (KHTML, like Gecko) Version/14.1 Safari/605.1.15",1440,900,1324,710,main,3165532,227,28,25,HE,Extreme,Harder than Reference,F,safeDeck,riskyDeck,28,0,right,1,0,60,absent,riskyDeck,1374,2262,
5qnkb9p8i0q_pilot,test_id,16/02/2022@18:10:55,"Mozilla/5.0 (Macintosh; Intel Mac OS X 10_15_7) AppleWebKit/605.1.15 (KHTML, like Gecko) Version/14.1 Safari/605.1.15",1440,900,1324,710,main,3165532,228,28,25,EE,Extreme,Easier than Reference,F,safeDeck,riskyDeck,-14,0,right,1,0,32,present,riskyDeck,427,2666,
5qnkb9p8i0q_pilot,test_id,16/02/2022@18:10:55,"Mozilla/5.0 (Macintosh; Intel Mac OS X 10_15_7) AppleWebKit/605.1.15 (KHTML, like Gecko) Version/14.1 Safari/605.1.15",1440,900,1324,710,main,3165532,229,28,25,HE,Extreme,Harder than Reference,F,safeDeck,riskyDeck,28,0,right,1,0,60,present,riskyDeck,331,5326,
5qnkb9p8i0q_pilot,test_id,16/02/2022@18:10:55,"Mozilla/5.0 (Macintosh; Intel Mac OS X 10_15_7) AppleWebKit/605.1.15 (KHTML, like Gecko) Version/14.1 Safari/605.1.15",1440,900,1324,710,main,3165532,230,28,26,EE,Extreme,Easier than Reference,D,safeDeck,riskyDeck,0,-14,left,0,0,25,absent,safeDeck,13,4086,
5qnkb9p8i0q_pilot,test_id,16/02/2022@18:10:55,"Mozilla/5.0 (Macintosh; Intel Mac OS X 10_15_7) AppleWebKit/605.1.15 (KHTML, like Gecko) Version/14.1 Safari/605.1.15",1440,900,1324,710,main,3165532,231,28,26,HM,Moderate,Harder than Reference,D,safeDeck,riskyDeck,14,0,left,0,0,39,absent,safeDeck,152,2335,
5qnkb9p8i0q_pilot,test_id,16/02/2022@18:10:55,"Mozilla/5.0 (Macintosh; Intel Mac OS X 10_15_7) AppleWebKit/605.1.15 (KHTML, like Gecko) Version/14.1 Safari/605.1.15",1440,900,1324,710,main,3165532,232,29,26,EM,Moderate,Easier than Reference,F,riskyDeck,safeDeck,-28,0,right,0,0,18,present,safeDeck,122,1799,-14.0
5qnkb9p8i0q_pilot,test_id,16/02/2022@18:10:55,"Mozilla/5.0 (Macintosh; Intel Mac OS X 10_15_7) AppleWebKit/605.1.15 (KHTML, like Gecko) Version/14.1 Safari/605.1.15",1440,900,1324,710,main,3165532,233,29,26,HE,Extreme,Harder than Reference,D,riskyDeck,safeDeck,28,0,left,1,0,32,present,riskyDeck,177,2060,14.0
5qnkb9p8i0q_pilot,test_id,16/02/2022@18:10:55,"Mozilla/5.0 (Macintosh; Intel Mac OS X 10_15_7) AppleWebKit/605.1.15 (KHTML, like Gecko) Version/14.1 Safari/605.1.15",1440,900,1324,710,main,3165532,234,29,26,HM,Moderate,Harder than Reference,D,safeDeck,riskyDeck,0,14,left,0,1,39,present,safeDeck,678,5874,
5qnkb9p8i0q_pilot,test_id,16/02/2022@18:10:55,"Mozilla/5.0 (Macintosh; Intel Mac OS X 10_15_7) AppleWebKit/605.1.15 (KHTML, like Gecko) Version/14.1 Safari/605.1.15",1440,900,1324,710,main,3165532,235,29,26,EE,Extreme,Easier than Reference,F,riskyDeck,safeDeck,0,-14,right,0,0,25,absent,safeDeck,1671,4385,-7.0
5qnkb9p8i0q_pilot,test_id,16/02/2022@18:10:55,"Mozilla/5.0 (Macintosh; Intel Mac OS X 10_15_7) AppleWebKit/605.1.15 (KHTML, like Gecko) Version/14.1 Safari/605.1.15",1440,900,1324,710,main,3165532,236,29,26,EM,Moderate,Easier than Reference,F,safeDeck,riskyDeck,-28,0,right,1,0,4,present,riskyDeck,261,1476,
5qnkb9p8i0q_pilot,test_id,16/02/2022@18:10:55,"Mozilla/5.0 (Macintosh; Intel Mac OS X 10_15_7) AppleWebKit/605.1.15 (KHTML, like Gecko) Version/14.1 Safari/605.1.15",1440,900,1324,710,main,3165532,237,29,26,EE,Extreme,Easier than Reference,D,riskyDeck,safeDeck,-14,0,left,1,0,32,present,riskyDeck,1134,3132,-7.0
5qnkb9p8i0q_pilot,test_id,16/02/2022@18:10:55,"Mozilla/5.0 (Macintosh; Intel Mac OS X 10_15_7) AppleWebKit/605.1.15 (KHTML, like Gecko) Version/14.1 Safari/605.1.15",1440,900,1324,710,main,3165532,238,29,26,HE,Extreme,Harder than Reference,F,safeDeck,riskyDeck,28,0,right,1,0,32,present,riskyDeck,441,3694,
5qnkb9p8i0q_pilot,test_id,16/02/2022@18:10:55,"Mozilla/5.0 (Macintosh; Intel Mac OS X 10_15_7) AppleWebKit/605.1.15 (KHTML, like Gecko) Version/14.1 Safari/605.1.15",1440,900,1324,710,main,3165532,239,29,26,EM,Moderate,Easier than Reference,F,safeDeck,riskyDeck,-28,0,right,1,0,4,present,riskyDeck,742,1310,
5qnkb9p8i0q_pilot,test_id,16/02/2022@18:10:55,"Mozilla/5.0 (Macintosh; Intel Mac OS X 10_15_7) AppleWebKit/605.1.15 (KHTML, like Gecko) Version/14.1 Safari/605.1.15",1440,900,1324,710,main,3165532,240,29,26,HM,Moderate,Harder than Reference,F,safeDeck,riskyDeck,14,0,right,1,1,32,present,riskyDeck,580,4678,
5qnkb9p8i0q_pilot,test_id,16/02/2022@18:10:55,"Mozilla/5.0 (Macintosh; Intel Mac OS X 10_15_7) AppleWebKit/605.1.15 (KHTML, like Gecko) Version/14.1 Safari/605.1.15",1440,900,1324,710,main,3165532,241,29,27,EE,Extreme,Easier than Reference,F,safeDeck,riskyDeck,0,-14,right,1,0,32,absent,riskyDeck,493,5662,
5qnkb9p8i0q_pilot,test_id,16/02/2022@18:10:55,"Mozilla/5.0 (Macintosh; Intel Mac OS X 10_15_7) AppleWebKit/605.1.15 (KHTML, like Gecko) Version/14.1 Safari/605.1.15",1440,900,1324,710,main,3165532,242,30,27,HE,Extreme,Harder than Reference,F,safeDeck,riskyDeck,0,28,right,1,0,32,absent,riskyDeck,325,5239,
5qnkb9p8i0q_pilot,test_id,16/02/2022@18:10:55,"Mozilla/5.0 (Macintosh; Intel Mac OS X 10_15_7) AppleWebKit/605.1.15 (KHTML, like Gecko) Version/14.1 Safari/605.1.15",1440,900,1324,710,main,3165532,243,30,27,HM,Moderate,Harder than Reference,F,riskyDeck,safeDeck,0,14,right,0,0,39,absent,safeDeck,210,6807,7.0
5qnkb9p8i0q_pilot,test_id,16/02/2022@18:10:55,"Mozilla/5.0 (Macintosh; Intel Mac OS X 10_15_7) AppleWebKit/605.1.15 (KHTML, like Gecko) Version/14.1 Safari/605.1.15",1440,900,1324,710,main,3165532,244,30,27,EM,Moderate,Easier than Reference,F,riskyDeck,safeDeck,0,-28,right,0,0,18,present,safeDeck,239,729,-14.0
5qnkb9p8i0q_pilot,test_id,16/02/2022@18:10:55,"Mozilla/5.0 (Macintosh; Intel Mac OS X 10_15_7) AppleWebKit/605.1.15 (KHTML, like Gecko) Version/14.1 Safari/605.1.15",1440,900,1324,710,main,3165532,245,30,27,HE,Extreme,Harder than Reference,D,safeDeck,riskyDeck,0,28,left,0,1,46,present,safeDeck,479,5182,
5qnkb9p8i0q_pilot,test_id,16/02/2022@18:10:55,"Mozilla/5.0 (Macintosh; Intel Mac OS X 10_15_7) AppleWebKit/605.1.15 (KHTML, like Gecko) Version/14.1 Safari/605.1.15",1440,900,1324,710,main,3165532,246,30,27,EE,Extreme,Easier than Reference,F,safeDeck,riskyDeck,0,-14,right,1,1,32,absent,riskyDeck,385,3169,
5qnkb9p8i0q_pilot,test_id,16/02/2022@18:10:55,"Mozilla/5.0 (Macintosh; Intel Mac OS X 10_15_7) AppleWebKit/605.1.15 (KHTML, like Gecko) Version/14.1 Safari/605.1.15",1440,900,1324,710,main,3165532,247,30,27,HM,Moderate,Harder than Reference,F,safeDeck,riskyDeck,0,14,right,1,0,32,present,riskyDeck,833,1315,
5qnkb9p8i0q_pilot,test_id,16/02/2022@18:10:55,"Mozilla/5.0 (Macintosh; Intel Mac OS X 10_15_7) AppleWebKit/605.1.15 (KHTML, like Gecko) Version/14.1 Safari/605.1.15",1440,900,1324,710,main,3165532,248,30,27,EM,Moderate,Easier than Reference,D,safeDeck,riskyDeck,-28,0,left,0,0,18,present,safeDeck,1124,1226,
5qnkb9p8i0q_pilot,test_id,16/02/2022@18:10:55,"Mozilla/5.0 (Macintosh; Intel Mac OS X 10_15_7) AppleWebKit/605.1.15 (KHTML, like Gecko) Version/14.1 Safari/605.1.15",1440,900,1324,710,main,3165532,249,30,27,EM,Moderate,Easier than Reference,F,safeDeck,riskyDeck,-28,0,right,1,0,32,absent,riskyDeck,964,2933,
5qnkb9p8i0q_pilot,test_id,16/02/2022@18:10:55,"Mozilla/5.0 (Macintosh; Intel Mac OS X 10_15_7) AppleWebKit/605.1.15 (KHTML, like Gecko) Version/14.1 Safari/605.1.15",1440,900,1324,710,main,3165532,250,30,28,HE,Extreme,Harder than Reference,F,riskyDeck,safeDeck,28,0,right,0,1,46,present,safeDeck,563,7383,14.0
5qnkb9p8i0q_pilot,test_id,16/02/2022@18:10:55,"Mozilla/5.0 (Macintosh; Intel Mac OS X 10_15_7) AppleWebKit/605.1.15 (KHTML, like Gecko) Version/14.1 Safari/605.1.15",1440,900,1324,710,main,3165532,251,31,29,EE,Extreme,Easier than Reference,D,riskyDeck,safeDeck,0,-14,left,1,0,32,absent,riskyDeck,1565,2630,-7.0
5qnkb9p8i0q_pilot,test_id,16/02/2022@18:10:55,"Mozilla/5.0 (Macintosh; Intel Mac OS X 10_15_7) AppleWebKit/605.1.15 (KHTML, like Gecko) Version/14.1 Safari/605.1.15",1440,900,1324,710,main,3165532,252,32,29,HM,Moderate,Harder than Reference,F,safeDeck,riskyDeck,0,14,right,1,0,46,present,riskyDeck,431,2846,
5qnkb9p8i0q_pilot,test_id,16/02/2022@18:10:55,"Mozilla/5.0 (Macintosh; Intel Mac OS X 10_15_7) AppleWebKit/605.1.15 (KHTML, like Gecko) Version/14.1 Safari/605.1.15",1440,900,1324,710,main,3165532,253,32,29,HM,Moderate,Harder than Reference,D,riskyDeck,safeDeck,14,0,left,1,0,32,absent,riskyDeck,210,1613,7.0
5qnkb9p8i0q_pilot,test_id,16/02/2022@18:10:55,"Mozilla/5.0 (Macintosh; Intel Mac OS X 10_15_7) AppleWebKit/605.1.15 (KHTML, like Gecko) Version/14.1 Safari/605.1.15",1440,900,1324,710,main,3165532,254,32,29,EE,Extreme,Easier than Reference,F,safeDeck,riskyDeck,0,-14,right,1,0,18,absent,riskyDeck,86,3341,
5qnkb9p8i0q_pilot,test_id,16/02/2022@18:10:55,"Mozilla/5.0 (Macintosh; Intel Mac OS X 10_15_7) AppleWebKit/605.1.15 (KHTML, like Gecko) Version/14.1 Safari/605.1.15",1440,900,1324,710,main,3165532,255,32,29,EM,Moderate,Easier than Reference,F,safeDeck,riskyDeck,-28,0,right,1,0,32,absent,riskyDeck,254,2335,
5qnkb9p8i0q_pilot,test_id,16/02/2022@18:10:55,"Mozilla/5.0 (Macintosh; Intel Mac OS X 10_15_7) AppleWebKit/605.1.15 (KHTML, like Gecko) Version/14.1 Safari/605.1.15",1440,900,1324,710,main,3165532,256,32,29,HE,Extreme,Harder than Reference,F,riskyDeck,safeDeck,0,28,right,0,1,46,present,safeDeck,49,3292,14.0
5qnkb9p8i0q_pilot,test_id,16/02/2022@18:10:55,"Mozilla/5.0 (Macintosh; Intel Mac OS X 10_15_7) AppleWebKit/605.1.15 (KHTML, like Gecko) Version/14.1 Safari/605.1.15",1440,900,1324,710,main,3165532,257,32,29,EM,Moderate,Easier than Reference,F,safeDeck,riskyDeck,0,-28,right,1,0,4,absent,riskyDeck,437,1064,
5qnkb9p8i0q_pilot,test_id,16/02/2022@18:10:55,"Mozilla/5.0 (Macintosh; Intel Mac OS X 10_15_7) AppleWebKit/605.1.15 (KHTML, like Gecko) Version/14.1 Safari/605.1.15",1440,900,1324,710,main,3165532,258,32,29,EE,Extreme,Easier than Reference,F,riskyDeck,safeDeck,-14,0,right,0,0,25,present,safeDeck,249,1981,-7.0
5qnkb9p8i0q_pilot,test_id,16/02/2022@18:10:55,"Mozilla/5.0 (Macintosh; Intel Mac OS X 10_15_7) AppleWebKit/605.1.15 (KHTML, like Gecko) Version/14.1 Safari/605.1.15",1440,900,1324,710,main,3165532,259,32,29,HE,Extreme,Harder than Reference,D,safeDeck,riskyDeck,0,28,left,0,1,46,present,safeDeck,218,3882,
5qnkb9p8i0q_pilot,test_id,16/02/2022@18:10:55,"Mozilla/5.0 (Macintosh; Intel Mac OS X 10_15_7) AppleWebKit/605.1.15 (KHTML, like Gecko) Version/14.1 Safari/605.1.15",1440,900,1324,710,main,3165532,260,32,29,HM,Moderate,Harder than Reference,F,safeDeck,riskyDeck,14,0,right,1,0,46,present,riskyDeck,308,3254,
5qnkb9p8i0q_pilot,test_id,16/02/2022@18:10:55,"Mozilla/5.0 (Macintosh; Intel Mac OS X 10_15_7) AppleWebKit/605.1.15 (KHTML, like Gecko) Version/14.1 Safari/605.1.15",1440,900,1324,710,main,3165532,261,32,30,HM,Moderate,Harder than Reference,D,riskyDeck,safeDeck,14,0,left,1,0,32,present,riskyDeck,190,3993,7.0
5qnkb9p8i0q_pilot,test_id,16/02/2022@18:10:55,"Mozilla/5.0 (Macintosh; Intel Mac OS X 10_15_7) AppleWebKit/605.1.15 (KHTML, like Gecko) Version/14.1 Safari/605.1.15",1440,900,1324,710,main,3165532,262,32,30,EE,Extreme,Easier than Reference,F,safeDeck,riskyDeck,0,-14,right,1,0,32,absent,riskyDeck,278,4386,
5qnkb9p8i0q_pilot,test_id,16/02/2022@18:10:55,"Mozilla/5.0 (Macintosh; Intel Mac OS X 10_15_7) AppleWebKit/605.1.15 (KHTML, like Gecko) Version/14.1 Safari/605.1.15",1440,900,1324,710,main,3165532,263,33,30,HE,Extreme,Harder than Reference,F,riskyDeck,safeDeck,0,28,right,0,0,46,absent,safeDeck,182,5996,14.0
5qnkb9p8i0q_pilot,test_id,16/02/2022@18:10:55,"Mozilla/5.0 (Macintosh; Intel Mac OS X 10_15_7) AppleWebKit/605.1.15 (KHTML, like Gecko) Version/14.1 Safari/605.1.15",1440,900,1324,710,main,3165532,264,33,30,EM,Moderate,Easier than Reference,F,riskyDeck,safeDeck,-28,0,right,0,0,18,present,safeDeck,343,1811,-14.0
5qnkb9p8i0q_pilot,test_id,16/02/2022@18:10:55,"Mozilla/5.0 (Macintosh; Intel Mac OS X 10_15_7) AppleWebKit/605.1.15 (KHTML, like Gecko) Version/14.1 Safari/605.1.15",1440,900,1324,710,main,3165532,265,33,30,EM,Moderate,Easier than Reference,D,safeDeck,riskyDeck,-28,0,left,0,0,18,absent,safeDeck,253,2383,
5qnkb9p8i0q_pilot,test_id,16/02/2022@18:10:55,"Mozilla/5.0 (Macintosh; Intel Mac OS X 10_15_7) AppleWebKit/605.1.15 (KHTML, like Gecko) Version/14.1 Safari/605.1.15",1440,900,1324,710,main,3165532,266,33,30,EE,Extreme,Easier than Reference,F,safeDeck,riskyDeck,-14,0,right,1,0,32,present,riskyDeck,85,3051,
5qnkb9p8i0q_pilot,test_id,16/02/2022@18:10:55,"Mozilla/5.0 (Macintosh; Intel Mac OS X 10_15_7) AppleWebKit/605.1.15 (KHTML, like Gecko) Version/14.1 Safari/605.1.15",1440,900,1324,710,main,3165532,267,33,30,HM,Moderate,Harder than Reference,F,safeDeck,riskyDeck,14,0,right,1,0,32,absent,riskyDeck,296,2768,
5qnkb9p8i0q_pilot,test_id,16/02/2022@18:10:55,"Mozilla/5.0 (Macintosh; Intel Mac OS X 10_15_7) AppleWebKit/605.1.15 (KHTML, like Gecko) Version/14.1 Safari/605.1.15",1440,900,1324,710,main,3165532,268,33,30,HE,Extreme,Harder than Reference,F,safeDeck,riskyDeck,28,0,right,1,0,32,present,riskyDeck,889,1948,
5qnkb9p8i0q_pilot,test_id,16/02/2022@18:10:55,"Mozilla/5.0 (Macintosh; Intel Mac OS X 10_15_7) AppleWebKit/605.1.15 (KHTML, like Gecko) Version/14.1 Safari/605.1.15",1440,900,1324,710,main,3165532,269,33,30,HE,Extreme,Harder than Reference,F,safeDeck,riskyDeck,0,28,right,1,0,60,absent,riskyDeck,1074,5579,
5qnkb9p8i0q_pilot,test_id,16/02/2022@18:10:55,"Mozilla/5.0 (Macintosh; Intel Mac OS X 10_15_7) AppleWebKit/605.1.15 (KHTML, like Gecko) Version/14.1 Safari/605.1.15",1440,900,1324,710,main,3165532,270,33,30,HM,Moderate,Harder than Reference,F,safeDeck,riskyDeck,14,0,right,1,1,46,present,riskyDeck,147,3775,
5qnkb9p8i0q_pilot,test_id,16/02/2022@18:10:55,"Mozilla/5.0 (Macintosh; Intel Mac OS X 10_15_7) AppleWebKit/605.1.15 (KHTML, like Gecko) Version/14.1 Safari/605.1.15",1440,900,1324,710,main,3165532,271,33,30,EE,Extreme,Easier than Reference,D,riskyDeck,safeDeck,0,-14,left,1,0,18,absent,riskyDeck,616,2398,-7.0
5qnkb9p8i0q_pilot,test_id,16/02/2022@18:10:55,"Mozilla/5.0 (Macintosh; Intel Mac OS X 10_15_7) AppleWebKit/605.1.15 (KHTML, like Gecko) Version/14.1 Safari/605.1.15",1440,900,1324,710,main,3165532,272,33,30,EM,Moderate,Easier than Reference,F,safeDeck,riskyDeck,0,-28,right,1,0,4,present,riskyDeck,147,954,
5qnkb9p8i0q_pilot,test_id,16/02/2022@18:10:55,"Mozilla/5.0 (Macintosh; Intel Mac OS X 10_15_7) AppleWebKit/605.1.15 (KHTML, like Gecko) Version/14.1 Safari/605.1.15",1440,900,1324,710,main,3165532,273,33,31,HM,Moderate,Harder than Reference,D,riskyDeck,safeDeck,0,14,left,1,0,46,absent,riskyDeck,104,7075,7.0
5qnkb9p8i0q_pilot,test_id,16/02/2022@18:10:55,"Mozilla/5.0 (Macintosh; Intel Mac OS X 10_15_7) AppleWebKit/605.1.15 (KHTML, like Gecko) Version/14.1 Safari/605.1.15",1440,900,1324,710,main,3165532,274,33,31,EM,Moderate,Easier than Reference,F,riskyDeck,safeDeck,0,-28,right,0,0,18,present,safeDeck,95,2764,-14.0
5qnkb9p8i0q_pilot,test_id,16/02/2022@18:10:55,"Mozilla/5.0 (Macintosh; Intel Mac OS X 10_15_7) AppleWebKit/605.1.15 (KHTML, like Gecko) Version/14.1 Safari/605.1.15",1440,900,1324,710,main,3165532,275,34,31,EE,Extreme,Easier than Reference,D,riskyDeck,safeDeck,0,-14,left,1,0,32,absent,riskyDeck,186,4220,-7.0
5qnkb9p8i0q_pilot,test_id,16/02/2022@18:10:55,"Mozilla/5.0 (Macintosh; Intel Mac OS X 10_15_7) AppleWebKit/605.1.15 (KHTML, like Gecko) Version/14.1 Safari/605.1.15",1440,900,1324,710,main,3165532,276,34,31,HE,Extreme,Harder than Reference,F,riskyDeck,safeDeck,28,0,right,0,0,46,absent,safeDeck,438,6417,14.0
5qnkb9p8i0q_pilot,test_id,16/02/2022@18:10:55,"Mozilla/5.0 (Macintosh; Intel Mac OS X 10_15_7) AppleWebKit/605.1.15 (KHTML, like Gecko) Version/14.1 Safari/605.1.15",1440,900,1324,710,main,3165532,277,34,31,EM,Moderate,Easier than Reference,F,riskyDeck,safeDeck,-28,0,right,0,0,18,present,safeDeck,236,1304,-14.0
5qnkb9p8i0q_pilot,test_id,16/02/2022@18:10:55,"Mozilla/5.0 (Macintosh; Intel Mac OS X 10_15_7) AppleWebKit/605.1.15 (KHTML, like Gecko) Version/14.1 Safari/605.1.15",1440,900,1324,710,main,3165532,278,34,31,HM,Moderate,Harder than Reference,D,riskyDeck,safeDeck,0,14,left,1,0,46,absent,riskyDeck,144,3726,7.0
5qnkb9p8i0q_pilot,test_id,16/02/2022@18:10:55,"Mozilla/5.0 (Macintosh; Intel Mac OS X 10_15_7) AppleWebKit/605.1.15 (KHTML, like Gecko) Version/14.1 Safari/605.1.15",1440,900,1324,710,main,3165532,279,34,31,HE,Extreme,Harder than Reference,D,safeDeck,riskyDeck,0,28,left,0,0,46,absent,safeDeck,137,5738,
5qnkb9p8i0q_pilot,test_id,16/02/2022@18:10:55,"Mozilla/5.0 (Macintosh; Intel Mac OS X 10_15_7) AppleWebKit/605.1.15 (KHTML, like Gecko) Version/14.1 Safari/605.1.15",1440,900,1324,710,main,3165532,280,34,31,EE,Extreme,Easier than Reference,F,riskyDeck,safeDeck,0,-14,right,0,0,25,present,safeDeck,116,1751,-7.0
5qnkb9p8i0q_pilot,test_id,16/02/2022@18:10:55,"Mozilla/5.0 (Macintosh; Intel Mac OS X 10_15_7) AppleWebKit/605.1.15 (KHTML, like Gecko) Version/14.1 Safari/605.1.15",1440,900,1324,710,main,3165532,281,34,31,EM,Moderate,Easier than Reference,D,riskyDeck,safeDeck,0,-28,left,1,0,4,present,riskyDeck,146,1046,-14.0
5qnkb9p8i0q_pilot,test_id,16/02/2022@18:10:55,"Mozilla/5.0 (Macintosh; Intel Mac OS X 10_15_7) AppleWebKit/605.1.15 (KHTML, like Gecko) Version/14.1 Safari/605.1.15",1440,900,1324,710,main,3165532,282,34,31,HE,Extreme,Harder than Reference,D,safeDeck,riskyDeck,28,0,left,0,0,46,absent,safeDeck,77,3761,
5qnkb9p8i0q_pilot,test_id,16/02/2022@18:10:55,"Mozilla/5.0 (Macintosh; Intel Mac OS X 10_15_7) AppleWebKit/605.1.15 (KHTML, like Gecko) Version/14.1 Safari/605.1.15",1440,900,1324,710,main,3165532,283,34,31,HM,Moderate,Harder than Reference,F,safeDeck,riskyDeck,0,14,right,1,0,32,present,riskyDeck,228,3053,
5qnkb9p8i0q_pilot,test_id,16/02/2022@18:10:55,"Mozilla/5.0 (Macintosh; Intel Mac OS X 10_15_7) AppleWebKit/605.1.15 (KHTML, like Gecko) Version/14.1 Safari/605.1.15",1440,900,1324,710,main,3165532,284,34,32,EE,Extreme,Easier than Reference,F,safeDeck,riskyDeck,0,-14,right,1,0,32,absent,riskyDeck,684,3582,
5qnkb9p8i0q_pilot,test_id,16/02/2022@18:10:55,"Mozilla/5.0 (Macintosh; Intel Mac OS X 10_15_7) AppleWebKit/605.1.15 (KHTML, like Gecko) Version/14.1 Safari/605.1.15",1440,900,1324,710,main,3165532,285,34,32,EE,Extreme,Easier than Reference,D,riskyDeck,safeDeck,0,-14,left,1,0,18,present,riskyDeck,969,872,-7.0
5qnkb9p8i0q_pilot,test_id,16/02/2022@18:10:55,"Mozilla/5.0 (Macintosh; Intel Mac OS X 10_15_7) AppleWebKit/605.1.15 (KHTML, like Gecko) Version/14.1 Safari/605.1.15",1440,900,1324,710,main,3165532,286,34,32,EM,Moderate,Easier than Reference,D,riskyDeck,safeDeck,0,-28,left,1,0,4,present,riskyDeck,931,601,-14.0
5qnkb9p8i0q_pilot,test_id,16/02/2022@18:10:55,"Mozilla/5.0 (Macintosh; Intel Mac OS X 10_15_7) AppleWebKit/605.1.15 (KHTML, like Gecko) Version/14.1 Safari/605.1.15",1440,900,1324,710,main,3165532,287,35,32,HM,Moderate,Harder than Reference,F,safeDeck,riskyDeck,14,0,right,1,0,46,absent,riskyDeck,439,3413,
5qnkb9p8i0q_pilot,test_id,16/02/2022@18:10:55,"Mozilla/5.0 (Macintosh; Intel Mac OS X 10_15_7) AppleWebKit/605.1.15 (KHTML, like Gecko) Version/14.1 Safari/605.1.15",1440,900,1324,710,main,3165532,288,35,32,HE,Extreme,Harder than Reference,F,riskyDeck,safeDeck,28,0,right,0,0,46,absent,safeDeck,189,3481,14.0
5qnkb9p8i0q_pilot,test_id,16/02/2022@18:10:55,"Mozilla/5.0 (Macintosh; Intel Mac OS X 10_15_7) AppleWebKit/605.1.15 (KHTML, like Gecko) Version/14.1 Safari/605.1.15",1440,900,1324,710,main,3165532,289,35,32,HE,Extreme,Harder than Reference,D,riskyDeck,safeDeck,28,0,left,1,0,32,absent,riskyDeck,157,3299,14.0
5qnkb9p8i0q_pilot,test_id,16/02/2022@18:10:55,"Mozilla/5.0 (Macintosh; Intel Mac OS X 10_15_7) AppleWebKit/605.1.15 (KHTML, like Gecko) Version/14.1 Safari/605.1.15",1440,900,1324,710,main,3165532,290,35,32,HM,Moderate,Harder than Reference,F,riskyDeck,safeDeck,0,14,right,0,0,39,absent,safeDeck,206,3144,7.0
5qnkb9p8i0q_pilot,test_id,16/02/2022@18:10:55,"Mozilla/5.0 (Macintosh; Intel Mac OS X 10_15_7) AppleWebKit/605.1.15 (KHTML, like Gecko) Version/14.1 Safari/605.1.15",1440,900,1324,710,main,3165532,291,35,32,EM,Moderate,Easier than Reference,D,riskyDeck,safeDeck,-28,0,left,1,0,32,present,riskyDeck,106,4263,-14.0
5qnkb9p8i0q_pilot,test_id,16/02/2022@18:10:55,"Mozilla/5.0 (Macintosh; Intel Mac OS X 10_15_7) AppleWebKit/605.1.15 (KHTML, like Gecko) Version/14.1 Safari/605.1.15",1440,900,1324,710,main,3165532,292,35,32,EE,Extreme,Easier than Reference,F,riskyDeck,safeDeck,-14,0,right,0,0,25,absent,safeDeck,59,2343,-7.0
5qnkb9p8i0q_pilot,test_id,16/02/2022@18:10:55,"Mozilla/5.0 (Macintosh; Intel Mac OS X 10_15_7) AppleWebKit/605.1.15 (KHTML, like Gecko) Version/14.1 Safari/605.1.15",1440,900,1324,710,main,3165532,293,35,32,EE,Extreme,Easier than Reference,D,riskyDeck,safeDeck,-14,0,left,1,1,32,present,riskyDeck,501,2277,-7.0
5qnkb9p8i0q_pilot,test_id,16/02/2022@18:10:55,"Mozilla/5.0 (Macintosh; Intel Mac OS X 10_15_7) AppleWebKit/605.1.15 (KHTML, like Gecko) Version/14.1 Safari/605.1.15",1440,900,1324,710,main,3165532,294,35,32,HE,Extreme,Harder than Reference,F,riskyDeck,safeDeck,28,0,right,0,0,46,present,safeDeck,883,4198,14.0
5qnkb9p8i0q_pilot,test_id,16/02/2022@18:10:55,"Mozilla/5.0 (Macintosh; Intel Mac OS X 10_15_7) AppleWebKit/605.1.15 (KHTML, like Gecko) Version/14.1 Safari/605.1.15",1440,900,1324,710,main,3165532,295,35,32,HM,Moderate,Harder than Reference,D,riskyDeck,safeDeck,0,14,left,1,0,46,absent,riskyDeck,193,3896,7.0
5qnkb9p8i0q_pilot,test_id,16/02/2022@18:10:55,"Mozilla/5.0 (Macintosh; Intel Mac OS X 10_15_7) AppleWebKit/605.1.15 (KHTML, like Gecko) Version/14.1 Safari/605.1.15",1440,900,1324,710,main,3165532,296,35,33,EM,Moderate,Easier than Reference,F,safeDeck,riskyDeck,-28,0,right,1,0,4,absent,riskyDeck,332,1141,
5qnkb9p8i0q_pilot,test_id,16/02/2022@18:10:55,"Mozilla/5.0 (Macintosh; Intel Mac OS X 10_15_7) AppleWebKit/605.1.15 (KHTML, like Gecko) Version/14.1 Safari/605.1.15",1440,900,1324,710,main,3165532,297,35,33,EE,Extreme,Easier than Reference,F,riskyDeck,safeDeck,-14,0,right,0,0,25,present,safeDeck,254,910,-7.0
5qnkb9p8i0q_pilot,test_id,16/02/2022@18:10:55,"Mozilla/5.0 (Macintosh; Intel Mac OS X 10_15_7) AppleWebKit/605.1.15 (KHTML, like Gecko) Version/14.1 Safari/605.1.15",1440,900,1324,710,main,3165532,298,35,33,HE,Extreme,Harder than Reference,D,riskyDeck,safeDeck,0,28,left,1,0,60,present,riskyDeck,131,2583,14.0
5qnkb9p8i0q_pilot,test_id,16/02/2022@18:10:55,"Mozilla/5.0 (Macintosh; Intel Mac OS X 10_15_7) AppleWebKit/605.1.15 (KHTML, like Gecko) Version/14.1 Safari/605.1.15",1440,900,1324,710,main,3165532,299,36,33,EM,Moderate,Easier than Reference,D,riskyDeck,safeDeck,0,-28,left,1,0,32,absent,riskyDeck,43,6059,-14.0
5qnkb9p8i0q_pilot,test_id,16/02/2022@18:10:55,"Mozilla/5.0 (Macintosh; Intel Mac OS X 10_15_7) AppleWebKit/605.1.15 (KHTML, like Gecko) Version/14.1 Safari/605.1.15",1440,900,1324,710,main,3165532,300,36,33,HM,Moderate,Harder than Reference,F,riskyDeck,safeDeck,0,14,right,0,1,39,present,safeDeck,313,3509,7.0
5qnkb9p8i0q_pilot,test_id,16/02/2022@18:10:55,"Mozilla/5.0 (Macintosh; Intel Mac OS X 10_15_7) AppleWebKit/605.1.15 (KHTML, like Gecko) Version/14.1 Safari/605.1.15",1440,900,1324,710,main,3165532,301,37,35,HM,Moderate,Harder than Reference,F,safeDeck,riskyDeck,0,14,right,1,0,32,present,riskyDeck,1151,1901,
5qnkb9p8i0q_pilot,test_id,16/02/2022@18:10:55,"Mozilla/5.0 (Macintosh; Intel Mac OS X 10_15_7) AppleWebKit/605.1.15 (KHTML, like Gecko) Version/14.1 Safari/605.1.15",1440,900,1324,710,main,3165532,302,37,35,EM,Moderate,Easier than Reference,D,riskyDeck,safeDeck,0,-28,left,1,0,32,absent,riskyDeck,203,2630,-14.0
5qnkb9p8i0q_pilot,test_id,16/02/2022@18:10:55,"Mozilla/5.0 (Macintosh; Intel Mac OS X 10_15_7) AppleWebKit/605.1.15 (KHTML, like Gecko) Version/14.1 Safari/605.1.15",1440,900,1324,710,main,3165532,303,38,35,HE,Extreme,Harder than Reference,F,riskyDeck,safeDeck,0,28,right,0,0,46,absent,safeDeck,91,4573,14.0
5qnkb9p8i0q_pilot,test_id,16/02/2022@18:10:55,"Mozilla/5.0 (Macintosh; Intel Mac OS X 10_15_7) AppleWebKit/605.1.15 (KHTML, like Gecko) Version/14.1 Safari/605.1.15",1440,900,1324,710,main,3165532,304,38,35,EE,Extreme,Easier than Reference,F,safeDeck,riskyDeck,0,-14,right,1,0,18,present,riskyDeck,731,1529,
5qnkb9p8i0q_pilot,test_id,16/02/2022@18:10:55,"Mozilla/5.0 (Macintosh; Intel Mac OS X 10_15_7) AppleWebKit/605.1.15 (KHTML, like Gecko) Version/14.1 Safari/605.1.15",1440,900,1324,710,main,3165532,305,38,35,EE,Extreme,Easier than Reference,F,safeDeck,riskyDeck,0,-14,right,1,0,18,absent,riskyDeck,112,3113,
5qnkb9p8i0q_pilot,test_id,16/02/2022@18:10:55,"Mozilla/5.0 (Macintosh; Intel Mac OS X 10_15_7) AppleWebKit/605.1.15 (KHTML, like Gecko) Version/14.1 Safari/605.1.15",1440,900,1324,710,main,3165532,306,38,35,HE,Extreme,Harder than Reference,F,safeDeck,riskyDeck,0,28,right,1,0,32,present,riskyDeck,94,3117,
5qnkb9p8i0q_pilot,test_id,16/02/2022@18:10:55,"Mozilla/5.0 (Macintosh; Intel Mac OS X 10_15_7) AppleWebKit/605.1.15 (KHTML, like Gecko) Version/14.1 Safari/605.1.15",1440,900,1324,710,main,3165532,307,38,35,EM,Moderate,Easier than Reference,D,riskyDeck,safeDeck,0,-28,left,1,0,4,absent,riskyDeck,200,1742,-14.0
5qnkb9p8i0q_pilot,test_id,16/02/2022@18:10:55,"Mozilla/5.0 (Macintosh; Intel Mac OS X 10_15_7) AppleWebKit/605.1.15 (KHTML, like Gecko) Version/14.1 Safari/605.1.15",1440,900,1324,710,main,3165532,308,38,35,HM,Moderate,Harder than Reference,F,safeDeck,riskyDeck,14,0,right,1,0,46,absent,riskyDeck,71,4503,
5qnkb9p8i0q_pilot,test_id,16/02/2022@18:10:55,"Mozilla/5.0 (Macintosh; Intel Mac OS X 10_15_7) AppleWebKit/605.1.15 (KHTML, like Gecko) Version/14.1 Safari/605.1.15",1440,900,1324,710,main,3165532,309,38,35,EM,Moderate,Easier than Reference,F,riskyDeck,safeDeck,-28,0,right,0,0,18,absent,safeDeck,40,6100,-14.0
5qnkb9p8i0q_pilot,test_id,16/02/2022@18:10:55,"Mozilla/5.0 (Macintosh; Intel Mac OS X 10_15_7) AppleWebKit/605.1.15 (KHTML, like Gecko) Version/14.1 Safari/605.1.15",1440,900,1324,710,main,3165532,310,38,35,HE,Extreme,Harder than Reference,F,riskyDeck,safeDeck,0,28,right,0,0,46,absent,safeDeck,145,4163,14.0
5qnkb9p8i0q_pilot,test_id,16/02/2022@18:10:55,"Mozilla/5.0 (Macintosh; Intel Mac OS X 10_15_7) AppleWebKit/605.1.15 (KHTML, like Gecko) Version/14.1 Safari/605.1.15",1440,900,1324,710,main,3165532,311,38,35,HM,Moderate,Harder than Reference,F,riskyDeck,safeDeck,0,14,right,0,0,39,present,safeDeck,7,3357,7.0
5qnkb9p8i0q_pilot,test_id,16/02/2022@18:10:55,"Mozilla/5.0 (Macintosh; Intel Mac OS X 10_15_7) AppleWebKit/605.1.15 (KHTML, like Gecko) Version/14.1 Safari/605.1.15",1440,900,1324,710,main,3165532,312,38,36,EE,Extreme,Easier than Reference,D,safeDeck,riskyDeck,0,-14,left,0,0,25,absent,safeDeck,37,2036,
5qnkb9p8i0q_pilot,test_id,16/02/2022@18:10:55,"Mozilla/5.0 (Macintosh; Intel Mac OS X 10_15_7) AppleWebKit/605.1.15 (KHTML, like Gecko) Version/14.1 Safari/605.1.15",1440,900,1324,710,main,3165532,313,38,36,HE,Extreme,Harder than Reference,F,riskyDeck,safeDeck,0,28,right,0,0,46,absent,safeDeck,267,3911,14.0
5qnkb9p8i0q_pilot,test_id,16/02/2022@18:10:55,"Mozilla/5.0 (Macintosh; Intel Mac OS X 10_15_7) AppleWebKit/605.1.15 (KHTML, like Gecko) Version/14.1 Safari/605.1.15",1440,900,1324,710,main,3165532,314,38,36,EE,Extreme,Easier than Reference,F,riskyDeck,safeDeck,0,-14,right,0,0,25,present,safeDeck,671,1065,-7.0
5qnkb9p8i0q_pilot,test_id,16/02/2022@18:10:55,"Mozilla/5.0 (Macintosh; Intel Mac OS X 10_15_7) AppleWebKit/605.1.15 (KHTML, like Gecko) Version/14.1 Safari/605.1.15",1440,900,1324,710,main,3165532,315,39,36,HM,Moderate,Harder than Reference,D,riskyDeck,safeDeck,0,14,left,1,0,46,present,riskyDeck,222,3415,7.0
5qnkb9p8i0q_pilot,test_id,16/02/2022@18:10:55,"Mozilla/5.0 (Macintosh; Intel Mac OS X 10_15_7) AppleWebKit/605.1.15 (KHTML, like Gecko) Version/14.1 Safari/605.1.15",1440,900,1324,710,main,3165532,316,39,36,EM,Moderate,Easier than Reference,F,riskyDeck,safeDeck,0,-28,right,0,0,18,present,safeDeck,56,1206,-14.0
5qnkb9p8i0q_pilot,test_id,16/02/2022@18:10:55,"Mozilla/5.0 (Macintosh; Intel Mac OS X 10_15_7) AppleWebKit/605.1.15 (KHTML, like Gecko) Version/14.1 Safari/605.1.15",1440,900,1324,710,main,3165532,317,39,36,EE,Extreme,Easier than Reference,D,safeDeck,riskyDeck,0,-14,left,0,0,25,present,safeDeck,51,1509,
5qnkb9p8i0q_pilot,test_id,16/02/2022@18:10:55,"Mozilla/5.0 (Macintosh; Intel Mac OS X 10_15_7) AppleWebKit/605.1.15 (KHTML, like Gecko) Version/14.1 Safari/605.1.15",1440,900,1324,710,main,3165532,318,39,36,HM,Moderate,Harder than Reference,D,safeDeck,riskyDeck,14,0,left,0,0,39,present,safeDeck,43,3679,
5qnkb9p8i0q_pilot,test_id,16/02/2022@18:10:55,"Mozilla/5.0 (Macintosh; Intel Mac OS X 10_15_7) AppleWebKit/605.1.15 (KHTML, like Gecko) Version/14.1 Safari/605.1.15",1440,900,1324,710,main,3165532,319,39,36,EM,Moderate,Easier than Reference,D,riskyDeck,safeDeck,0,-28,left,1,0,4,present,riskyDeck,461,796,-14.0
5qnkb9p8i0q_pilot,test_id,16/02/2022@18:10:55,"Mozilla/5.0 (Macintosh; Intel Mac OS X 10_15_7) AppleWebKit/605.1.15 (KHTML, like Gecko) Version/14.1 Safari/605.1.15",1440,900,1324,710,main,3165532,320,39,36,HE,Extreme,Harder than Reference,D,safeDeck,riskyDeck,28,0,left,0,0,46,absent,safeDeck,385,4081,
5qnkb9p8i0q_pilot,test_id,16/02/2022@18:10:55,"Mozilla/5.0 (Macintosh; Intel Mac OS X 10_15_7) AppleWebKit/605.1.15 (KHTML, like Gecko) Version/14.1 Safari/605.1.15",1440,900,1324,710,main,3165532,321,39,36,HM,Moderate,Harder than Reference,D,safeDeck,riskyDeck,0,14,left,0,0,39,absent,safeDeck,205,3598,
5qnkb9p8i0q_pilot,test_id,16/02/2022@18:10:55,"Mozilla/5.0 (Macintosh; Intel Mac OS X 10_15_7) AppleWebKit/605.1.15 (KHTML, like Gecko) Version/14.1 Safari/605.1.15",1440,900,1324,710,main,3165532,322,39,36,HE,Extreme,Harder than Reference,F,riskyDeck,safeDeck,28,0,right,0,0,46,present,safeDeck,47,4829,14.0
5qnkb9p8i0q_pilot,test_id,16/02/2022@18:10:55,"Mozilla/5.0 (Macintosh; Intel Mac OS X 10_15_7) AppleWebKit/605.1.15 (KHTML, like Gecko) Version/14.1 Safari/605.1.15",1440,900,1324,710,main,3165532,323,39,36,EM,Moderate,Easier than Reference,F,riskyDeck,safeDeck,-28,0,right,0,0,18,absent,safeDeck,617,3618,-14.0
