"subject","choice_rt_m","choice_rt_sd","sona_id","curTime","userAgent","screenWidth","screenHeight","windowWidth","windowHeight","phase","phase_run_time","trial","exp_runtime_mins","phase_runtime_mins","condition","counterbalance_condition","current_counterbalance_condition","magnitude","direction","choice_response_key","search_response_key","left_deck_id","right_deck_id","risky_deck_outcome_top","risky_deck_outcome_bottom","safe_deck_outcome","selected_deck_location","selectedRiskyDeck","error","n_stimuli","present_or_absent","chosenDeckId","choice_rt","search_rt","selected_deck_location_num"
"gvpkhg5l5",1426.44480519481,585.956474858801,13366,"21/03/2022@13:06:43","Mozilla/5.0 (Macintosh; Intel Mac OS X 10_15_7) AppleWebKit/605.1.15 (KHTML, like Gecko) Version/15.3 Safari/605.1.15",1440,900,1291,708,"main",2008777,1,4,3,"HM","relative_first","relative","Moderate","Harder than Reference","F","k","riskyDeck","safeDeck",14,0,7,"right",0,0,39,"absent","safeDeck",2582,6760,1
"gvpkhg5l5",1426.44480519481,585.956474858801,13366,"21/03/2022@13:06:43","Mozilla/5.0 (Macintosh; Intel Mac OS X 10_15_7) AppleWebKit/605.1.15 (KHTML, like Gecko) Version/15.3 Safari/605.1.15",1440,900,1291,708,"main",2008777,2,5,3,"EM","relative_first","relative","Moderate","Easier than Reference","F","k","safeDeck","riskyDeck",-28,0,-14,"right",1,0,4,"absent","riskyDeck",1838,1477,1
"gvpkhg5l5",1426.44480519481,585.956474858801,13366,"21/03/2022@13:06:43","Mozilla/5.0 (Macintosh; Intel Mac OS X 10_15_7) AppleWebKit/605.1.15 (KHTML, like Gecko) Version/15.3 Safari/605.1.15",1440,900,1291,708,"main",2008777,3,5,3,"HE","relative_first","relative","Extreme","Harder than Reference","D","k","safeDeck","riskyDeck",0,28,14,"left",0,0,46,"absent","safeDeck",2090,7081,-1
"gvpkhg5l5",1426.44480519481,585.956474858801,13366,"21/03/2022@13:06:43","Mozilla/5.0 (Macintosh; Intel Mac OS X 10_15_7) AppleWebKit/605.1.15 (KHTML, like Gecko) Version/15.3 Safari/605.1.15",1440,900,1291,708,"main",2008777,5,5,3,"HE","relative_first","relative","Extreme","Harder than Reference","D","k","safeDeck","riskyDeck",0,28,14,"left",0,0,46,"absent","safeDeck",1927,5691,-1
"gvpkhg5l5",1426.44480519481,585.956474858801,13366,"21/03/2022@13:06:43","Mozilla/5.0 (Macintosh; Intel Mac OS X 10_15_7) AppleWebKit/605.1.15 (KHTML, like Gecko) Version/15.3 Safari/605.1.15",1440,900,1291,708,"main",2008777,6,5,3,"EM","relative_first","relative","Moderate","Easier than Reference","F","k","riskyDeck","safeDeck",-28,0,-14,"right",0,0,18,"absent","safeDeck",1830,3825,1
"gvpkhg5l5",1426.44480519481,585.956474858801,13366,"21/03/2022@13:06:43","Mozilla/5.0 (Macintosh; Intel Mac OS X 10_15_7) AppleWebKit/605.1.15 (KHTML, like Gecko) Version/15.3 Safari/605.1.15",1440,900,1291,708,"main",2008777,7,5,4,"HM","relative_first","relative","Moderate","Harder than Reference","F","j","riskyDeck","safeDeck",14,0,7,"right",0,0,39,"present","safeDeck",2147,3403,1
"gvpkhg5l5",1426.44480519481,585.956474858801,13366,"21/03/2022@13:06:43","Mozilla/5.0 (Macintosh; Intel Mac OS X 10_15_7) AppleWebKit/605.1.15 (KHTML, like Gecko) Version/15.3 Safari/605.1.15",1440,900,1291,708,"main",2008777,8,5,4,"EE","relative_first","relative","Extreme","Easier than Reference","D","k","riskyDeck","safeDeck",-14,0,-7,"left",1,0,18,"absent","riskyDeck",2299,4476,-1
"gvpkhg5l5",1426.44480519481,585.956474858801,13366,"21/03/2022@13:06:43","Mozilla/5.0 (Macintosh; Intel Mac OS X 10_15_7) AppleWebKit/605.1.15 (KHTML, like Gecko) Version/15.3 Safari/605.1.15",1440,900,1291,708,"main",2008777,9,5,4,"HM","relative_first","relative","Moderate","Harder than Reference","D","j","safeDeck","riskyDeck",0,14,7,"left",0,0,39,"present","safeDeck",1538,5011,-1
"gvpkhg5l5",1426.44480519481,585.956474858801,13366,"21/03/2022@13:06:43","Mozilla/5.0 (Macintosh; Intel Mac OS X 10_15_7) AppleWebKit/605.1.15 (KHTML, like Gecko) Version/15.3 Safari/605.1.15",1440,900,1291,708,"main",2008777,10,6,4,"EM","relative_first","relative","Moderate","Easier than Reference","D","k","safeDeck","riskyDeck",0,-28,-14,"left",0,0,18,"absent","safeDeck",2522,5016,-1
"gvpkhg5l5",1426.44480519481,585.956474858801,13366,"21/03/2022@13:06:43","Mozilla/5.0 (Macintosh; Intel Mac OS X 10_15_7) AppleWebKit/605.1.15 (KHTML, like Gecko) Version/15.3 Safari/605.1.15",1440,900,1291,708,"main",2008777,11,6,4,"HE","relative_first","relative","Extreme","Harder than Reference","F","k","riskyDeck","safeDeck",28,0,14,"right",0,0,46,"absent","safeDeck",1947,7229,1
"gvpkhg5l5",1426.44480519481,585.956474858801,13366,"21/03/2022@13:06:43","Mozilla/5.0 (Macintosh; Intel Mac OS X 10_15_7) AppleWebKit/605.1.15 (KHTML, like Gecko) Version/15.3 Safari/605.1.15",1440,900,1291,708,"main",2008777,12,6,4,"EE","relative_first","relative","Extreme","Easier than Reference","F","j","safeDeck","riskyDeck",-14,0,-7,"right",1,0,18,"present","riskyDeck",1515,1305,1
"gvpkhg5l5",1426.44480519481,585.956474858801,13366,"21/03/2022@13:06:43","Mozilla/5.0 (Macintosh; Intel Mac OS X 10_15_7) AppleWebKit/605.1.15 (KHTML, like Gecko) Version/15.3 Safari/605.1.15",1440,900,1291,708,"main",2008777,13,6,4,"EM","relative_first","relative","Moderate","Easier than Reference","D","j","riskyDeck","safeDeck",0,-28,-14,"left",1,0,32,"present","riskyDeck",1869,6298,-1
"gvpkhg5l5",1426.44480519481,585.956474858801,13366,"21/03/2022@13:06:43","Mozilla/5.0 (Macintosh; Intel Mac OS X 10_15_7) AppleWebKit/605.1.15 (KHTML, like Gecko) Version/15.3 Safari/605.1.15",1440,900,1291,708,"main",2008777,14,6,5,"HM","relative_first","relative","Moderate","Harder than Reference","F","k","riskyDeck","safeDeck",0,14,7,"right",0,1,39,"present","safeDeck",2001,5855,1
"gvpkhg5l5",1426.44480519481,585.956474858801,13366,"21/03/2022@13:06:43","Mozilla/5.0 (Macintosh; Intel Mac OS X 10_15_7) AppleWebKit/605.1.15 (KHTML, like Gecko) Version/15.3 Safari/605.1.15",1440,900,1291,708,"main",2008777,15,6,5,"EE","relative_first","relative","Extreme","Easier than Reference","F","k","riskyDeck","safeDeck",-14,0,-7,"right",0,0,25,"absent","safeDeck",1546,5361,1
"gvpkhg5l5",1426.44480519481,585.956474858801,13366,"21/03/2022@13:06:43","Mozilla/5.0 (Macintosh; Intel Mac OS X 10_15_7) AppleWebKit/605.1.15 (KHTML, like Gecko) Version/15.3 Safari/605.1.15",1440,900,1291,708,"main",2008777,16,7,5,"HE","relative_first","relative","Extreme","Harder than Reference","F","k","riskyDeck","safeDeck",28,0,14,"right",0,0,46,"absent","safeDeck",2209,8342,1
"gvpkhg5l5",1426.44480519481,585.956474858801,13366,"21/03/2022@13:06:43","Mozilla/5.0 (Macintosh; Intel Mac OS X 10_15_7) AppleWebKit/605.1.15 (KHTML, like Gecko) Version/15.3 Safari/605.1.15",1440,900,1291,708,"main",2008777,17,7,5,"HE","relative_first","relative","Extreme","Harder than Reference","F","j","riskyDeck","safeDeck",28,0,14,"right",0,0,46,"present","safeDeck",1244,1903,1
"gvpkhg5l5",1426.44480519481,585.956474858801,13366,"21/03/2022@13:06:43","Mozilla/5.0 (Macintosh; Intel Mac OS X 10_15_7) AppleWebKit/605.1.15 (KHTML, like Gecko) Version/15.3 Safari/605.1.15",1440,900,1291,708,"main",2008777,18,7,5,"EM","relative_first","relative","Moderate","Easier than Reference","D","k","riskyDeck","safeDeck",-28,0,-14,"left",1,0,4,"absent","riskyDeck",2442,1096,-1
"gvpkhg5l5",1426.44480519481,585.956474858801,13366,"21/03/2022@13:06:43","Mozilla/5.0 (Macintosh; Intel Mac OS X 10_15_7) AppleWebKit/605.1.15 (KHTML, like Gecko) Version/15.3 Safari/605.1.15",1440,900,1291,708,"main",2008777,19,7,5,"EE","relative_first","relative","Extreme","Easier than Reference","D","k","riskyDeck","safeDeck",0,-14,-7,"left",1,0,18,"absent","riskyDeck",1560,4090,-1
"gvpkhg5l5",1426.44480519481,585.956474858801,13366,"21/03/2022@13:06:43","Mozilla/5.0 (Macintosh; Intel Mac OS X 10_15_7) AppleWebKit/605.1.15 (KHTML, like Gecko) Version/15.3 Safari/605.1.15",1440,900,1291,708,"main",2008777,20,7,5,"HM","relative_first","relative","Moderate","Harder than Reference","D","j","safeDeck","riskyDeck",14,0,7,"left",0,0,39,"present","safeDeck",1675,1807,-1
"gvpkhg5l5",1426.44480519481,585.956474858801,13366,"21/03/2022@13:06:43","Mozilla/5.0 (Macintosh; Intel Mac OS X 10_15_7) AppleWebKit/605.1.15 (KHTML, like Gecko) Version/15.3 Safari/605.1.15",1440,900,1291,708,"main",2008777,23,7,6,"EE","relative_first","relative","Extreme","Easier than Reference","D","k","riskyDeck","safeDeck",0,-14,-7,"left",1,0,18,"absent","riskyDeck",1914,3174,-1
"gvpkhg5l5",1426.44480519481,585.956474858801,13366,"21/03/2022@13:06:43","Mozilla/5.0 (Macintosh; Intel Mac OS X 10_15_7) AppleWebKit/605.1.15 (KHTML, like Gecko) Version/15.3 Safari/605.1.15",1440,900,1291,708,"main",2008777,24,8,6,"EM","relative_first","relative","Moderate","Easier than Reference","F","k","safeDeck","riskyDeck",0,-28,-14,"right",1,0,32,"absent","riskyDeck",1599,8278,1
"gvpkhg5l5",1426.44480519481,585.956474858801,13366,"21/03/2022@13:06:43","Mozilla/5.0 (Macintosh; Intel Mac OS X 10_15_7) AppleWebKit/605.1.15 (KHTML, like Gecko) Version/15.3 Safari/605.1.15",1440,900,1291,708,"main",2008777,25,8,6,"HE","relative_first","relative","Extreme","Harder than Reference","F","j","riskyDeck","safeDeck",0,28,14,"right",0,0,46,"present","safeDeck",1944,4151,1
"gvpkhg5l5",1426.44480519481,585.956474858801,13366,"21/03/2022@13:06:43","Mozilla/5.0 (Macintosh; Intel Mac OS X 10_15_7) AppleWebKit/605.1.15 (KHTML, like Gecko) Version/15.3 Safari/605.1.15",1440,900,1291,708,"main",2008777,26,8,6,"EM","relative_first","relative","Moderate","Easier than Reference","F","k","riskyDeck","safeDeck",0,-28,-14,"right",0,0,18,"absent","safeDeck",2365,3743,1
"gvpkhg5l5",1426.44480519481,585.956474858801,13366,"21/03/2022@13:06:43","Mozilla/5.0 (Macintosh; Intel Mac OS X 10_15_7) AppleWebKit/605.1.15 (KHTML, like Gecko) Version/15.3 Safari/605.1.15",1440,900,1291,708,"main",2008777,27,8,6,"HM","relative_first","relative","Moderate","Harder than Reference","D","k","safeDeck","riskyDeck",0,14,7,"left",0,0,39,"absent","safeDeck",1363,8966,-1
"gvpkhg5l5",1426.44480519481,585.956474858801,13366,"21/03/2022@13:06:43","Mozilla/5.0 (Macintosh; Intel Mac OS X 10_15_7) AppleWebKit/605.1.15 (KHTML, like Gecko) Version/15.3 Safari/605.1.15",1440,900,1291,708,"main",2008777,28,8,7,"EE","relative_first","relative","Extreme","Easier than Reference","D","k","riskyDeck","safeDeck",-14,0,-7,"left",1,0,32,"absent","riskyDeck",1422,5555,-1
"gvpkhg5l5",1426.44480519481,585.956474858801,13366,"21/03/2022@13:06:43","Mozilla/5.0 (Macintosh; Intel Mac OS X 10_15_7) AppleWebKit/605.1.15 (KHTML, like Gecko) Version/15.3 Safari/605.1.15",1440,900,1291,708,"main",2008777,30,9,7,"HM","relative_first","relative","Moderate","Harder than Reference","D","k","riskyDeck","safeDeck",14,0,7,"left",1,0,32,"absent","riskyDeck",1044,4890,-1
"gvpkhg5l5",1426.44480519481,585.956474858801,13366,"21/03/2022@13:06:43","Mozilla/5.0 (Macintosh; Intel Mac OS X 10_15_7) AppleWebKit/605.1.15 (KHTML, like Gecko) Version/15.3 Safari/605.1.15",1440,900,1291,708,"main",2008777,31,9,7,"EM","relative_first","relative","Moderate","Easier than Reference","F","k","riskyDeck","safeDeck",0,-28,-14,"right",0,0,18,"absent","safeDeck",1496,6823,1
"gvpkhg5l5",1426.44480519481,585.956474858801,13366,"21/03/2022@13:06:43","Mozilla/5.0 (Macintosh; Intel Mac OS X 10_15_7) AppleWebKit/605.1.15 (KHTML, like Gecko) Version/15.3 Safari/605.1.15",1440,900,1291,708,"main",2008777,32,9,7,"HE","relative_first","relative","Extreme","Harder than Reference","D","k","safeDeck","riskyDeck",28,0,14,"left",0,0,46,"absent","safeDeck",1587,5994,-1
"gvpkhg5l5",1426.44480519481,585.956474858801,13366,"21/03/2022@13:06:43","Mozilla/5.0 (Macintosh; Intel Mac OS X 10_15_7) AppleWebKit/605.1.15 (KHTML, like Gecko) Version/15.3 Safari/605.1.15",1440,900,1291,708,"main",2008777,33,9,7,"HM","relative_first","relative","Moderate","Harder than Reference","D","k","safeDeck","riskyDeck",0,14,7,"left",0,0,39,"absent","safeDeck",1223,6972,-1
"gvpkhg5l5",1426.44480519481,585.956474858801,13366,"21/03/2022@13:06:43","Mozilla/5.0 (Macintosh; Intel Mac OS X 10_15_7) AppleWebKit/605.1.15 (KHTML, like Gecko) Version/15.3 Safari/605.1.15",1440,900,1291,708,"main",2008777,34,9,7,"EM","relative_first","relative","Moderate","Easier than Reference","F","k","riskyDeck","safeDeck",0,-28,-14,"right",0,0,18,"absent","safeDeck",1368,3089,1
"gvpkhg5l5",1426.44480519481,585.956474858801,13366,"21/03/2022@13:06:43","Mozilla/5.0 (Macintosh; Intel Mac OS X 10_15_7) AppleWebKit/605.1.15 (KHTML, like Gecko) Version/15.3 Safari/605.1.15",1440,900,1291,708,"main",2008777,35,9,8,"HE","relative_first","relative","Extreme","Harder than Reference","D","k","safeDeck","riskyDeck",28,0,14,"left",0,1,46,"present","safeDeck",1059,6821,-1
"gvpkhg5l5",1426.44480519481,585.956474858801,13366,"21/03/2022@13:06:43","Mozilla/5.0 (Macintosh; Intel Mac OS X 10_15_7) AppleWebKit/605.1.15 (KHTML, like Gecko) Version/15.3 Safari/605.1.15",1440,900,1291,708,"main",2008777,36,9,8,"EE","relative_first","relative","Extreme","Easier than Reference","D","j","riskyDeck","safeDeck",-14,0,-7,"left",1,0,32,"present","riskyDeck",1484,2640,-1
"gvpkhg5l5",1426.44480519481,585.956474858801,13366,"21/03/2022@13:06:43","Mozilla/5.0 (Macintosh; Intel Mac OS X 10_15_7) AppleWebKit/605.1.15 (KHTML, like Gecko) Version/15.3 Safari/605.1.15",1440,900,1291,708,"main",2008777,37,9,8,"EM","relative_first","relative","Moderate","Easier than Reference","D","k","safeDeck","riskyDeck",0,-28,-14,"left",0,0,18,"absent","safeDeck",1361,3529,-1
"gvpkhg5l5",1426.44480519481,585.956474858801,13366,"21/03/2022@13:06:43","Mozilla/5.0 (Macintosh; Intel Mac OS X 10_15_7) AppleWebKit/605.1.15 (KHTML, like Gecko) Version/15.3 Safari/605.1.15",1440,900,1291,708,"main",2008777,38,10,8,"HM","relative_first","relative","Moderate","Harder than Reference","D","j","riskyDeck","safeDeck",14,0,7,"left",1,0,32,"present","riskyDeck",1193,1311,-1
"gvpkhg5l5",1426.44480519481,585.956474858801,13366,"21/03/2022@13:06:43","Mozilla/5.0 (Macintosh; Intel Mac OS X 10_15_7) AppleWebKit/605.1.15 (KHTML, like Gecko) Version/15.3 Safari/605.1.15",1440,900,1291,708,"main",2008777,39,10,8,"EE","relative_first","relative","Extreme","Easier than Reference","D","k","riskyDeck","safeDeck",-14,0,-7,"left",1,0,18,"absent","riskyDeck",1629,4170,-1
"gvpkhg5l5",1426.44480519481,585.956474858801,13366,"21/03/2022@13:06:43","Mozilla/5.0 (Macintosh; Intel Mac OS X 10_15_7) AppleWebKit/605.1.15 (KHTML, like Gecko) Version/15.3 Safari/605.1.15",1440,900,1291,708,"main",2008777,40,10,8,"HE","relative_first","relative","Extreme","Harder than Reference","F","k","riskyDeck","safeDeck",0,28,14,"right",0,0,46,"absent","safeDeck",1467,7126,1
"gvpkhg5l5",1426.44480519481,585.956474858801,13366,"21/03/2022@13:06:43","Mozilla/5.0 (Macintosh; Intel Mac OS X 10_15_7) AppleWebKit/605.1.15 (KHTML, like Gecko) Version/15.3 Safari/605.1.15",1440,900,1291,708,"main",2008777,41,10,8,"EE","relative_first","relative","Extreme","Easier than Reference","D","k","safeDeck","riskyDeck",0,-14,-7,"left",0,0,25,"absent","safeDeck",1763,5389,-1
"gvpkhg5l5",1426.44480519481,585.956474858801,13366,"21/03/2022@13:06:43","Mozilla/5.0 (Macintosh; Intel Mac OS X 10_15_7) AppleWebKit/605.1.15 (KHTML, like Gecko) Version/15.3 Safari/605.1.15",1440,900,1291,708,"main",2008777,42,10,9,"HM","relative_first","relative","Moderate","Harder than Reference","F","j","riskyDeck","safeDeck",0,14,7,"right",0,0,39,"present","safeDeck",1121,4508,1
"gvpkhg5l5",1426.44480519481,585.956474858801,13366,"21/03/2022@13:06:43","Mozilla/5.0 (Macintosh; Intel Mac OS X 10_15_7) AppleWebKit/605.1.15 (KHTML, like Gecko) Version/15.3 Safari/605.1.15",1440,900,1291,708,"main",2008777,43,10,9,"EM","relative_first","relative","Moderate","Easier than Reference","D","j","riskyDeck","safeDeck",-28,0,-14,"left",1,0,4,"present","riskyDeck",1344,1097,-1
"gvpkhg5l5",1426.44480519481,585.956474858801,13366,"21/03/2022@13:06:43","Mozilla/5.0 (Macintosh; Intel Mac OS X 10_15_7) AppleWebKit/605.1.15 (KHTML, like Gecko) Version/15.3 Safari/605.1.15",1440,900,1291,708,"main",2008777,44,10,9,"HE","relative_first","relative","Extreme","Harder than Reference","F","j","riskyDeck","safeDeck",0,28,14,"right",0,0,46,"present","safeDeck",1468,3305,1
"gvpkhg5l5",1426.44480519481,585.956474858801,13366,"21/03/2022@13:06:43","Mozilla/5.0 (Macintosh; Intel Mac OS X 10_15_7) AppleWebKit/605.1.15 (KHTML, like Gecko) Version/15.3 Safari/605.1.15",1440,900,1291,708,"main",2008777,46,11,9,"EM","relative_first","relative","Moderate","Easier than Reference","D","k","safeDeck","riskyDeck",0,-28,-14,"left",0,0,18,"absent","safeDeck",1150,2019,-1
"gvpkhg5l5",1426.44480519481,585.956474858801,13366,"21/03/2022@13:06:43","Mozilla/5.0 (Macintosh; Intel Mac OS X 10_15_7) AppleWebKit/605.1.15 (KHTML, like Gecko) Version/15.3 Safari/605.1.15",1440,900,1291,708,"main",2008777,47,11,9,"EE","relative_first","relative","Extreme","Easier than Reference","D","k","safeDeck","riskyDeck",-14,0,-7,"left",0,0,25,"absent","safeDeck",1295,3069,-1
"gvpkhg5l5",1426.44480519481,585.956474858801,13366,"21/03/2022@13:06:43","Mozilla/5.0 (Macintosh; Intel Mac OS X 10_15_7) AppleWebKit/605.1.15 (KHTML, like Gecko) Version/15.3 Safari/605.1.15",1440,900,1291,708,"main",2008777,48,11,9,"HE","relative_first","relative","Extreme","Harder than Reference","D","k","safeDeck","riskyDeck",0,28,14,"left",0,0,46,"absent","safeDeck",1129,2919,-1
"gvpkhg5l5",1426.44480519481,585.956474858801,13366,"21/03/2022@13:06:43","Mozilla/5.0 (Macintosh; Intel Mac OS X 10_15_7) AppleWebKit/605.1.15 (KHTML, like Gecko) Version/15.3 Safari/605.1.15",1440,900,1291,708,"main",2008777,49,11,9,"EE","relative_first","relative","Extreme","Easier than Reference","D","k","riskyDeck","safeDeck",0,-14,-7,"left",1,0,18,"absent","riskyDeck",1145,2544,-1
"gvpkhg5l5",1426.44480519481,585.956474858801,13366,"21/03/2022@13:06:43","Mozilla/5.0 (Macintosh; Intel Mac OS X 10_15_7) AppleWebKit/605.1.15 (KHTML, like Gecko) Version/15.3 Safari/605.1.15",1440,900,1291,708,"main",2008777,50,11,9,"EM","relative_first","relative","Moderate","Easier than Reference","F","k","riskyDeck","safeDeck",-28,0,-14,"right",0,0,18,"absent","safeDeck",1447,2431,1
"gvpkhg5l5",1426.44480519481,585.956474858801,13366,"21/03/2022@13:06:43","Mozilla/5.0 (Macintosh; Intel Mac OS X 10_15_7) AppleWebKit/605.1.15 (KHTML, like Gecko) Version/15.3 Safari/605.1.15",1440,900,1291,708,"main",2008777,51,11,10,"HE","relative_first","relative","Extreme","Harder than Reference","D","j","safeDeck","riskyDeck",0,28,14,"left",0,0,46,"present","safeDeck",1566,2018,-1
"gvpkhg5l5",1426.44480519481,585.956474858801,13366,"21/03/2022@13:06:43","Mozilla/5.0 (Macintosh; Intel Mac OS X 10_15_7) AppleWebKit/605.1.15 (KHTML, like Gecko) Version/15.3 Safari/605.1.15",1440,900,1291,708,"main",2008777,52,11,10,"HM","relative_first","relative","Moderate","Harder than Reference","F","k","riskyDeck","safeDeck",0,14,7,"right",0,1,39,"present","safeDeck",2102,3899,1
"gvpkhg5l5",1426.44480519481,585.956474858801,13366,"21/03/2022@13:06:43","Mozilla/5.0 (Macintosh; Intel Mac OS X 10_15_7) AppleWebKit/605.1.15 (KHTML, like Gecko) Version/15.3 Safari/605.1.15",1440,900,1291,708,"main",2008777,53,11,10,"HM","relative_first","relative","Moderate","Harder than Reference","F","j","riskyDeck","safeDeck",0,14,7,"right",0,0,39,"present","safeDeck",1181,5317,1
"gvpkhg5l5",1426.44480519481,585.956474858801,13366,"21/03/2022@13:06:43","Mozilla/5.0 (Macintosh; Intel Mac OS X 10_15_7) AppleWebKit/605.1.15 (KHTML, like Gecko) Version/15.3 Safari/605.1.15",1440,900,1291,708,"main",2008777,54,12,10,"HE","relative_first","relative","Extreme","Harder than Reference","F","k","riskyDeck","safeDeck",0,28,14,"right",0,0,46,"absent","safeDeck",1279,3989,1
"gvpkhg5l5",1426.44480519481,585.956474858801,13366,"21/03/2022@13:06:43","Mozilla/5.0 (Macintosh; Intel Mac OS X 10_15_7) AppleWebKit/605.1.15 (KHTML, like Gecko) Version/15.3 Safari/605.1.15",1440,900,1291,708,"main",2008777,55,12,10,"EM","relative_first","relative","Moderate","Easier than Reference","F","k","riskyDeck","safeDeck",0,-28,-14,"right",0,0,18,"absent","safeDeck",1230,3002,1
"gvpkhg5l5",1426.44480519481,585.956474858801,13366,"21/03/2022@13:06:43","Mozilla/5.0 (Macintosh; Intel Mac OS X 10_15_7) AppleWebKit/605.1.15 (KHTML, like Gecko) Version/15.3 Safari/605.1.15",1440,900,1291,708,"main",2008777,56,12,10,"EE","relative_first","relative","Extreme","Easier than Reference","F","k","safeDeck","riskyDeck",0,-14,-7,"right",1,0,18,"absent","riskyDeck",1267,3201,1
"gvpkhg5l5",1426.44480519481,585.956474858801,13366,"21/03/2022@13:06:43","Mozilla/5.0 (Macintosh; Intel Mac OS X 10_15_7) AppleWebKit/605.1.15 (KHTML, like Gecko) Version/15.3 Safari/605.1.15",1440,900,1291,708,"main",2008777,57,12,10,"HE","relative_first","relative","Extreme","Harder than Reference","D","j","safeDeck","riskyDeck",28,0,14,"left",0,0,46,"present","safeDeck",1410,2003,-1
"gvpkhg5l5",1426.44480519481,585.956474858801,13366,"21/03/2022@13:06:43","Mozilla/5.0 (Macintosh; Intel Mac OS X 10_15_7) AppleWebKit/605.1.15 (KHTML, like Gecko) Version/15.3 Safari/605.1.15",1440,900,1291,708,"main",2008777,58,12,10,"EM","relative_first","relative","Moderate","Easier than Reference","D","k","safeDeck","riskyDeck",-28,0,-14,"left",0,0,18,"absent","safeDeck",1106,2296,-1
"gvpkhg5l5",1426.44480519481,585.956474858801,13366,"21/03/2022@13:06:43","Mozilla/5.0 (Macintosh; Intel Mac OS X 10_15_7) AppleWebKit/605.1.15 (KHTML, like Gecko) Version/15.3 Safari/605.1.15",1440,900,1291,708,"main",2008777,59,12,10,"EE","relative_first","relative","Extreme","Easier than Reference","F","j","safeDeck","riskyDeck",-14,0,-7,"right",1,0,32,"present","riskyDeck",1172,3465,1
"gvpkhg5l5",1426.44480519481,585.956474858801,13366,"21/03/2022@13:06:43","Mozilla/5.0 (Macintosh; Intel Mac OS X 10_15_7) AppleWebKit/605.1.15 (KHTML, like Gecko) Version/15.3 Safari/605.1.15",1440,900,1291,708,"main",2008777,60,12,10,"HM","relative_first","relative","Moderate","Harder than Reference","F","j","riskyDeck","safeDeck",14,0,7,"right",0,0,39,"present","safeDeck",1352,4380,1
"gvpkhg5l5",1426.44480519481,585.956474858801,13366,"21/03/2022@13:06:43","Mozilla/5.0 (Macintosh; Intel Mac OS X 10_15_7) AppleWebKit/605.1.15 (KHTML, like Gecko) Version/15.3 Safari/605.1.15",1440,900,1291,708,"main",2008777,61,12,11,"EE","relative_first","relative","Extreme","Easier than Reference","D","k","safeDeck","riskyDeck",0,-14,-7,"left",0,0,25,"absent","safeDeck",1057,4153,-1
"gvpkhg5l5",1426.44480519481,585.956474858801,13366,"21/03/2022@13:06:43","Mozilla/5.0 (Macintosh; Intel Mac OS X 10_15_7) AppleWebKit/605.1.15 (KHTML, like Gecko) Version/15.3 Safari/605.1.15",1440,900,1291,708,"main",2008777,62,12,11,"HM","relative_first","relative","Moderate","Harder than Reference","D","k","safeDeck","riskyDeck",14,0,7,"left",0,0,39,"absent","safeDeck",2023,4289,-1
"gvpkhg5l5",1426.44480519481,585.956474858801,13366,"21/03/2022@13:06:43","Mozilla/5.0 (Macintosh; Intel Mac OS X 10_15_7) AppleWebKit/605.1.15 (KHTML, like Gecko) Version/15.3 Safari/605.1.15",1440,900,1291,708,"main",2008777,63,12,11,"HE","relative_first","relative","Extreme","Harder than Reference","F","j","riskyDeck","safeDeck",28,0,14,"right",0,0,46,"present","safeDeck",1431,5097,1
"gvpkhg5l5",1426.44480519481,585.956474858801,13366,"21/03/2022@13:06:43","Mozilla/5.0 (Macintosh; Intel Mac OS X 10_15_7) AppleWebKit/605.1.15 (KHTML, like Gecko) Version/15.3 Safari/605.1.15",1440,900,1291,708,"main",2008777,64,13,11,"EM","relative_first","relative","Moderate","Easier than Reference","F","k","riskyDeck","safeDeck",-28,0,-14,"right",0,0,18,"absent","safeDeck",1282,3524,1
"gvpkhg5l5",1426.44480519481,585.956474858801,13366,"21/03/2022@13:06:43","Mozilla/5.0 (Macintosh; Intel Mac OS X 10_15_7) AppleWebKit/605.1.15 (KHTML, like Gecko) Version/15.3 Safari/605.1.15",1440,900,1291,708,"main",2008777,65,13,11,"HE","relative_first","relative","Extreme","Harder than Reference","D","j","safeDeck","riskyDeck",0,28,14,"left",0,0,46,"present","safeDeck",2234,4777,-1
"gvpkhg5l5",1426.44480519481,585.956474858801,13366,"21/03/2022@13:06:43","Mozilla/5.0 (Macintosh; Intel Mac OS X 10_15_7) AppleWebKit/605.1.15 (KHTML, like Gecko) Version/15.3 Safari/605.1.15",1440,900,1291,708,"main",2008777,66,13,11,"EE","relative_first","relative","Extreme","Easier than Reference","F","k","safeDeck","riskyDeck",0,-14,-7,"right",1,0,32,"absent","riskyDeck",1496,3509,1
"gvpkhg5l5",1426.44480519481,585.956474858801,13366,"21/03/2022@13:06:43","Mozilla/5.0 (Macintosh; Intel Mac OS X 10_15_7) AppleWebKit/605.1.15 (KHTML, like Gecko) Version/15.3 Safari/605.1.15",1440,900,1291,708,"main",2008777,67,13,11,"HM","relative_first","relative","Moderate","Harder than Reference","D","k","riskyDeck","safeDeck",14,0,7,"left",1,0,46,"absent","riskyDeck",1152,5577,-1
"gvpkhg5l5",1426.44480519481,585.956474858801,13366,"21/03/2022@13:06:43","Mozilla/5.0 (Macintosh; Intel Mac OS X 10_15_7) AppleWebKit/605.1.15 (KHTML, like Gecko) Version/15.3 Safari/605.1.15",1440,900,1291,708,"main",2008777,68,13,11,"EM","relative_first","relative","Moderate","Easier than Reference","D","j","safeDeck","riskyDeck",-28,0,-14,"left",0,0,18,"present","safeDeck",996,1281,-1
"gvpkhg5l5",1426.44480519481,585.956474858801,13366,"21/03/2022@13:06:43","Mozilla/5.0 (Macintosh; Intel Mac OS X 10_15_7) AppleWebKit/605.1.15 (KHTML, like Gecko) Version/15.3 Safari/605.1.15",1440,900,1291,708,"main",2008777,69,13,12,"HE","relative_first","relative","Extreme","Harder than Reference","F","k","riskyDeck","safeDeck",28,0,14,"right",0,1,46,"present","safeDeck",1181,3993,1
"gvpkhg5l5",1426.44480519481,585.956474858801,13366,"21/03/2022@13:06:43","Mozilla/5.0 (Macintosh; Intel Mac OS X 10_15_7) AppleWebKit/605.1.15 (KHTML, like Gecko) Version/15.3 Safari/605.1.15",1440,900,1291,708,"main",2008777,70,13,12,"HM","relative_first","relative","Moderate","Harder than Reference","D","k","riskyDeck","safeDeck",14,0,7,"left",1,0,46,"absent","riskyDeck",1098,4811,-1
"gvpkhg5l5",1426.44480519481,585.956474858801,13366,"21/03/2022@13:06:43","Mozilla/5.0 (Macintosh; Intel Mac OS X 10_15_7) AppleWebKit/605.1.15 (KHTML, like Gecko) Version/15.3 Safari/605.1.15",1440,900,1291,708,"main",2008777,71,13,12,"EE","relative_first","relative","Extreme","Easier than Reference","D","j","riskyDeck","safeDeck",0,-14,-7,"left",1,0,18,"present","riskyDeck",1519,1335,-1
"gvpkhg5l5",1426.44480519481,585.956474858801,13366,"21/03/2022@13:06:43","Mozilla/5.0 (Macintosh; Intel Mac OS X 10_15_7) AppleWebKit/605.1.15 (KHTML, like Gecko) Version/15.3 Safari/605.1.15",1440,900,1291,708,"main",2008777,72,13,12,"EM","relative_first","relative","Moderate","Easier than Reference","F","k","riskyDeck","safeDeck",-28,0,-14,"right",0,0,18,"absent","safeDeck",1465,2614,1
"gvpkhg5l5",1426.44480519481,585.956474858801,13366,"21/03/2022@13:06:43","Mozilla/5.0 (Macintosh; Intel Mac OS X 10_15_7) AppleWebKit/605.1.15 (KHTML, like Gecko) Version/15.3 Safari/605.1.15",1440,900,1291,708,"main",2008777,73,14,12,"EE","relative_first","relative","Extreme","Easier than Reference","D","k","safeDeck","riskyDeck",-14,0,-7,"left",0,0,25,"absent","safeDeck",1664,3160,-1
"gvpkhg5l5",1426.44480519481,585.956474858801,13366,"21/03/2022@13:06:43","Mozilla/5.0 (Macintosh; Intel Mac OS X 10_15_7) AppleWebKit/605.1.15 (KHTML, like Gecko) Version/15.3 Safari/605.1.15",1440,900,1291,708,"main",2008777,74,14,12,"HM","relative_first","relative","Moderate","Harder than Reference","F","j","riskyDeck","safeDeck",14,0,7,"right",0,0,39,"present","safeDeck",1037,2014,1
"gvpkhg5l5",1426.44480519481,585.956474858801,13366,"21/03/2022@13:06:43","Mozilla/5.0 (Macintosh; Intel Mac OS X 10_15_7) AppleWebKit/605.1.15 (KHTML, like Gecko) Version/15.3 Safari/605.1.15",1440,900,1291,708,"main",2008777,75,14,12,"EM","relative_first","relative","Moderate","Easier than Reference","F","j","riskyDeck","safeDeck",-28,0,-14,"right",0,0,18,"present","safeDeck",1003,2291,1
"gvpkhg5l5",1426.44480519481,585.956474858801,13366,"21/03/2022@13:06:43","Mozilla/5.0 (Macintosh; Intel Mac OS X 10_15_7) AppleWebKit/605.1.15 (KHTML, like Gecko) Version/15.3 Safari/605.1.15",1440,900,1291,708,"main",2008777,76,14,12,"HE","relative_first","relative","Extreme","Harder than Reference","F","k","riskyDeck","safeDeck",28,0,14,"right",0,0,46,"absent","safeDeck",1295,3568,1
"gvpkhg5l5",1426.44480519481,585.956474858801,13366,"21/03/2022@13:06:43","Mozilla/5.0 (Macintosh; Intel Mac OS X 10_15_7) AppleWebKit/605.1.15 (KHTML, like Gecko) Version/15.3 Safari/605.1.15",1440,900,1291,708,"main",2008777,77,14,12,"EE","relative_first","relative","Extreme","Easier than Reference","D","j","safeDeck","riskyDeck",-14,0,-7,"left",0,0,25,"present","safeDeck",879,1243,-1
"gvpkhg5l5",1426.44480519481,585.956474858801,13366,"21/03/2022@13:06:43","Mozilla/5.0 (Macintosh; Intel Mac OS X 10_15_7) AppleWebKit/605.1.15 (KHTML, like Gecko) Version/15.3 Safari/605.1.15",1440,900,1291,708,"main",2008777,78,14,12,"HE","relative_first","relative","Extreme","Harder than Reference","D","k","safeDeck","riskyDeck",28,0,14,"left",0,1,46,"present","safeDeck",820,4213,-1
"gvpkhg5l5",1426.44480519481,585.956474858801,13366,"21/03/2022@13:06:43","Mozilla/5.0 (Macintosh; Intel Mac OS X 10_15_7) AppleWebKit/605.1.15 (KHTML, like Gecko) Version/15.3 Safari/605.1.15",1440,900,1291,708,"main",2008777,79,14,13,"HM","relative_first","relative","Moderate","Harder than Reference","F","j","riskyDeck","safeDeck",0,14,7,"right",0,0,39,"present","safeDeck",1080,1995,1
"gvpkhg5l5",1426.44480519481,585.956474858801,13366,"21/03/2022@13:06:43","Mozilla/5.0 (Macintosh; Intel Mac OS X 10_15_7) AppleWebKit/605.1.15 (KHTML, like Gecko) Version/15.3 Safari/605.1.15",1440,900,1291,708,"main",2008777,80,14,13,"EM","relative_first","relative","Moderate","Easier than Reference","D","k","safeDeck","riskyDeck",0,-28,-14,"left",0,0,18,"absent","safeDeck",1128,2786,-1
"gvpkhg5l5",1426.44480519481,585.956474858801,13366,"21/03/2022@13:06:43","Mozilla/5.0 (Macintosh; Intel Mac OS X 10_15_7) AppleWebKit/605.1.15 (KHTML, like Gecko) Version/15.3 Safari/605.1.15",1440,900,1291,708,"main",2008777,81,14,13,"EE","relative_first","relative","Extreme","Easier than Reference","F","j","riskyDeck","safeDeck",-14,0,-7,"right",0,0,25,"present","safeDeck",1295,3607,1
"gvpkhg5l5",1426.44480519481,585.956474858801,13366,"21/03/2022@13:06:43","Mozilla/5.0 (Macintosh; Intel Mac OS X 10_15_7) AppleWebKit/605.1.15 (KHTML, like Gecko) Version/15.3 Safari/605.1.15",1440,900,1291,708,"main",2008777,82,14,13,"HE","relative_first","relative","Extreme","Harder than Reference","D","k","safeDeck","riskyDeck",0,28,14,"left",0,0,46,"absent","safeDeck",1324,5897,-1
"gvpkhg5l5",1426.44480519481,585.956474858801,13366,"21/03/2022@13:06:43","Mozilla/5.0 (Macintosh; Intel Mac OS X 10_15_7) AppleWebKit/605.1.15 (KHTML, like Gecko) Version/15.3 Safari/605.1.15",1440,900,1291,708,"main",2008777,83,15,13,"EM","relative_first","relative","Moderate","Easier than Reference","D","j","safeDeck","riskyDeck",-28,0,-14,"left",0,0,18,"present","safeDeck",1059,1415,-1
"gvpkhg5l5",1426.44480519481,585.956474858801,13366,"21/03/2022@13:06:43","Mozilla/5.0 (Macintosh; Intel Mac OS X 10_15_7) AppleWebKit/605.1.15 (KHTML, like Gecko) Version/15.3 Safari/605.1.15",1440,900,1291,708,"main",2008777,84,15,13,"HM","relative_first","relative","Moderate","Harder than Reference","D","j","safeDeck","riskyDeck",0,14,7,"left",0,0,39,"present","safeDeck",1469,2605,-1
"gvpkhg5l5",1426.44480519481,585.956474858801,13366,"21/03/2022@13:06:43","Mozilla/5.0 (Macintosh; Intel Mac OS X 10_15_7) AppleWebKit/605.1.15 (KHTML, like Gecko) Version/15.3 Safari/605.1.15",1440,900,1291,708,"main",2008777,85,15,13,"EM","relative_first","relative","Moderate","Easier than Reference","D","k","riskyDeck","safeDeck",-28,0,-14,"left",1,0,32,"absent","riskyDeck",1298,3490,-1
"gvpkhg5l5",1426.44480519481,585.956474858801,13366,"21/03/2022@13:06:43","Mozilla/5.0 (Macintosh; Intel Mac OS X 10_15_7) AppleWebKit/605.1.15 (KHTML, like Gecko) Version/15.3 Safari/605.1.15",1440,900,1291,708,"main",2008777,86,15,13,"HM","relative_first","relative","Moderate","Harder than Reference","F","j","riskyDeck","safeDeck",14,0,7,"right",0,0,39,"present","safeDeck",1086,789,1
"gvpkhg5l5",1426.44480519481,585.956474858801,13366,"21/03/2022@13:06:43","Mozilla/5.0 (Macintosh; Intel Mac OS X 10_15_7) AppleWebKit/605.1.15 (KHTML, like Gecko) Version/15.3 Safari/605.1.15",1440,900,1291,708,"main",2008777,87,15,13,"HE","relative_first","relative","Extreme","Harder than Reference","F","k","riskyDeck","safeDeck",28,0,14,"right",0,0,46,"absent","safeDeck",1522,4022,1
"gvpkhg5l5",1426.44480519481,585.956474858801,13366,"21/03/2022@13:06:43","Mozilla/5.0 (Macintosh; Intel Mac OS X 10_15_7) AppleWebKit/605.1.15 (KHTML, like Gecko) Version/15.3 Safari/605.1.15",1440,900,1291,708,"main",2008777,88,15,13,"EE","relative_first","relative","Extreme","Easier than Reference","F","k","safeDeck","riskyDeck",0,-14,-7,"right",1,0,18,"absent","riskyDeck",1297,2655,1
"gvpkhg5l5",1426.44480519481,585.956474858801,13366,"21/03/2022@13:06:43","Mozilla/5.0 (Macintosh; Intel Mac OS X 10_15_7) AppleWebKit/605.1.15 (KHTML, like Gecko) Version/15.3 Safari/605.1.15",1440,900,1291,708,"main",2008777,89,15,14,"EE","relative_first","relative","Extreme","Easier than Reference","F","k","riskyDeck","safeDeck",-14,0,-7,"right",0,0,25,"absent","safeDeck",1658,2453,1
"gvpkhg5l5",1426.44480519481,585.956474858801,13366,"21/03/2022@13:06:43","Mozilla/5.0 (Macintosh; Intel Mac OS X 10_15_7) AppleWebKit/605.1.15 (KHTML, like Gecko) Version/15.3 Safari/605.1.15",1440,900,1291,708,"main",2008777,90,15,14,"HE","relative_first","relative","Extreme","Harder than Reference","D","k","safeDeck","riskyDeck",0,28,14,"left",0,1,46,"present","safeDeck",1392,1745,-1
"gvpkhg5l5",1426.44480519481,585.956474858801,13366,"21/03/2022@13:06:43","Mozilla/5.0 (Macintosh; Intel Mac OS X 10_15_7) AppleWebKit/605.1.15 (KHTML, like Gecko) Version/15.3 Safari/605.1.15",1440,900,1291,708,"main",2008777,91,15,14,"EM","relative_first","relative","Moderate","Easier than Reference","D","k","riskyDeck","safeDeck",-28,0,-14,"left",1,0,32,"absent","riskyDeck",983,5077,-1
"gvpkhg5l5",1426.44480519481,585.956474858801,13366,"21/03/2022@13:06:43","Mozilla/5.0 (Macintosh; Intel Mac OS X 10_15_7) AppleWebKit/605.1.15 (KHTML, like Gecko) Version/15.3 Safari/605.1.15",1440,900,1291,708,"main",2008777,92,15,14,"HM","relative_first","relative","Moderate","Harder than Reference","F","j","riskyDeck","safeDeck",14,0,7,"right",0,0,39,"present","safeDeck",1666,2958,1
"gvpkhg5l5",1426.44480519481,585.956474858801,13366,"21/03/2022@13:06:43","Mozilla/5.0 (Macintosh; Intel Mac OS X 10_15_7) AppleWebKit/605.1.15 (KHTML, like Gecko) Version/15.3 Safari/605.1.15",1440,900,1291,708,"main",2008777,93,16,14,"HE","relative_first","relative","Extreme","Harder than Reference","F","j","riskyDeck","safeDeck",0,28,14,"right",0,0,46,"present","safeDeck",1391,1343,1
"gvpkhg5l5",1426.44480519481,585.956474858801,13366,"21/03/2022@13:06:43","Mozilla/5.0 (Macintosh; Intel Mac OS X 10_15_7) AppleWebKit/605.1.15 (KHTML, like Gecko) Version/15.3 Safari/605.1.15",1440,900,1291,708,"main",2008777,94,16,14,"HM","relative_first","relative","Moderate","Harder than Reference","D","k","safeDeck","riskyDeck",0,14,7,"left",0,0,39,"absent","safeDeck",1084,2300,-1
"gvpkhg5l5",1426.44480519481,585.956474858801,13366,"21/03/2022@13:06:43","Mozilla/5.0 (Macintosh; Intel Mac OS X 10_15_7) AppleWebKit/605.1.15 (KHTML, like Gecko) Version/15.3 Safari/605.1.15",1440,900,1291,708,"main",2008777,95,16,14,"EM","relative_first","relative","Moderate","Easier than Reference","D","k","riskyDeck","safeDeck",-28,0,-14,"left",1,0,4,"absent","riskyDeck",1271,1332,-1
"gvpkhg5l5",1426.44480519481,585.956474858801,13366,"21/03/2022@13:06:43","Mozilla/5.0 (Macintosh; Intel Mac OS X 10_15_7) AppleWebKit/605.1.15 (KHTML, like Gecko) Version/15.3 Safari/605.1.15",1440,900,1291,708,"main",2008777,96,16,14,"EE","relative_first","relative","Extreme","Easier than Reference","F","k","riskyDeck","safeDeck",0,-14,-7,"right",0,0,25,"absent","safeDeck",1271,3562,1
"gvpkhg5l5",1426.44480519481,585.956474858801,13366,"21/03/2022@13:06:43","Mozilla/5.0 (Macintosh; Intel Mac OS X 10_15_7) AppleWebKit/605.1.15 (KHTML, like Gecko) Version/15.3 Safari/605.1.15",1440,900,1291,708,"main",2008777,97,16,14,"HE","relative_first","relative","Extreme","Harder than Reference","F","j","riskyDeck","safeDeck",0,28,14,"right",0,0,46,"present","safeDeck",1230,3231,1
"gvpkhg5l5",1426.44480519481,585.956474858801,13366,"21/03/2022@13:06:43","Mozilla/5.0 (Macintosh; Intel Mac OS X 10_15_7) AppleWebKit/605.1.15 (KHTML, like Gecko) Version/15.3 Safari/605.1.15",1440,900,1291,708,"main",2008777,98,16,14,"HM","relative_first","relative","Moderate","Harder than Reference","F","k","riskyDeck","safeDeck",0,14,7,"right",0,0,39,"absent","safeDeck",1330,3538,1
"gvpkhg5l5",1426.44480519481,585.956474858801,13366,"21/03/2022@13:06:43","Mozilla/5.0 (Macintosh; Intel Mac OS X 10_15_7) AppleWebKit/605.1.15 (KHTML, like Gecko) Version/15.3 Safari/605.1.15",1440,900,1291,708,"main",2008777,99,16,14,"EM","relative_first","relative","Moderate","Easier than Reference","D","j","safeDeck","riskyDeck",0,-28,-14,"left",0,0,18,"present","safeDeck",1343,1255,-1
"gvpkhg5l5",1426.44480519481,585.956474858801,13366,"21/03/2022@13:06:43","Mozilla/5.0 (Macintosh; Intel Mac OS X 10_15_7) AppleWebKit/605.1.15 (KHTML, like Gecko) Version/15.3 Safari/605.1.15",1440,900,1291,708,"main",2008777,100,16,15,"EE","relative_first","relative","Extreme","Easier than Reference","F","k","riskyDeck","safeDeck",0,-14,-7,"right",0,0,25,"absent","safeDeck",1109,3186,1
"gvpkhg5l5",1426.44480519481,585.956474858801,13366,"21/03/2022@13:06:43","Mozilla/5.0 (Macintosh; Intel Mac OS X 10_15_7) AppleWebKit/605.1.15 (KHTML, like Gecko) Version/15.3 Safari/605.1.15",1440,900,1291,708,"main",2008777,101,16,15,"EM","relative_first","relative","Moderate","Easier than Reference","F","k","riskyDeck","safeDeck",0,-28,-14,"right",0,0,18,"absent","safeDeck",1077,3332,1
"gvpkhg5l5",1426.44480519481,585.956474858801,13366,"21/03/2022@13:06:43","Mozilla/5.0 (Macintosh; Intel Mac OS X 10_15_7) AppleWebKit/605.1.15 (KHTML, like Gecko) Version/15.3 Safari/605.1.15",1440,900,1291,708,"main",2008777,102,16,15,"HM","relative_first","relative","Moderate","Harder than Reference","F","k","riskyDeck","safeDeck",0,14,7,"right",0,1,39,"present","safeDeck",796,4954,1
"gvpkhg5l5",1426.44480519481,585.956474858801,13366,"21/03/2022@13:06:43","Mozilla/5.0 (Macintosh; Intel Mac OS X 10_15_7) AppleWebKit/605.1.15 (KHTML, like Gecko) Version/15.3 Safari/605.1.15",1440,900,1291,708,"main",2008777,103,17,15,"HE","relative_first","relative","Extreme","Harder than Reference","D","j","safeDeck","riskyDeck",28,0,14,"left",0,0,46,"present","safeDeck",1063,2269,-1
"gvpkhg5l5",1426.44480519481,585.956474858801,13366,"21/03/2022@13:06:43","Mozilla/5.0 (Macintosh; Intel Mac OS X 10_15_7) AppleWebKit/605.1.15 (KHTML, like Gecko) Version/15.3 Safari/605.1.15",1440,900,1291,708,"main",2008777,104,17,15,"EE","relative_first","relative","Extreme","Easier than Reference","F","j","riskyDeck","safeDeck",-14,0,-7,"right",0,0,25,"present","safeDeck",1598,1433,1
"gvpkhg5l5",1426.44480519481,585.956474858801,13366,"21/03/2022@13:06:43","Mozilla/5.0 (Macintosh; Intel Mac OS X 10_15_7) AppleWebKit/605.1.15 (KHTML, like Gecko) Version/15.3 Safari/605.1.15",1440,900,1291,708,"main",2008777,105,17,15,"EM","relative_first","relative","Moderate","Easier than Reference","F","k","riskyDeck","safeDeck",-28,0,-14,"right",0,0,18,"absent","safeDeck",1895,3591,1
"gvpkhg5l5",1426.44480519481,585.956474858801,13366,"21/03/2022@13:06:43","Mozilla/5.0 (Macintosh; Intel Mac OS X 10_15_7) AppleWebKit/605.1.15 (KHTML, like Gecko) Version/15.3 Safari/605.1.15",1440,900,1291,708,"main",2008777,106,17,15,"EE","relative_first","relative","Extreme","Easier than Reference","F","k","riskyDeck","safeDeck",-14,0,-7,"right",0,0,25,"absent","safeDeck",1252,4278,1
"gvpkhg5l5",1426.44480519481,585.956474858801,13366,"21/03/2022@13:06:43","Mozilla/5.0 (Macintosh; Intel Mac OS X 10_15_7) AppleWebKit/605.1.15 (KHTML, like Gecko) Version/15.3 Safari/605.1.15",1440,900,1291,708,"main",2008777,107,17,15,"HE","relative_first","relative","Extreme","Harder than Reference","F","k","riskyDeck","safeDeck",0,28,14,"right",0,0,46,"absent","safeDeck",1142,3069,1
"gvpkhg5l5",1426.44480519481,585.956474858801,13366,"21/03/2022@13:06:43","Mozilla/5.0 (Macintosh; Intel Mac OS X 10_15_7) AppleWebKit/605.1.15 (KHTML, like Gecko) Version/15.3 Safari/605.1.15",1440,900,1291,708,"main",2008777,108,17,15,"HM","relative_first","relative","Moderate","Harder than Reference","D","j","safeDeck","riskyDeck",0,14,7,"left",0,0,39,"present","safeDeck",1242,2942,-1
"gvpkhg5l5",1426.44480519481,585.956474858801,13366,"21/03/2022@13:06:43","Mozilla/5.0 (Macintosh; Intel Mac OS X 10_15_7) AppleWebKit/605.1.15 (KHTML, like Gecko) Version/15.3 Safari/605.1.15",1440,900,1291,708,"main",2008777,109,17,16,"HE","relative_first","relative","Extreme","Harder than Reference","D","k","safeDeck","riskyDeck",28,0,14,"left",0,1,46,"present","safeDeck",1107,3292,-1
"gvpkhg5l5",1426.44480519481,585.956474858801,13366,"21/03/2022@13:06:43","Mozilla/5.0 (Macintosh; Intel Mac OS X 10_15_7) AppleWebKit/605.1.15 (KHTML, like Gecko) Version/15.3 Safari/605.1.15",1440,900,1291,708,"main",2008777,110,17,16,"HM","relative_first","relative","Moderate","Harder than Reference","D","k","safeDeck","riskyDeck",14,0,7,"left",0,0,39,"absent","safeDeck",990,4369,-1
"gvpkhg5l5",1426.44480519481,585.956474858801,13366,"21/03/2022@13:06:43","Mozilla/5.0 (Macintosh; Intel Mac OS X 10_15_7) AppleWebKit/605.1.15 (KHTML, like Gecko) Version/15.3 Safari/605.1.15",1440,900,1291,708,"main",2008777,111,17,16,"EE","relative_first","relative","Extreme","Easier than Reference","D","j","riskyDeck","safeDeck",0,-14,-7,"left",1,0,32,"present","riskyDeck",1344,1168,-1
"gvpkhg5l5",1426.44480519481,585.956474858801,13366,"21/03/2022@13:06:43","Mozilla/5.0 (Macintosh; Intel Mac OS X 10_15_7) AppleWebKit/605.1.15 (KHTML, like Gecko) Version/15.3 Safari/605.1.15",1440,900,1291,708,"main",2008777,112,17,16,"EM","relative_first","relative","Moderate","Easier than Reference","F","k","riskyDeck","safeDeck",-28,0,-14,"right",0,0,18,"absent","safeDeck",1432,3819,1
"gvpkhg5l5",1426.44480519481,585.956474858801,13366,"21/03/2022@13:06:43","Mozilla/5.0 (Macintosh; Intel Mac OS X 10_15_7) AppleWebKit/605.1.15 (KHTML, like Gecko) Version/15.3 Safari/605.1.15",1440,900,1291,708,"main",2008777,113,18,16,"HM","relative_first","relative","Moderate","Harder than Reference","D","j","safeDeck","riskyDeck",0,14,7,"left",0,0,39,"present","safeDeck",763,3463,-1
"gvpkhg5l5",1426.44480519481,585.956474858801,13366,"21/03/2022@13:06:43","Mozilla/5.0 (Macintosh; Intel Mac OS X 10_15_7) AppleWebKit/605.1.15 (KHTML, like Gecko) Version/15.3 Safari/605.1.15",1440,900,1291,708,"main",2008777,114,18,16,"EE","relative_first","relative","Extreme","Easier than Reference","D","j","riskyDeck","safeDeck",0,-14,-7,"left",1,0,32,"present","riskyDeck",1580,1766,-1
"gvpkhg5l5",1426.44480519481,585.956474858801,13366,"21/03/2022@13:06:43","Mozilla/5.0 (Macintosh; Intel Mac OS X 10_15_7) AppleWebKit/605.1.15 (KHTML, like Gecko) Version/15.3 Safari/605.1.15",1440,900,1291,708,"main",2008777,115,18,16,"HE","relative_first","relative","Extreme","Harder than Reference","D","j","safeDeck","riskyDeck",28,0,14,"left",0,0,46,"present","safeDeck",1171,1960,-1
"gvpkhg5l5",1426.44480519481,585.956474858801,13366,"21/03/2022@13:06:43","Mozilla/5.0 (Macintosh; Intel Mac OS X 10_15_7) AppleWebKit/605.1.15 (KHTML, like Gecko) Version/15.3 Safari/605.1.15",1440,900,1291,708,"main",2008777,116,18,16,"EM","relative_first","relative","Moderate","Easier than Reference","D","k","safeDeck","riskyDeck",-28,0,-14,"left",0,0,18,"absent","safeDeck",1171,2630,-1
"gvpkhg5l5",1426.44480519481,585.956474858801,13366,"21/03/2022@13:06:43","Mozilla/5.0 (Macintosh; Intel Mac OS X 10_15_7) AppleWebKit/605.1.15 (KHTML, like Gecko) Version/15.3 Safari/605.1.15",1440,900,1291,708,"main",2008777,117,18,16,"EM","relative_first","relative","Moderate","Easier than Reference","D","j","safeDeck","riskyDeck",-28,0,-14,"left",0,0,18,"present","safeDeck",1013,1165,-1
"gvpkhg5l5",1426.44480519481,585.956474858801,13366,"21/03/2022@13:06:43","Mozilla/5.0 (Macintosh; Intel Mac OS X 10_15_7) AppleWebKit/605.1.15 (KHTML, like Gecko) Version/15.3 Safari/605.1.15",1440,900,1291,708,"main",2008777,118,18,16,"HE","relative_first","relative","Extreme","Harder than Reference","F","k","riskyDeck","safeDeck",0,28,14,"right",0,0,46,"absent","safeDeck",1101,1919,1
"gvpkhg5l5",1426.44480519481,585.956474858801,13366,"21/03/2022@13:06:43","Mozilla/5.0 (Macintosh; Intel Mac OS X 10_15_7) AppleWebKit/605.1.15 (KHTML, like Gecko) Version/15.3 Safari/605.1.15",1440,900,1291,708,"main",2008777,119,18,16,"HM","relative_first","relative","Moderate","Harder than Reference","D","j","safeDeck","riskyDeck",0,14,7,"left",0,0,39,"present","safeDeck",905,1559,-1
"gvpkhg5l5",1426.44480519481,585.956474858801,13366,"21/03/2022@13:06:43","Mozilla/5.0 (Macintosh; Intel Mac OS X 10_15_7) AppleWebKit/605.1.15 (KHTML, like Gecko) Version/15.3 Safari/605.1.15",1440,900,1291,708,"main",2008777,120,18,16,"EE","relative_first","relative","Extreme","Easier than Reference","D","k","riskyDeck","safeDeck",-14,0,-7,"left",1,0,32,"absent","riskyDeck",1722,2531,-1
"gvpkhg5l5",1426.44480519481,585.956474858801,13366,"21/03/2022@13:06:43","Mozilla/5.0 (Macintosh; Intel Mac OS X 10_15_7) AppleWebKit/605.1.15 (KHTML, like Gecko) Version/15.3 Safari/605.1.15",1440,900,1291,708,"main",2008777,121,18,17,"HM","relative_first","relative","Moderate","Harder than Reference","F","k","riskyDeck","safeDeck",0,14,7,"right",0,1,39,"present","safeDeck",1369,3289,1
"gvpkhg5l5",1426.44480519481,585.956474858801,13366,"21/03/2022@13:06:43","Mozilla/5.0 (Macintosh; Intel Mac OS X 10_15_7) AppleWebKit/605.1.15 (KHTML, like Gecko) Version/15.3 Safari/605.1.15",1440,900,1291,708,"main",2008777,122,18,17,"HE","relative_first","relative","Extreme","Harder than Reference","F","j","riskyDeck","safeDeck",0,28,14,"right",0,0,46,"present","safeDeck",874,1668,1
"gvpkhg5l5",1426.44480519481,585.956474858801,13366,"21/03/2022@13:06:43","Mozilla/5.0 (Macintosh; Intel Mac OS X 10_15_7) AppleWebKit/605.1.15 (KHTML, like Gecko) Version/15.3 Safari/605.1.15",1440,900,1291,708,"main",2008777,123,18,17,"EE","relative_first","relative","Extreme","Easier than Reference","D","k","riskyDeck","safeDeck",0,-14,-7,"left",1,0,32,"absent","riskyDeck",958,2781,-1
"gvpkhg5l5",1426.44480519481,585.956474858801,13366,"21/03/2022@13:06:43","Mozilla/5.0 (Macintosh; Intel Mac OS X 10_15_7) AppleWebKit/605.1.15 (KHTML, like Gecko) Version/15.3 Safari/605.1.15",1440,900,1291,708,"main",2008777,124,18,17,"EM","relative_first","relative","Moderate","Easier than Reference","D","k","safeDeck","riskyDeck",-28,0,-14,"left",0,1,18,"present","safeDeck",1178,2752,-1
"gvpkhg5l5",1426.44480519481,585.956474858801,13366,"21/03/2022@13:06:43","Mozilla/5.0 (Macintosh; Intel Mac OS X 10_15_7) AppleWebKit/605.1.15 (KHTML, like Gecko) Version/15.3 Safari/605.1.15",1440,900,1291,708,"main",2008777,125,19,17,"HE","relative_first","relative","Extreme","Harder than Reference","F","j","riskyDeck","safeDeck",0,28,14,"right",0,0,46,"present","safeDeck",886,1296,1
"gvpkhg5l5",1426.44480519481,585.956474858801,13366,"21/03/2022@13:06:43","Mozilla/5.0 (Macintosh; Intel Mac OS X 10_15_7) AppleWebKit/605.1.15 (KHTML, like Gecko) Version/15.3 Safari/605.1.15",1440,900,1291,708,"main",2008777,126,19,17,"HM","relative_first","relative","Moderate","Harder than Reference","F","k","riskyDeck","safeDeck",0,14,7,"right",0,0,39,"absent","safeDeck",903,2962,1
"gvpkhg5l5",1426.44480519481,585.956474858801,13366,"21/03/2022@13:06:43","Mozilla/5.0 (Macintosh; Intel Mac OS X 10_15_7) AppleWebKit/605.1.15 (KHTML, like Gecko) Version/15.3 Safari/605.1.15",1440,900,1291,708,"main",2008777,127,19,17,"EE","relative_first","relative","Extreme","Easier than Reference","F","j","riskyDeck","safeDeck",0,-14,-7,"right",0,0,25,"present","safeDeck",722,3145,1
"gvpkhg5l5",1426.44480519481,585.956474858801,13366,"21/03/2022@13:06:43","Mozilla/5.0 (Macintosh; Intel Mac OS X 10_15_7) AppleWebKit/605.1.15 (KHTML, like Gecko) Version/15.3 Safari/605.1.15",1440,900,1291,708,"main",2008777,128,19,17,"EM","relative_first","relative","Moderate","Easier than Reference","F","j","safeDeck","riskyDeck",0,-28,-14,"right",1,0,32,"present","riskyDeck",1197,2080,1
"gvpkhg5l5",1426.44480519481,585.956474858801,13366,"21/03/2022@13:06:43","Mozilla/5.0 (Macintosh; Intel Mac OS X 10_15_7) AppleWebKit/605.1.15 (KHTML, like Gecko) Version/15.3 Safari/605.1.15",1440,900,1291,708,"main",2008777,129,19,17,"HM","relative_first","relative","Moderate","Harder than Reference","F","j","riskyDeck","safeDeck",14,0,7,"right",0,0,39,"present","safeDeck",1628,1515,1
"gvpkhg5l5",1426.44480519481,585.956474858801,13366,"21/03/2022@13:06:43","Mozilla/5.0 (Macintosh; Intel Mac OS X 10_15_7) AppleWebKit/605.1.15 (KHTML, like Gecko) Version/15.3 Safari/605.1.15",1440,900,1291,708,"main",2008777,131,19,18,"EE","relative_first","relative","Extreme","Easier than Reference","F","k","riskyDeck","safeDeck",0,-14,-7,"right",0,1,25,"present","safeDeck",1452,3534,1
"gvpkhg5l5",1426.44480519481,585.956474858801,13366,"21/03/2022@13:06:43","Mozilla/5.0 (Macintosh; Intel Mac OS X 10_15_7) AppleWebKit/605.1.15 (KHTML, like Gecko) Version/15.3 Safari/605.1.15",1440,900,1291,708,"main",2008777,132,19,18,"EM","relative_first","relative","Moderate","Easier than Reference","D","k","safeDeck","riskyDeck",0,-28,-14,"left",0,0,18,"absent","safeDeck",1570,4497,-1
"gvpkhg5l5",1426.44480519481,585.956474858801,13366,"21/03/2022@13:06:43","Mozilla/5.0 (Macintosh; Intel Mac OS X 10_15_7) AppleWebKit/605.1.15 (KHTML, like Gecko) Version/15.3 Safari/605.1.15",1440,900,1291,708,"main",2008777,133,19,18,"HM","relative_first","relative","Moderate","Harder than Reference","D","j","safeDeck","riskyDeck",14,0,7,"left",0,0,39,"present","safeDeck",1112,2431,-1
"gvpkhg5l5",1426.44480519481,585.956474858801,13366,"21/03/2022@13:06:43","Mozilla/5.0 (Macintosh; Intel Mac OS X 10_15_7) AppleWebKit/605.1.15 (KHTML, like Gecko) Version/15.3 Safari/605.1.15",1440,900,1291,708,"main",2008777,134,20,18,"EE","relative_first","relative","Extreme","Easier than Reference","D","k","safeDeck","riskyDeck",-14,0,-7,"left",0,1,25,"present","safeDeck",1156,3155,-1
"gvpkhg5l5",1426.44480519481,585.956474858801,13366,"21/03/2022@13:06:43","Mozilla/5.0 (Macintosh; Intel Mac OS X 10_15_7) AppleWebKit/605.1.15 (KHTML, like Gecko) Version/15.3 Safari/605.1.15",1440,900,1291,708,"main",2008777,135,20,18,"HE","relative_first","relative","Extreme","Harder than Reference","D","k","safeDeck","riskyDeck",28,0,14,"left",0,1,46,"present","safeDeck",1127,3704,-1
"gvpkhg5l5",1426.44480519481,585.956474858801,13366,"21/03/2022@13:06:43","Mozilla/5.0 (Macintosh; Intel Mac OS X 10_15_7) AppleWebKit/605.1.15 (KHTML, like Gecko) Version/15.3 Safari/605.1.15",1440,900,1291,708,"main",2008777,136,20,18,"EM","relative_first","relative","Moderate","Easier than Reference","D","j","safeDeck","riskyDeck",-28,0,-14,"left",0,0,18,"present","safeDeck",637,1953,-1
"gvpkhg5l5",1426.44480519481,585.956474858801,13366,"21/03/2022@13:06:43","Mozilla/5.0 (Macintosh; Intel Mac OS X 10_15_7) AppleWebKit/605.1.15 (KHTML, like Gecko) Version/15.3 Safari/605.1.15",1440,900,1291,708,"main",2008777,137,20,18,"EM","relative_first","relative","Moderate","Easier than Reference","D","k","safeDeck","riskyDeck",0,-28,-14,"left",0,0,18,"absent","safeDeck",465,3883,-1
"gvpkhg5l5",1426.44480519481,585.956474858801,13366,"21/03/2022@13:06:43","Mozilla/5.0 (Macintosh; Intel Mac OS X 10_15_7) AppleWebKit/605.1.15 (KHTML, like Gecko) Version/15.3 Safari/605.1.15",1440,900,1291,708,"main",2008777,138,20,18,"EE","relative_first","relative","Extreme","Easier than Reference","D","k","safeDeck","riskyDeck",0,-14,-7,"left",0,0,25,"absent","safeDeck",476,2662,-1
"gvpkhg5l5",1426.44480519481,585.956474858801,13366,"21/03/2022@13:06:43","Mozilla/5.0 (Macintosh; Intel Mac OS X 10_15_7) AppleWebKit/605.1.15 (KHTML, like Gecko) Version/15.3 Safari/605.1.15",1440,900,1291,708,"main",2008777,139,20,18,"HM","relative_first","relative","Moderate","Harder than Reference","F","j","riskyDeck","safeDeck",0,14,7,"right",0,0,39,"present","safeDeck",946,950,1
"gvpkhg5l5",1426.44480519481,585.956474858801,13366,"21/03/2022@13:06:43","Mozilla/5.0 (Macintosh; Intel Mac OS X 10_15_7) AppleWebKit/605.1.15 (KHTML, like Gecko) Version/15.3 Safari/605.1.15",1440,900,1291,708,"main",2008777,140,20,18,"HE","relative_first","relative","Extreme","Harder than Reference","D","j","safeDeck","riskyDeck",28,0,14,"left",0,0,46,"present","safeDeck",1316,2654,-1
"gvpkhg5l5",1426.44480519481,585.956474858801,13366,"21/03/2022@13:06:43","Mozilla/5.0 (Macintosh; Intel Mac OS X 10_15_7) AppleWebKit/605.1.15 (KHTML, like Gecko) Version/15.3 Safari/605.1.15",1440,900,1291,708,"main",2008777,141,20,19,"HM","relative_first","relative","Moderate","Harder than Reference","F","k","riskyDeck","safeDeck",0,14,7,"right",0,0,39,"absent","safeDeck",1016,2809,1
"gvpkhg5l5",1426.44480519481,585.956474858801,13366,"21/03/2022@13:06:43","Mozilla/5.0 (Macintosh; Intel Mac OS X 10_15_7) AppleWebKit/605.1.15 (KHTML, like Gecko) Version/15.3 Safari/605.1.15",1440,900,1291,708,"main",2008777,142,20,19,"EM","relative_first","relative","Moderate","Easier than Reference","D","j","safeDeck","riskyDeck",0,-28,-14,"left",0,0,18,"present","safeDeck",930,1044,-1
"gvpkhg5l5",1426.44480519481,585.956474858801,13366,"21/03/2022@13:06:43","Mozilla/5.0 (Macintosh; Intel Mac OS X 10_15_7) AppleWebKit/605.1.15 (KHTML, like Gecko) Version/15.3 Safari/605.1.15",1440,900,1291,708,"main",2008777,143,20,19,"HE","relative_first","relative","Extreme","Harder than Reference","F","k","riskyDeck","safeDeck",28,0,14,"right",0,0,46,"absent","safeDeck",874,2597,1
"gvpkhg5l5",1426.44480519481,585.956474858801,13366,"21/03/2022@13:06:43","Mozilla/5.0 (Macintosh; Intel Mac OS X 10_15_7) AppleWebKit/605.1.15 (KHTML, like Gecko) Version/15.3 Safari/605.1.15",1440,900,1291,708,"main",2008777,144,20,19,"EE","relative_first","relative","Extreme","Easier than Reference","D","j","safeDeck","riskyDeck",0,-14,-7,"left",0,0,25,"present","safeDeck",1039,915,-1
"gvpkhg5l5",1426.44480519481,585.956474858801,13366,"21/03/2022@13:06:43","Mozilla/5.0 (Macintosh; Intel Mac OS X 10_15_7) AppleWebKit/605.1.15 (KHTML, like Gecko) Version/15.3 Safari/605.1.15",1440,900,1291,708,"main",2008777,145,20,19,"HE","relative_first","relative","Extreme","Harder than Reference","F","k","riskyDeck","safeDeck",0,28,14,"right",0,1,46,"present","safeDeck",1252,3352,1
"gvpkhg5l5",1426.44480519481,585.956474858801,13366,"21/03/2022@13:06:43","Mozilla/5.0 (Macintosh; Intel Mac OS X 10_15_7) AppleWebKit/605.1.15 (KHTML, like Gecko) Version/15.3 Safari/605.1.15",1440,900,1291,708,"main",2008777,146,21,19,"EM","relative_first","relative","Moderate","Easier than Reference","F","k","riskyDeck","safeDeck",0,-28,-14,"right",0,1,18,"present","safeDeck",1425,2321,1
"gvpkhg5l5",1426.44480519481,585.956474858801,13366,"21/03/2022@13:06:43","Mozilla/5.0 (Macintosh; Intel Mac OS X 10_15_7) AppleWebKit/605.1.15 (KHTML, like Gecko) Version/15.3 Safari/605.1.15",1440,900,1291,708,"main",2008777,147,21,19,"HM","relative_first","relative","Moderate","Harder than Reference","D","k","safeDeck","riskyDeck",14,0,7,"left",0,1,39,"present","safeDeck",1007,3534,-1
"gvpkhg5l5",1426.44480519481,585.956474858801,13366,"21/03/2022@13:06:43","Mozilla/5.0 (Macintosh; Intel Mac OS X 10_15_7) AppleWebKit/605.1.15 (KHTML, like Gecko) Version/15.3 Safari/605.1.15",1440,900,1291,708,"main",2008777,148,21,19,"EE","relative_first","relative","Extreme","Easier than Reference","D","j","safeDeck","riskyDeck",0,-14,-7,"left",0,0,25,"present","safeDeck",808,1433,-1
"gvpkhg5l5",1426.44480519481,585.956474858801,13366,"21/03/2022@13:06:43","Mozilla/5.0 (Macintosh; Intel Mac OS X 10_15_7) AppleWebKit/605.1.15 (KHTML, like Gecko) Version/15.3 Safari/605.1.15",1440,900,1291,708,"main",2008777,149,21,19,"EE","relative_first","relative","Extreme","Easier than Reference","D","k","riskyDeck","safeDeck",-14,0,-7,"left",1,0,18,"absent","riskyDeck",889,2030,-1
"gvpkhg5l5",1426.44480519481,585.956474858801,13366,"21/03/2022@13:06:43","Mozilla/5.0 (Macintosh; Intel Mac OS X 10_15_7) AppleWebKit/605.1.15 (KHTML, like Gecko) Version/15.3 Safari/605.1.15",1440,900,1291,708,"main",2008777,150,21,19,"HM","relative_first","relative","Moderate","Harder than Reference","D","k","safeDeck","riskyDeck",0,14,7,"left",0,1,39,"present","safeDeck",888,2431,-1
"gvpkhg5l5",1426.44480519481,585.956474858801,13366,"21/03/2022@13:06:43","Mozilla/5.0 (Macintosh; Intel Mac OS X 10_15_7) AppleWebKit/605.1.15 (KHTML, like Gecko) Version/15.3 Safari/605.1.15",1440,900,1291,708,"main",2008777,151,21,19,"EM","relative_first","relative","Moderate","Easier than Reference","D","j","safeDeck","riskyDeck",-28,0,-14,"left",0,0,18,"present","safeDeck",520,762,-1
"gvpkhg5l5",1426.44480519481,585.956474858801,13366,"21/03/2022@13:06:43","Mozilla/5.0 (Macintosh; Intel Mac OS X 10_15_7) AppleWebKit/605.1.15 (KHTML, like Gecko) Version/15.3 Safari/605.1.15",1440,900,1291,708,"main",2008777,152,21,20,"HE","relative_first","relative","Extreme","Harder than Reference","D","k","safeDeck","riskyDeck",28,0,14,"left",0,0,46,"absent","safeDeck",1512,4144,-1
"gvpkhg5l5",1426.44480519481,585.956474858801,13366,"21/03/2022@13:06:43","Mozilla/5.0 (Macintosh; Intel Mac OS X 10_15_7) AppleWebKit/605.1.15 (KHTML, like Gecko) Version/15.3 Safari/605.1.15",1440,900,1291,708,"main",2008777,153,21,20,"HM","relative_first","relative","Moderate","Harder than Reference","F","k","riskyDeck","safeDeck",14,0,7,"right",0,0,39,"absent","safeDeck",1036,2826,1
"gvpkhg5l5",1426.44480519481,585.956474858801,13366,"21/03/2022@13:06:43","Mozilla/5.0 (Macintosh; Intel Mac OS X 10_15_7) AppleWebKit/605.1.15 (KHTML, like Gecko) Version/15.3 Safari/605.1.15",1440,900,1291,708,"main",2008777,154,21,20,"EE","relative_first","relative","Extreme","Easier than Reference","F","k","riskyDeck","safeDeck",0,-14,-7,"right",0,0,25,"absent","safeDeck",945,1880,1
"gvpkhg5l5",1426.44480519481,585.956474858801,13366,"21/03/2022@13:06:43","Mozilla/5.0 (Macintosh; Intel Mac OS X 10_15_7) AppleWebKit/605.1.15 (KHTML, like Gecko) Version/15.3 Safari/605.1.15",1440,900,1291,708,"main",2008777,155,21,20,"EM","relative_first","relative","Moderate","Easier than Reference","F","j","riskyDeck","safeDeck",0,-28,-14,"right",0,0,18,"present","safeDeck",1147,1485,1
"gvpkhg5l5",1426.44480519481,585.956474858801,13366,"21/03/2022@13:06:43","Mozilla/5.0 (Macintosh; Intel Mac OS X 10_15_7) AppleWebKit/605.1.15 (KHTML, like Gecko) Version/15.3 Safari/605.1.15",1440,900,1291,708,"main",2008777,158,22,20,"EM","relative_first","relative","Moderate","Easier than Reference","F","j","riskyDeck","safeDeck",0,-28,-14,"right",0,0,18,"present","safeDeck",1420,2360,1
"gvpkhg5l5",1426.44480519481,585.956474858801,13366,"21/03/2022@13:06:43","Mozilla/5.0 (Macintosh; Intel Mac OS X 10_15_7) AppleWebKit/605.1.15 (KHTML, like Gecko) Version/15.3 Safari/605.1.15",1440,900,1291,708,"main",2008777,159,22,20,"EE","relative_first","relative","Extreme","Easier than Reference","D","j","safeDeck","riskyDeck",0,-14,-7,"left",0,0,25,"present","safeDeck",1932,1675,-1
"gvpkhg5l5",1426.44480519481,585.956474858801,13366,"21/03/2022@13:06:43","Mozilla/5.0 (Macintosh; Intel Mac OS X 10_15_7) AppleWebKit/605.1.15 (KHTML, like Gecko) Version/15.3 Safari/605.1.15",1440,900,1291,708,"main",2008777,161,22,20,"EE","relative_first","relative","Extreme","Easier than Reference","D","j","safeDeck","riskyDeck",-14,0,-7,"left",0,0,25,"present","safeDeck",2404,2308,-1
"gvpkhg5l5",1426.44480519481,585.956474858801,13366,"21/03/2022@13:06:43","Mozilla/5.0 (Macintosh; Intel Mac OS X 10_15_7) AppleWebKit/605.1.15 (KHTML, like Gecko) Version/15.3 Safari/605.1.15",1440,900,1291,708,"main",2008777,162,22,21,"HM","relative_first","relative","Moderate","Harder than Reference","F","k","riskyDeck","safeDeck",14,0,7,"right",0,0,39,"absent","safeDeck",1547,3595,1
"gvpkhg5l5",1426.44480519481,585.956474858801,13366,"21/03/2022@13:06:43","Mozilla/5.0 (Macintosh; Intel Mac OS X 10_15_7) AppleWebKit/605.1.15 (KHTML, like Gecko) Version/15.3 Safari/605.1.15",1440,900,1291,708,"main",2008777,163,22,21,"HE","relative_first","relative","Extreme","Harder than Reference","F","k","safeDeck","riskyDeck",0,28,14,"right",1,0,32,"absent","riskyDeck",1874,3897,1
"gvpkhg5l5",1426.44480519481,585.956474858801,13366,"21/03/2022@13:06:43","Mozilla/5.0 (Macintosh; Intel Mac OS X 10_15_7) AppleWebKit/605.1.15 (KHTML, like Gecko) Version/15.3 Safari/605.1.15",1440,900,1291,708,"main",2008777,164,22,21,"EM","relative_first","relative","Moderate","Easier than Reference","D","j","riskyDeck","safeDeck",-28,0,-14,"left",1,0,4,"present","riskyDeck",2097,874,-1
"gvpkhg5l5",1426.44480519481,585.956474858801,13366,"21/03/2022@13:06:43","Mozilla/5.0 (Macintosh; Intel Mac OS X 10_15_7) AppleWebKit/605.1.15 (KHTML, like Gecko) Version/15.3 Safari/605.1.15",1440,900,1291,708,"main",2008777,166,23,21,"EM","relative_first","relative","Moderate","Easier than Reference","D","k","riskyDeck","safeDeck",-28,0,-14,"left",1,0,4,"absent","riskyDeck",1515,1882,-1
"gvpkhg5l5",1426.44480519481,585.956474858801,13366,"21/03/2022@13:06:43","Mozilla/5.0 (Macintosh; Intel Mac OS X 10_15_7) AppleWebKit/605.1.15 (KHTML, like Gecko) Version/15.3 Safari/605.1.15",1440,900,1291,708,"main",2008777,168,23,21,"EE","relative_first","relative","Extreme","Easier than Reference","F","j","safeDeck","riskyDeck",0,-14,-7,"right",1,0,18,"present","riskyDeck",1820,1118,1
"gvpkhg5l5",1426.44480519481,585.956474858801,13366,"21/03/2022@13:06:43","Mozilla/5.0 (Macintosh; Intel Mac OS X 10_15_7) AppleWebKit/605.1.15 (KHTML, like Gecko) Version/15.3 Safari/605.1.15",1440,900,1291,708,"main",2008777,169,23,21,"EE","relative_first","relative","Extreme","Easier than Reference","D","k","riskyDeck","safeDeck",0,-14,-7,"left",1,0,18,"absent","riskyDeck",2436,2247,-1
"gvpkhg5l5",1426.44480519481,585.956474858801,13366,"21/03/2022@13:06:43","Mozilla/5.0 (Macintosh; Intel Mac OS X 10_15_7) AppleWebKit/605.1.15 (KHTML, like Gecko) Version/15.3 Safari/605.1.15",1440,900,1291,708,"main",2008777,170,23,21,"EM","relative_first","relative","Moderate","Easier than Reference","F","j","safeDeck","riskyDeck",0,-28,-14,"right",1,0,4,"present","riskyDeck",1479,854,1
"gvpkhg5l5",1426.44480519481,585.956474858801,13366,"21/03/2022@13:06:43","Mozilla/5.0 (Macintosh; Intel Mac OS X 10_15_7) AppleWebKit/605.1.15 (KHTML, like Gecko) Version/15.3 Safari/605.1.15",1440,900,1291,708,"main",2008777,171,23,21,"HM","relative_first","relative","Moderate","Harder than Reference","D","j","safeDeck","riskyDeck",0,14,7,"left",0,0,39,"present","safeDeck",1497,2121,-1
"gvpkhg5l5",1426.44480519481,585.956474858801,13366,"21/03/2022@13:06:43","Mozilla/5.0 (Macintosh; Intel Mac OS X 10_15_7) AppleWebKit/605.1.15 (KHTML, like Gecko) Version/15.3 Safari/605.1.15",1440,900,1291,708,"main",2008777,172,23,22,"HE","relative_first","relative","Extreme","Harder than Reference","F","k","safeDeck","riskyDeck",0,28,14,"right",1,0,32,"absent","riskyDeck",1342,2397,1
"gvpkhg5l5",1426.44480519481,585.956474858801,13366,"21/03/2022@13:06:43","Mozilla/5.0 (Macintosh; Intel Mac OS X 10_15_7) AppleWebKit/605.1.15 (KHTML, like Gecko) Version/15.3 Safari/605.1.15",1440,900,1291,708,"main",2008777,173,23,22,"EE","relative_first","relative","Extreme","Easier than Reference","F","j","safeDeck","riskyDeck",0,-14,-7,"right",1,0,18,"present","riskyDeck",2269,944,1
"gvpkhg5l5",1426.44480519481,585.956474858801,13366,"21/03/2022@13:06:43","Mozilla/5.0 (Macintosh; Intel Mac OS X 10_15_7) AppleWebKit/605.1.15 (KHTML, like Gecko) Version/15.3 Safari/605.1.15",1440,900,1291,708,"main",2008777,174,23,22,"HM","relative_first","relative","Moderate","Harder than Reference","F","k","safeDeck","riskyDeck",0,14,7,"right",1,0,32,"absent","riskyDeck",1772,1978,1
"gvpkhg5l5",1426.44480519481,585.956474858801,13366,"21/03/2022@13:06:43","Mozilla/5.0 (Macintosh; Intel Mac OS X 10_15_7) AppleWebKit/605.1.15 (KHTML, like Gecko) Version/15.3 Safari/605.1.15",1440,900,1291,708,"main",2008777,175,23,22,"HE","relative_first","relative","Extreme","Harder than Reference","D","k","riskyDeck","safeDeck",28,0,14,"left",1,0,32,"absent","riskyDeck",1409,4267,-1
"gvpkhg5l5",1426.44480519481,585.956474858801,13366,"21/03/2022@13:06:43","Mozilla/5.0 (Macintosh; Intel Mac OS X 10_15_7) AppleWebKit/605.1.15 (KHTML, like Gecko) Version/15.3 Safari/605.1.15",1440,900,1291,708,"main",2008777,176,24,22,"EM","relative_first","relative","Moderate","Easier than Reference","F","j","riskyDeck","safeDeck",-28,0,-14,"right",0,0,18,"present","safeDeck",2136,2786,1
"gvpkhg5l5",1426.44480519481,585.956474858801,13366,"21/03/2022@13:06:43","Mozilla/5.0 (Macintosh; Intel Mac OS X 10_15_7) AppleWebKit/605.1.15 (KHTML, like Gecko) Version/15.3 Safari/605.1.15",1440,900,1291,708,"main",2008777,177,24,22,"HM","relative_first","relative","Moderate","Harder than Reference","F","k","safeDeck","riskyDeck",14,0,7,"right",1,0,46,"absent","riskyDeck",2022,2383,1
"gvpkhg5l5",1426.44480519481,585.956474858801,13366,"21/03/2022@13:06:43","Mozilla/5.0 (Macintosh; Intel Mac OS X 10_15_7) AppleWebKit/605.1.15 (KHTML, like Gecko) Version/15.3 Safari/605.1.15",1440,900,1291,708,"main",2008777,178,24,22,"EE","relative_first","relative","Extreme","Easier than Reference","D","j","riskyDeck","safeDeck",0,-14,-7,"left",1,0,32,"present","riskyDeck",1718,1287,-1
"gvpkhg5l5",1426.44480519481,585.956474858801,13366,"21/03/2022@13:06:43","Mozilla/5.0 (Macintosh; Intel Mac OS X 10_15_7) AppleWebKit/605.1.15 (KHTML, like Gecko) Version/15.3 Safari/605.1.15",1440,900,1291,708,"main",2008777,179,24,22,"EM","relative_first","relative","Moderate","Easier than Reference","D","j","riskyDeck","safeDeck",-28,0,-14,"left",1,0,4,"present","riskyDeck",1388,1275,-1
"gvpkhg5l5",1426.44480519481,585.956474858801,13366,"21/03/2022@13:06:43","Mozilla/5.0 (Macintosh; Intel Mac OS X 10_15_7) AppleWebKit/605.1.15 (KHTML, like Gecko) Version/15.3 Safari/605.1.15",1440,900,1291,708,"main",2008777,180,24,22,"HE","relative_first","relative","Extreme","Harder than Reference","D","j","riskyDeck","safeDeck",28,0,14,"left",1,0,60,"present","riskyDeck",1196,2488,-1
"gvpkhg5l5",1426.44480519481,585.956474858801,13366,"21/03/2022@13:06:43","Mozilla/5.0 (Macintosh; Intel Mac OS X 10_15_7) AppleWebKit/605.1.15 (KHTML, like Gecko) Version/15.3 Safari/605.1.15",1440,900,1291,708,"main",2008777,181,24,22,"HM","relative_first","relative","Moderate","Harder than Reference","D","k","riskyDeck","safeDeck",0,14,7,"left",1,0,32,"absent","riskyDeck",1525,3560,-1
"gvpkhg5l5",1426.44480519481,585.956474858801,13366,"21/03/2022@13:06:43","Mozilla/5.0 (Macintosh; Intel Mac OS X 10_15_7) AppleWebKit/605.1.15 (KHTML, like Gecko) Version/15.3 Safari/605.1.15",1440,900,1291,708,"main",2008777,182,24,22,"EE","relative_first","relative","Extreme","Easier than Reference","D","k","riskyDeck","safeDeck",0,-14,-7,"left",1,1,32,"present","riskyDeck",1476,2584,-1
"gvpkhg5l5",1426.44480519481,585.956474858801,13366,"21/03/2022@13:06:43","Mozilla/5.0 (Macintosh; Intel Mac OS X 10_15_7) AppleWebKit/605.1.15 (KHTML, like Gecko) Version/15.3 Safari/605.1.15",1440,900,1291,708,"main",2008777,183,24,23,"HE","relative_first","relative","Extreme","Harder than Reference","F","k","riskyDeck","safeDeck",28,0,14,"right",0,0,46,"absent","safeDeck",1216,3068,1
"gvpkhg5l5",1426.44480519481,585.956474858801,13366,"21/03/2022@13:06:43","Mozilla/5.0 (Macintosh; Intel Mac OS X 10_15_7) AppleWebKit/605.1.15 (KHTML, like Gecko) Version/15.3 Safari/605.1.15",1440,900,1291,708,"main",2008777,184,24,23,"EM","relative_first","relative","Moderate","Easier than Reference","F","j","safeDeck","riskyDeck",-28,0,-14,"right",1,0,4,"present","riskyDeck",1401,1363,1
"gvpkhg5l5",1426.44480519481,585.956474858801,13366,"21/03/2022@13:06:43","Mozilla/5.0 (Macintosh; Intel Mac OS X 10_15_7) AppleWebKit/605.1.15 (KHTML, like Gecko) Version/15.3 Safari/605.1.15",1440,900,1291,708,"main",2008777,185,24,23,"HM","relative_first","relative","Moderate","Harder than Reference","F","k","safeDeck","riskyDeck",0,14,7,"right",1,0,32,"absent","riskyDeck",2533,1841,1
"gvpkhg5l5",1426.44480519481,585.956474858801,13366,"21/03/2022@13:06:43","Mozilla/5.0 (Macintosh; Intel Mac OS X 10_15_7) AppleWebKit/605.1.15 (KHTML, like Gecko) Version/15.3 Safari/605.1.15",1440,900,1291,708,"main",2008777,186,24,23,"HE","relative_first","relative","Extreme","Harder than Reference","F","k","safeDeck","riskyDeck",28,0,14,"right",1,1,32,"present","riskyDeck",1297,1592,1
"gvpkhg5l5",1426.44480519481,585.956474858801,13366,"21/03/2022@13:06:43","Mozilla/5.0 (Macintosh; Intel Mac OS X 10_15_7) AppleWebKit/605.1.15 (KHTML, like Gecko) Version/15.3 Safari/605.1.15",1440,900,1291,708,"main",2008777,187,25,23,"EE","relative_first","relative","Extreme","Easier than Reference","F","j","safeDeck","riskyDeck",0,-14,-7,"right",1,0,18,"present","riskyDeck",1053,1466,1
"gvpkhg5l5",1426.44480519481,585.956474858801,13366,"21/03/2022@13:06:43","Mozilla/5.0 (Macintosh; Intel Mac OS X 10_15_7) AppleWebKit/605.1.15 (KHTML, like Gecko) Version/15.3 Safari/605.1.15",1440,900,1291,708,"main",2008777,188,25,23,"EM","relative_first","relative","Moderate","Easier than Reference","D","j","riskyDeck","safeDeck",-28,0,-14,"left",1,0,32,"present","riskyDeck",780,1630,-1
"gvpkhg5l5",1426.44480519481,585.956474858801,13366,"21/03/2022@13:06:43","Mozilla/5.0 (Macintosh; Intel Mac OS X 10_15_7) AppleWebKit/605.1.15 (KHTML, like Gecko) Version/15.3 Safari/605.1.15",1440,900,1291,708,"main",2008777,189,25,23,"HM","relative_first","relative","Moderate","Harder than Reference","F","k","safeDeck","riskyDeck",14,0,7,"right",1,0,32,"absent","riskyDeck",1212,1919,1
"gvpkhg5l5",1426.44480519481,585.956474858801,13366,"21/03/2022@13:06:43","Mozilla/5.0 (Macintosh; Intel Mac OS X 10_15_7) AppleWebKit/605.1.15 (KHTML, like Gecko) Version/15.3 Safari/605.1.15",1440,900,1291,708,"main",2008777,190,25,23,"EM","relative_first","relative","Moderate","Easier than Reference","F","k","safeDeck","riskyDeck",0,-28,-14,"right",1,0,4,"absent","riskyDeck",689,819,1
"gvpkhg5l5",1426.44480519481,585.956474858801,13366,"21/03/2022@13:06:43","Mozilla/5.0 (Macintosh; Intel Mac OS X 10_15_7) AppleWebKit/605.1.15 (KHTML, like Gecko) Version/15.3 Safari/605.1.15",1440,900,1291,708,"main",2008777,191,25,23,"HE","relative_first","relative","Extreme","Harder than Reference","D","k","riskyDeck","safeDeck",28,0,14,"left",1,0,60,"absent","riskyDeck",986,2636,-1
"gvpkhg5l5",1426.44480519481,585.956474858801,13366,"21/03/2022@13:06:43","Mozilla/5.0 (Macintosh; Intel Mac OS X 10_15_7) AppleWebKit/605.1.15 (KHTML, like Gecko) Version/15.3 Safari/605.1.15",1440,900,1291,708,"main",2008777,192,25,23,"EE","relative_first","relative","Extreme","Easier than Reference","F","k","safeDeck","riskyDeck",-14,0,-7,"right",1,0,18,"absent","riskyDeck",1360,1627,1
"gvpkhg5l5",1426.44480519481,585.956474858801,13366,"21/03/2022@13:06:43","Mozilla/5.0 (Macintosh; Intel Mac OS X 10_15_7) AppleWebKit/605.1.15 (KHTML, like Gecko) Version/15.3 Safari/605.1.15",1440,900,1291,708,"main",2008777,193,25,23,"EM","relative_first","relative","Moderate","Easier than Reference","F","j","safeDeck","riskyDeck",0,-28,-14,"right",1,0,32,"present","riskyDeck",1268,1273,1
"gvpkhg5l5",1426.44480519481,585.956474858801,13366,"21/03/2022@13:06:43","Mozilla/5.0 (Macintosh; Intel Mac OS X 10_15_7) AppleWebKit/605.1.15 (KHTML, like Gecko) Version/15.3 Safari/605.1.15",1440,900,1291,708,"main",2008777,194,25,23,"HM","relative_first","relative","Moderate","Harder than Reference","F","k","riskyDeck","safeDeck",0,14,7,"right",0,0,39,"absent","safeDeck",1376,2901,1
"gvpkhg5l5",1426.44480519481,585.956474858801,13366,"21/03/2022@13:06:43","Mozilla/5.0 (Macintosh; Intel Mac OS X 10_15_7) AppleWebKit/605.1.15 (KHTML, like Gecko) Version/15.3 Safari/605.1.15",1440,900,1291,708,"main",2008777,195,25,24,"HE","relative_first","relative","Extreme","Harder than Reference","F","j","riskyDeck","safeDeck",0,28,14,"right",0,0,46,"present","safeDeck",1484,1760,1
"gvpkhg5l5",1426.44480519481,585.956474858801,13366,"21/03/2022@13:06:43","Mozilla/5.0 (Macintosh; Intel Mac OS X 10_15_7) AppleWebKit/605.1.15 (KHTML, like Gecko) Version/15.3 Safari/605.1.15",1440,900,1291,708,"main",2008777,197,25,24,"HE","relative_first","relative","Extreme","Harder than Reference","D","j","safeDeck","riskyDeck",28,0,14,"left",0,0,46,"present","safeDeck",1244,2826,-1
"gvpkhg5l5",1426.44480519481,585.956474858801,13366,"21/03/2022@13:06:43","Mozilla/5.0 (Macintosh; Intel Mac OS X 10_15_7) AppleWebKit/605.1.15 (KHTML, like Gecko) Version/15.3 Safari/605.1.15",1440,900,1291,708,"main",2008777,199,26,24,"HM","relative_first","relative","Moderate","Harder than Reference","D","k","safeDeck","riskyDeck",0,14,7,"left",0,0,39,"absent","safeDeck",1527,2638,-1
"gvpkhg5l5",1426.44480519481,585.956474858801,13366,"21/03/2022@13:06:43","Mozilla/5.0 (Macintosh; Intel Mac OS X 10_15_7) AppleWebKit/605.1.15 (KHTML, like Gecko) Version/15.3 Safari/605.1.15",1440,900,1291,708,"main",2008777,200,26,24,"EE","relative_first","relative","Extreme","Easier than Reference","D","j","safeDeck","riskyDeck",0,-14,-7,"left",0,0,25,"present","safeDeck",2524,815,-1
"gvpkhg5l5",1426.44480519481,585.956474858801,13366,"21/03/2022@13:06:43","Mozilla/5.0 (Macintosh; Intel Mac OS X 10_15_7) AppleWebKit/605.1.15 (KHTML, like Gecko) Version/15.3 Safari/605.1.15",1440,900,1291,708,"main",2008777,201,26,24,"EM","relative_first","relative","Moderate","Easier than Reference","F","k","safeDeck","riskyDeck",-28,0,-14,"right",1,1,32,"present","riskyDeck",1292,3060,1
"gvpkhg5l5",1426.44480519481,585.956474858801,13366,"21/03/2022@13:06:43","Mozilla/5.0 (Macintosh; Intel Mac OS X 10_15_7) AppleWebKit/605.1.15 (KHTML, like Gecko) Version/15.3 Safari/605.1.15",1440,900,1291,708,"main",2008777,202,26,24,"EE","relative_first","relative","Extreme","Easier than Reference","F","j","riskyDeck","safeDeck",-14,0,-7,"right",0,0,25,"present","safeDeck",1668,1390,1
"gvpkhg5l5",1426.44480519481,585.956474858801,13366,"21/03/2022@13:06:43","Mozilla/5.0 (Macintosh; Intel Mac OS X 10_15_7) AppleWebKit/605.1.15 (KHTML, like Gecko) Version/15.3 Safari/605.1.15",1440,900,1291,708,"main",2008777,203,26,24,"HE","relative_first","relative","Extreme","Harder than Reference","D","k","safeDeck","riskyDeck",0,28,14,"left",0,1,46,"present","safeDeck",1542,2933,-1
"gvpkhg5l5",1426.44480519481,585.956474858801,13366,"21/03/2022@13:06:43","Mozilla/5.0 (Macintosh; Intel Mac OS X 10_15_7) AppleWebKit/605.1.15 (KHTML, like Gecko) Version/15.3 Safari/605.1.15",1440,900,1291,708,"main",2008777,204,26,24,"HM","relative_first","relative","Moderate","Harder than Reference","F","j","riskyDeck","safeDeck",0,14,7,"right",0,0,39,"present","safeDeck",2230,2212,1
"gvpkhg5l5",1426.44480519481,585.956474858801,13366,"21/03/2022@13:06:43","Mozilla/5.0 (Macintosh; Intel Mac OS X 10_15_7) AppleWebKit/605.1.15 (KHTML, like Gecko) Version/15.3 Safari/605.1.15",1440,900,1291,708,"main",2008777,205,26,25,"EM","relative_first","relative","Moderate","Easier than Reference","D","k","riskyDeck","safeDeck",-28,0,-14,"left",1,0,4,"absent","riskyDeck",1286,759,-1
"gvpkhg5l5",1426.44480519481,585.956474858801,13366,"21/03/2022@13:06:43","Mozilla/5.0 (Macintosh; Intel Mac OS X 10_15_7) AppleWebKit/605.1.15 (KHTML, like Gecko) Version/15.3 Safari/605.1.15",1440,900,1291,708,"main",2008777,206,26,25,"HE","relative_first","relative","Extreme","Harder than Reference","D","k","safeDeck","riskyDeck",0,28,14,"left",0,0,46,"absent","safeDeck",1251,3519,-1
"gvpkhg5l5",1426.44480519481,585.956474858801,13366,"21/03/2022@13:06:43","Mozilla/5.0 (Macintosh; Intel Mac OS X 10_15_7) AppleWebKit/605.1.15 (KHTML, like Gecko) Version/15.3 Safari/605.1.15",1440,900,1291,708,"main",2008777,207,26,25,"HM","relative_first","relative","Moderate","Harder than Reference","D","k","safeDeck","riskyDeck",0,14,7,"left",0,1,39,"present","safeDeck",1448,4858,-1
"gvpkhg5l5",1426.44480519481,585.956474858801,13366,"21/03/2022@13:06:43","Mozilla/5.0 (Macintosh; Intel Mac OS X 10_15_7) AppleWebKit/605.1.15 (KHTML, like Gecko) Version/15.3 Safari/605.1.15",1440,900,1291,708,"main",2008777,208,26,25,"EE","relative_first","relative","Extreme","Easier than Reference","F","j","safeDeck","riskyDeck",0,-14,-7,"right",1,0,32,"present","riskyDeck",1789,892,1
"gvpkhg5l5",1426.44480519481,585.956474858801,13366,"21/03/2022@13:06:43","Mozilla/5.0 (Macintosh; Intel Mac OS X 10_15_7) AppleWebKit/605.1.15 (KHTML, like Gecko) Version/15.3 Safari/605.1.15",1440,900,1291,708,"main",2008777,209,27,25,"HE","relative_first","relative","Extreme","Harder than Reference","D","k","safeDeck","riskyDeck",0,28,14,"left",0,0,46,"absent","safeDeck",1035,1981,-1
"gvpkhg5l5",1426.44480519481,585.956474858801,13366,"21/03/2022@13:06:43","Mozilla/5.0 (Macintosh; Intel Mac OS X 10_15_7) AppleWebKit/605.1.15 (KHTML, like Gecko) Version/15.3 Safari/605.1.15",1440,900,1291,708,"main",2008777,210,27,25,"EE","relative_first","relative","Extreme","Easier than Reference","D","j","safeDeck","riskyDeck",-14,0,-7,"left",0,0,25,"present","safeDeck",1242,2223,-1
"gvpkhg5l5",1426.44480519481,585.956474858801,13366,"21/03/2022@13:06:43","Mozilla/5.0 (Macintosh; Intel Mac OS X 10_15_7) AppleWebKit/605.1.15 (KHTML, like Gecko) Version/15.3 Safari/605.1.15",1440,900,1291,708,"main",2008777,211,27,25,"HM","relative_first","relative","Moderate","Harder than Reference","D","k","safeDeck","riskyDeck",14,0,7,"left",0,0,39,"absent","safeDeck",1551,4313,-1
"gvpkhg5l5",1426.44480519481,585.956474858801,13366,"21/03/2022@13:06:43","Mozilla/5.0 (Macintosh; Intel Mac OS X 10_15_7) AppleWebKit/605.1.15 (KHTML, like Gecko) Version/15.3 Safari/605.1.15",1440,900,1291,708,"main",2008777,212,27,25,"EM","relative_first","relative","Moderate","Easier than Reference","F","j","safeDeck","riskyDeck",-28,0,-14,"right",1,0,4,"present","riskyDeck",1234,606,1
"gvpkhg5l5",1426.44480519481,585.956474858801,13366,"21/03/2022@13:06:43","Mozilla/5.0 (Macintosh; Intel Mac OS X 10_15_7) AppleWebKit/605.1.15 (KHTML, like Gecko) Version/15.3 Safari/605.1.15",1440,900,1291,708,"main",2008777,213,27,25,"EM","relative_first","relative","Moderate","Easier than Reference","F","j","safeDeck","riskyDeck",-28,0,-14,"right",1,0,4,"present","riskyDeck",1035,952,1
"gvpkhg5l5",1426.44480519481,585.956474858801,13366,"21/03/2022@13:06:43","Mozilla/5.0 (Macintosh; Intel Mac OS X 10_15_7) AppleWebKit/605.1.15 (KHTML, like Gecko) Version/15.3 Safari/605.1.15",1440,900,1291,708,"main",2008777,214,27,25,"HM","relative_first","relative","Moderate","Harder than Reference","F","k","riskyDeck","safeDeck",0,14,7,"right",0,0,39,"absent","safeDeck",1327,3443,1
"gvpkhg5l5",1426.44480519481,585.956474858801,13366,"21/03/2022@13:06:43","Mozilla/5.0 (Macintosh; Intel Mac OS X 10_15_7) AppleWebKit/605.1.15 (KHTML, like Gecko) Version/15.3 Safari/605.1.15",1440,900,1291,708,"main",2008777,215,27,25,"HE","relative_first","relative","Extreme","Harder than Reference","D","j","safeDeck","riskyDeck",0,28,14,"left",0,0,46,"present","safeDeck",2058,1857,-1
"gvpkhg5l5",1426.44480519481,585.956474858801,13366,"21/03/2022@13:06:43","Mozilla/5.0 (Macintosh; Intel Mac OS X 10_15_7) AppleWebKit/605.1.15 (KHTML, like Gecko) Version/15.3 Safari/605.1.15",1440,900,1291,708,"main",2008777,216,27,26,"EE","relative_first","relative","Extreme","Easier than Reference","F","k","safeDeck","riskyDeck",-14,0,-7,"right",1,0,18,"absent","riskyDeck",1762,1864,1
"gvpkhg5l5",1426.44480519481,585.956474858801,13366,"21/03/2022@13:06:43","Mozilla/5.0 (Macintosh; Intel Mac OS X 10_15_7) AppleWebKit/605.1.15 (KHTML, like Gecko) Version/15.3 Safari/605.1.15",1440,900,1291,708,"main",2008777,217,27,26,"EM","relative_first","relative","Moderate","Easier than Reference","D","j","riskyDeck","safeDeck",0,-28,-14,"left",1,0,32,"present","riskyDeck",1654,763,-1
"gvpkhg5l5",1426.44480519481,585.956474858801,13366,"21/03/2022@13:06:43","Mozilla/5.0 (Macintosh; Intel Mac OS X 10_15_7) AppleWebKit/605.1.15 (KHTML, like Gecko) Version/15.3 Safari/605.1.15",1440,900,1291,708,"main",2008777,218,27,26,"HM","relative_first","relative","Moderate","Harder than Reference","D","k","riskyDeck","safeDeck",0,14,7,"left",1,0,46,"absent","riskyDeck",1480,4017,-1
"gvpkhg5l5",1426.44480519481,585.956474858801,13366,"21/03/2022@13:06:43","Mozilla/5.0 (Macintosh; Intel Mac OS X 10_15_7) AppleWebKit/605.1.15 (KHTML, like Gecko) Version/15.3 Safari/605.1.15",1440,900,1291,708,"main",2008777,219,27,26,"HE","relative_first","relative","Extreme","Harder than Reference","D","k","safeDeck","riskyDeck",0,28,14,"left",0,0,46,"absent","safeDeck",1253,3659,-1
"gvpkhg5l5",1426.44480519481,585.956474858801,13366,"21/03/2022@13:06:43","Mozilla/5.0 (Macintosh; Intel Mac OS X 10_15_7) AppleWebKit/605.1.15 (KHTML, like Gecko) Version/15.3 Safari/605.1.15",1440,900,1291,708,"main",2008777,220,28,26,"EE","relative_first","relative","Extreme","Easier than Reference","F","j","riskyDeck","safeDeck",-14,0,-7,"right",0,0,25,"present","safeDeck",1174,1072,1
"gvpkhg5l5",1426.44480519481,585.956474858801,13366,"21/03/2022@13:06:43","Mozilla/5.0 (Macintosh; Intel Mac OS X 10_15_7) AppleWebKit/605.1.15 (KHTML, like Gecko) Version/15.3 Safari/605.1.15",1440,900,1291,708,"main",2008777,221,28,26,"HM","relative_first","relative","Moderate","Harder than Reference","D","j","safeDeck","riskyDeck",0,14,7,"left",0,0,39,"present","safeDeck",1792,1072,-1
"gvpkhg5l5",1426.44480519481,585.956474858801,13366,"21/03/2022@13:06:43","Mozilla/5.0 (Macintosh; Intel Mac OS X 10_15_7) AppleWebKit/605.1.15 (KHTML, like Gecko) Version/15.3 Safari/605.1.15",1440,900,1291,708,"main",2008777,222,28,26,"HE","relative_first","relative","Extreme","Harder than Reference","D","j","safeDeck","riskyDeck",28,0,14,"left",0,0,46,"present","safeDeck",1650,1712,-1
"gvpkhg5l5",1426.44480519481,585.956474858801,13366,"21/03/2022@13:06:43","Mozilla/5.0 (Macintosh; Intel Mac OS X 10_15_7) AppleWebKit/605.1.15 (KHTML, like Gecko) Version/15.3 Safari/605.1.15",1440,900,1291,708,"main",2008777,223,28,26,"EM","relative_first","relative","Moderate","Easier than Reference","D","k","safeDeck","riskyDeck",0,-28,-14,"left",0,0,18,"absent","safeDeck",664,1617,-1
"gvpkhg5l5",1426.44480519481,585.956474858801,13366,"21/03/2022@13:06:43","Mozilla/5.0 (Macintosh; Intel Mac OS X 10_15_7) AppleWebKit/605.1.15 (KHTML, like Gecko) Version/15.3 Safari/605.1.15",1440,900,1291,708,"main",2008777,224,28,26,"EE","relative_first","relative","Extreme","Easier than Reference","F","j","riskyDeck","safeDeck",0,-14,-7,"right",0,0,25,"present","safeDeck",977,1194,1
"gvpkhg5l5",1426.44480519481,585.956474858801,13366,"21/03/2022@13:06:43","Mozilla/5.0 (Macintosh; Intel Mac OS X 10_15_7) AppleWebKit/605.1.15 (KHTML, like Gecko) Version/15.3 Safari/605.1.15",1440,900,1291,708,"main",2008777,225,28,26,"EE","relative_first","relative","Extreme","Easier than Reference","F","k","riskyDeck","safeDeck",0,-14,-7,"right",0,0,25,"absent","safeDeck",1231,1744,1
"gvpkhg5l5",1426.44480519481,585.956474858801,13366,"21/03/2022@13:06:43","Mozilla/5.0 (Macintosh; Intel Mac OS X 10_15_7) AppleWebKit/605.1.15 (KHTML, like Gecko) Version/15.3 Safari/605.1.15",1440,900,1291,708,"main",2008777,226,28,26,"HM","relative_first","relative","Moderate","Harder than Reference","D","k","riskyDeck","safeDeck",0,14,7,"left",1,0,32,"absent","riskyDeck",1277,3844,-1
"gvpkhg5l5",1426.44480519481,585.956474858801,13366,"21/03/2022@13:06:43","Mozilla/5.0 (Macintosh; Intel Mac OS X 10_15_7) AppleWebKit/605.1.15 (KHTML, like Gecko) Version/15.3 Safari/605.1.15",1440,900,1291,708,"main",2008777,227,28,26,"HE","relative_first","relative","Extreme","Harder than Reference","D","k","safeDeck","riskyDeck",28,0,14,"left",0,1,46,"present","safeDeck",1373,2869,-1
"gvpkhg5l5",1426.44480519481,585.956474858801,13366,"21/03/2022@13:06:43","Mozilla/5.0 (Macintosh; Intel Mac OS X 10_15_7) AppleWebKit/605.1.15 (KHTML, like Gecko) Version/15.3 Safari/605.1.15",1440,900,1291,708,"main",2008777,228,28,27,"EM","relative_first","relative","Moderate","Easier than Reference","D","k","riskyDeck","safeDeck",0,-28,-14,"left",1,0,4,"absent","riskyDeck",1207,687,-1
"gvpkhg5l5",1426.44480519481,585.956474858801,13366,"21/03/2022@13:06:43","Mozilla/5.0 (Macintosh; Intel Mac OS X 10_15_7) AppleWebKit/605.1.15 (KHTML, like Gecko) Version/15.3 Safari/605.1.15",1440,900,1291,708,"main",2008777,229,28,27,"EE","relative_first","relative","Extreme","Easier than Reference","F","k","safeDeck","riskyDeck",0,-14,-7,"right",1,1,18,"present","riskyDeck",1385,2440,1
"gvpkhg5l5",1426.44480519481,585.956474858801,13366,"21/03/2022@13:06:43","Mozilla/5.0 (Macintosh; Intel Mac OS X 10_15_7) AppleWebKit/605.1.15 (KHTML, like Gecko) Version/15.3 Safari/605.1.15",1440,900,1291,708,"main",2008777,230,28,27,"HE","relative_first","relative","Extreme","Harder than Reference","D","k","riskyDeck","safeDeck",28,0,14,"left",1,1,60,"present","riskyDeck",1014,3404,-1
"gvpkhg5l5",1426.44480519481,585.956474858801,13366,"21/03/2022@13:06:43","Mozilla/5.0 (Macintosh; Intel Mac OS X 10_15_7) AppleWebKit/605.1.15 (KHTML, like Gecko) Version/15.3 Safari/605.1.15",1440,900,1291,708,"main",2008777,231,29,27,"HM","relative_first","relative","Moderate","Harder than Reference","F","j","riskyDeck","safeDeck",14,0,7,"right",0,0,39,"present","safeDeck",842,1941,1
"gvpkhg5l5",1426.44480519481,585.956474858801,13366,"21/03/2022@13:06:43","Mozilla/5.0 (Macintosh; Intel Mac OS X 10_15_7) AppleWebKit/605.1.15 (KHTML, like Gecko) Version/15.3 Safari/605.1.15",1440,900,1291,708,"main",2008777,232,29,27,"EM","relative_first","relative","Moderate","Easier than Reference","D","k","riskyDeck","safeDeck",0,-28,-14,"left",1,0,4,"absent","riskyDeck",781,523,-1
"gvpkhg5l5",1426.44480519481,585.956474858801,13366,"21/03/2022@13:06:43","Mozilla/5.0 (Macintosh; Intel Mac OS X 10_15_7) AppleWebKit/605.1.15 (KHTML, like Gecko) Version/15.3 Safari/605.1.15",1440,900,1291,708,"main",2008777,233,29,27,"HM","relative_first","relative","Moderate","Harder than Reference","F","j","riskyDeck","safeDeck",14,0,7,"right",0,0,39,"present","safeDeck",1254,1367,1
"gvpkhg5l5",1426.44480519481,585.956474858801,13366,"21/03/2022@13:06:43","Mozilla/5.0 (Macintosh; Intel Mac OS X 10_15_7) AppleWebKit/605.1.15 (KHTML, like Gecko) Version/15.3 Safari/605.1.15",1440,900,1291,708,"main",2008777,234,29,27,"HE","relative_first","relative","Extreme","Harder than Reference","F","j","riskyDeck","safeDeck",28,0,14,"right",0,0,46,"present","safeDeck",799,2402,1
"gvpkhg5l5",1426.44480519481,585.956474858801,13366,"21/03/2022@13:06:43","Mozilla/5.0 (Macintosh; Intel Mac OS X 10_15_7) AppleWebKit/605.1.15 (KHTML, like Gecko) Version/15.3 Safari/605.1.15",1440,900,1291,708,"main",2008777,235,29,27,"EM","relative_first","relative","Moderate","Easier than Reference","D","k","riskyDeck","safeDeck",0,-28,-14,"left",1,0,32,"absent","riskyDeck",782,3444,-1
"gvpkhg5l5",1426.44480519481,585.956474858801,13366,"21/03/2022@13:06:43","Mozilla/5.0 (Macintosh; Intel Mac OS X 10_15_7) AppleWebKit/605.1.15 (KHTML, like Gecko) Version/15.3 Safari/605.1.15",1440,900,1291,708,"main",2008777,236,29,27,"EE","relative_first","relative","Extreme","Easier than Reference","D","j","safeDeck","riskyDeck",-14,0,-7,"left",0,0,25,"present","safeDeck",1151,1771,-1
"gvpkhg5l5",1426.44480519481,585.956474858801,13366,"21/03/2022@13:06:43","Mozilla/5.0 (Macintosh; Intel Mac OS X 10_15_7) AppleWebKit/605.1.15 (KHTML, like Gecko) Version/15.3 Safari/605.1.15",1440,900,1291,708,"main",2008777,237,29,27,"HE","relative_first","relative","Extreme","Harder than Reference","D","j","safeDeck","riskyDeck",28,0,14,"left",0,0,46,"present","safeDeck",1005,5782,-1
"gvpkhg5l5",1426.44480519481,585.956474858801,13366,"21/03/2022@13:06:43","Mozilla/5.0 (Macintosh; Intel Mac OS X 10_15_7) AppleWebKit/605.1.15 (KHTML, like Gecko) Version/15.3 Safari/605.1.15",1440,900,1291,708,"main",2008777,238,29,28,"HM","relative_first","relative","Moderate","Harder than Reference","F","k","safeDeck","riskyDeck",0,14,7,"right",1,0,32,"absent","riskyDeck",1674,1905,1
"gvpkhg5l5",1426.44480519481,585.956474858801,13366,"21/03/2022@13:06:43","Mozilla/5.0 (Macintosh; Intel Mac OS X 10_15_7) AppleWebKit/605.1.15 (KHTML, like Gecko) Version/15.3 Safari/605.1.15",1440,900,1291,708,"main",2008777,239,29,28,"EM","relative_first","relative","Moderate","Easier than Reference","F","k","safeDeck","riskyDeck",-28,0,-14,"right",1,0,4,"absent","riskyDeck",1312,864,1
"gvpkhg5l5",1426.44480519481,585.956474858801,13366,"21/03/2022@13:06:43","Mozilla/5.0 (Macintosh; Intel Mac OS X 10_15_7) AppleWebKit/605.1.15 (KHTML, like Gecko) Version/15.3 Safari/605.1.15",1440,900,1291,708,"main",2008777,240,29,28,"EE","relative_first","relative","Extreme","Easier than Reference","F","j","riskyDeck","safeDeck",-14,0,-7,"right",0,0,25,"present","safeDeck",1192,1532,1
"gvpkhg5l5",1426.44480519481,585.956474858801,13366,"21/03/2022@13:06:43","Mozilla/5.0 (Macintosh; Intel Mac OS X 10_15_7) AppleWebKit/605.1.15 (KHTML, like Gecko) Version/15.3 Safari/605.1.15",1440,900,1291,708,"main",2008777,241,29,28,"EM","relative_first","relative","Moderate","Easier than Reference","D","k","riskyDeck","safeDeck",0,-28,-14,"left",1,0,4,"absent","riskyDeck",1318,705,-1
"gvpkhg5l5",1426.44480519481,585.956474858801,13366,"21/03/2022@13:06:43","Mozilla/5.0 (Macintosh; Intel Mac OS X 10_15_7) AppleWebKit/605.1.15 (KHTML, like Gecko) Version/15.3 Safari/605.1.15",1440,900,1291,708,"main",2008777,242,29,28,"HE","relative_first","relative","Extreme","Harder than Reference","D","k","safeDeck","riskyDeck",0,28,14,"left",0,0,46,"absent","safeDeck",1268,3394,-1
"gvpkhg5l5",1426.44480519481,585.956474858801,13366,"21/03/2022@13:06:43","Mozilla/5.0 (Macintosh; Intel Mac OS X 10_15_7) AppleWebKit/605.1.15 (KHTML, like Gecko) Version/15.3 Safari/605.1.15",1440,900,1291,708,"main",2008777,243,30,28,"EE","relative_first","relative","Extreme","Easier than Reference","D","j","safeDeck","riskyDeck",0,-14,-7,"left",0,0,25,"present","safeDeck",1111,3418,-1
"gvpkhg5l5",1426.44480519481,585.956474858801,13366,"21/03/2022@13:06:43","Mozilla/5.0 (Macintosh; Intel Mac OS X 10_15_7) AppleWebKit/605.1.15 (KHTML, like Gecko) Version/15.3 Safari/605.1.15",1440,900,1291,708,"main",2008777,244,30,28,"HM","relative_first","relative","Moderate","Harder than Reference","D","k","safeDeck","riskyDeck",0,14,7,"left",0,0,39,"absent","safeDeck",1246,3190,-1
"gvpkhg5l5",1426.44480519481,585.956474858801,13366,"21/03/2022@13:06:43","Mozilla/5.0 (Macintosh; Intel Mac OS X 10_15_7) AppleWebKit/605.1.15 (KHTML, like Gecko) Version/15.3 Safari/605.1.15",1440,900,1291,708,"main",2008777,245,30,28,"EE","relative_first","relative","Extreme","Easier than Reference","D","k","safeDeck","riskyDeck",-14,0,-7,"left",0,1,25,"present","safeDeck",785,1944,-1
"gvpkhg5l5",1426.44480519481,585.956474858801,13366,"21/03/2022@13:06:43","Mozilla/5.0 (Macintosh; Intel Mac OS X 10_15_7) AppleWebKit/605.1.15 (KHTML, like Gecko) Version/15.3 Safari/605.1.15",1440,900,1291,708,"main",2008777,246,30,28,"HE","relative_first","relative","Extreme","Harder than Reference","D","k","safeDeck","riskyDeck",28,0,14,"left",0,0,46,"absent","safeDeck",913,2890,-1
"gvpkhg5l5",1426.44480519481,585.956474858801,13366,"21/03/2022@13:06:43","Mozilla/5.0 (Macintosh; Intel Mac OS X 10_15_7) AppleWebKit/605.1.15 (KHTML, like Gecko) Version/15.3 Safari/605.1.15",1440,900,1291,708,"main",2008777,247,30,28,"EM","relative_first","relative","Moderate","Easier than Reference","D","j","riskyDeck","safeDeck",-28,0,-14,"left",1,0,4,"present","riskyDeck",943,682,-1
"gvpkhg5l5",1426.44480519481,585.956474858801,13366,"21/03/2022@13:06:43","Mozilla/5.0 (Macintosh; Intel Mac OS X 10_15_7) AppleWebKit/605.1.15 (KHTML, like Gecko) Version/15.3 Safari/605.1.15",1440,900,1291,708,"main",2008777,248,30,28,"HM","relative_first","relative","Moderate","Harder than Reference","D","j","safeDeck","riskyDeck",14,0,7,"left",0,0,39,"present","safeDeck",1278,2707,-1
"gvpkhg5l5",1426.44480519481,585.956474858801,13366,"21/03/2022@13:06:43","Mozilla/5.0 (Macintosh; Intel Mac OS X 10_15_7) AppleWebKit/605.1.15 (KHTML, like Gecko) Version/15.3 Safari/605.1.15",1440,900,1291,708,"main",2008777,249,30,28,"HM","relative_first","relative","Moderate","Harder than Reference","D","k","riskyDeck","safeDeck",0,14,7,"left",1,1,46,"present","riskyDeck",1081,3006,-1
"gvpkhg5l5",1426.44480519481,585.956474858801,13366,"21/03/2022@13:06:43","Mozilla/5.0 (Macintosh; Intel Mac OS X 10_15_7) AppleWebKit/605.1.15 (KHTML, like Gecko) Version/15.3 Safari/605.1.15",1440,900,1291,708,"main",2008777,250,30,29,"EM","relative_first","relative","Moderate","Easier than Reference","F","j","safeDeck","riskyDeck",-28,0,-14,"right",1,0,4,"present","riskyDeck",1000,678,1
"gvpkhg5l5",1426.44480519481,585.956474858801,13366,"21/03/2022@13:06:43","Mozilla/5.0 (Macintosh; Intel Mac OS X 10_15_7) AppleWebKit/605.1.15 (KHTML, like Gecko) Version/15.3 Safari/605.1.15",1440,900,1291,708,"main",2008777,251,30,29,"HE","relative_first","relative","Extreme","Harder than Reference","D","k","safeDeck","riskyDeck",28,0,14,"left",0,1,46,"present","safeDeck",1317,2999,-1
"gvpkhg5l5",1426.44480519481,585.956474858801,13366,"21/03/2022@13:06:43","Mozilla/5.0 (Macintosh; Intel Mac OS X 10_15_7) AppleWebKit/605.1.15 (KHTML, like Gecko) Version/15.3 Safari/605.1.15",1440,900,1291,708,"main",2008777,252,30,29,"EE","relative_first","relative","Extreme","Easier than Reference","F","k","safeDeck","riskyDeck",0,-14,-7,"right",1,0,32,"absent","riskyDeck",1492,2329,1
"gvpkhg5l5",1426.44480519481,585.956474858801,13366,"21/03/2022@13:06:43","Mozilla/5.0 (Macintosh; Intel Mac OS X 10_15_7) AppleWebKit/605.1.15 (KHTML, like Gecko) Version/15.3 Safari/605.1.15",1440,900,1291,708,"main",2008777,253,30,29,"HE","relative_first","relative","Extreme","Harder than Reference","F","k","riskyDeck","safeDeck",28,0,14,"right",0,0,46,"absent","safeDeck",1498,2113,1
"gvpkhg5l5",1426.44480519481,585.956474858801,13366,"21/03/2022@13:06:43","Mozilla/5.0 (Macintosh; Intel Mac OS X 10_15_7) AppleWebKit/605.1.15 (KHTML, like Gecko) Version/15.3 Safari/605.1.15",1440,900,1291,708,"main",2008777,254,31,29,"EM","relative_first","relative","Moderate","Easier than Reference","F","j","safeDeck","riskyDeck",-28,0,-14,"right",1,0,32,"present","riskyDeck",956,5592,1
"gvpkhg5l5",1426.44480519481,585.956474858801,13366,"21/03/2022@13:06:43","Mozilla/5.0 (Macintosh; Intel Mac OS X 10_15_7) AppleWebKit/605.1.15 (KHTML, like Gecko) Version/15.3 Safari/605.1.15",1440,900,1291,708,"main",2008777,255,31,29,"HM","relative_first","relative","Moderate","Harder than Reference","D","j","safeDeck","riskyDeck",0,14,7,"left",0,0,39,"present","safeDeck",1404,1461,-1
"gvpkhg5l5",1426.44480519481,585.956474858801,13366,"21/03/2022@13:06:43","Mozilla/5.0 (Macintosh; Intel Mac OS X 10_15_7) AppleWebKit/605.1.15 (KHTML, like Gecko) Version/15.3 Safari/605.1.15",1440,900,1291,708,"main",2008777,256,31,29,"EE","relative_first","relative","Extreme","Easier than Reference","D","k","safeDeck","riskyDeck",0,-14,-7,"left",0,0,25,"absent","safeDeck",1282,1923,-1
"gvpkhg5l5",1426.44480519481,585.956474858801,13366,"21/03/2022@13:06:43","Mozilla/5.0 (Macintosh; Intel Mac OS X 10_15_7) AppleWebKit/605.1.15 (KHTML, like Gecko) Version/15.3 Safari/605.1.15",1440,900,1291,708,"main",2008777,257,31,29,"HM","relative_first","relative","Moderate","Harder than Reference","D","k","riskyDeck","safeDeck",14,0,7,"left",1,1,32,"present","riskyDeck",1410,2498,-1
"gvpkhg5l5",1426.44480519481,585.956474858801,13366,"21/03/2022@13:06:43","Mozilla/5.0 (Macintosh; Intel Mac OS X 10_15_7) AppleWebKit/605.1.15 (KHTML, like Gecko) Version/15.3 Safari/605.1.15",1440,900,1291,708,"main",2008777,258,31,29,"EM","relative_first","relative","Moderate","Easier than Reference","F","k","safeDeck","riskyDeck",0,-28,-14,"right",1,0,32,"absent","riskyDeck",1029,1807,1
"gvpkhg5l5",1426.44480519481,585.956474858801,13366,"21/03/2022@13:06:43","Mozilla/5.0 (Macintosh; Intel Mac OS X 10_15_7) AppleWebKit/605.1.15 (KHTML, like Gecko) Version/15.3 Safari/605.1.15",1440,900,1291,708,"main",2008777,259,31,29,"HE","relative_first","relative","Extreme","Harder than Reference","D","k","riskyDeck","safeDeck",28,0,14,"left",1,0,60,"absent","riskyDeck",838,3935,-1
"gvpkhg5l5",1426.44480519481,585.956474858801,13366,"21/03/2022@13:06:43","Mozilla/5.0 (Macintosh; Intel Mac OS X 10_15_7) AppleWebKit/605.1.15 (KHTML, like Gecko) Version/15.3 Safari/605.1.15",1440,900,1291,708,"main",2008777,260,31,29,"EE","relative_first","relative","Extreme","Easier than Reference","D","j","safeDeck","riskyDeck",-14,0,-7,"left",0,0,25,"present","safeDeck",1379,1656,-1
"gvpkhg5l5",1426.44480519481,585.956474858801,13366,"21/03/2022@13:06:43","Mozilla/5.0 (Macintosh; Intel Mac OS X 10_15_7) AppleWebKit/605.1.15 (KHTML, like Gecko) Version/15.3 Safari/605.1.15",1440,900,1291,708,"main",2008777,262,31,30,"HM","relative_first","relative","Moderate","Harder than Reference","F","j","riskyDeck","safeDeck",0,14,7,"right",0,1,39,"absent","safeDeck",2296,1681,1
"gvpkhg5l5",1426.44480519481,585.956474858801,13366,"21/03/2022@13:06:43","Mozilla/5.0 (Macintosh; Intel Mac OS X 10_15_7) AppleWebKit/605.1.15 (KHTML, like Gecko) Version/15.3 Safari/605.1.15",1440,900,1291,708,"main",2008777,263,32,30,"EE","relative_first","relative","Extreme","Easier than Reference","F","k","riskyDeck","safeDeck",-14,0,-7,"right",0,0,25,"absent","safeDeck",1522,1908,1
"gvpkhg5l5",1426.44480519481,585.956474858801,13366,"21/03/2022@13:06:43","Mozilla/5.0 (Macintosh; Intel Mac OS X 10_15_7) AppleWebKit/605.1.15 (KHTML, like Gecko) Version/15.3 Safari/605.1.15",1440,900,1291,708,"main",2008777,264,32,30,"EM","relative_first","relative","Moderate","Easier than Reference","F","j","safeDeck","riskyDeck",-28,0,-14,"right",1,0,32,"present","riskyDeck",979,2634,1
"gvpkhg5l5",1426.44480519481,585.956474858801,13366,"21/03/2022@13:06:43","Mozilla/5.0 (Macintosh; Intel Mac OS X 10_15_7) AppleWebKit/605.1.15 (KHTML, like Gecko) Version/15.3 Safari/605.1.15",1440,900,1291,708,"main",2008777,265,32,30,"EM","relative_first","relative","Moderate","Easier than Reference","D","k","riskyDeck","safeDeck",0,-28,-14,"left",1,0,32,"absent","riskyDeck",1200,1600,-1
"gvpkhg5l5",1426.44480519481,585.956474858801,13366,"21/03/2022@13:06:43","Mozilla/5.0 (Macintosh; Intel Mac OS X 10_15_7) AppleWebKit/605.1.15 (KHTML, like Gecko) Version/15.3 Safari/605.1.15",1440,900,1291,708,"main",2008777,266,32,30,"HM","relative_first","relative","Moderate","Harder than Reference","F","k","safeDeck","riskyDeck",0,14,7,"right",1,0,32,"absent","riskyDeck",1071,1881,1
"gvpkhg5l5",1426.44480519481,585.956474858801,13366,"21/03/2022@13:06:43","Mozilla/5.0 (Macintosh; Intel Mac OS X 10_15_7) AppleWebKit/605.1.15 (KHTML, like Gecko) Version/15.3 Safari/605.1.15",1440,900,1291,708,"main",2008777,267,32,30,"HE","relative_first","relative","Extreme","Harder than Reference","D","k","safeDeck","riskyDeck",28,0,14,"left",0,0,46,"absent","safeDeck",930,2291,-1
"gvpkhg5l5",1426.44480519481,585.956474858801,13366,"21/03/2022@13:06:43","Mozilla/5.0 (Macintosh; Intel Mac OS X 10_15_7) AppleWebKit/605.1.15 (KHTML, like Gecko) Version/15.3 Safari/605.1.15",1440,900,1291,708,"main",2008777,268,32,30,"EE","relative_first","relative","Extreme","Easier than Reference","D","k","safeDeck","riskyDeck",0,-14,-7,"left",0,0,25,"absent","safeDeck",926,2797,-1
