"subject","choice_rt_m","choice_rt_sd","sona_id","curTime","userAgent","screenWidth","screenHeight","windowWidth","windowHeight","phase","phase_run_time","trial","exp_runtime_mins","phase_runtime_mins","condition","counterbalance_condition","current_counterbalance_condition","magnitude","direction","choice_response_key","search_response_key","left_deck_id","right_deck_id","risky_deck_outcome_top","risky_deck_outcome_bottom","safe_deck_outcome","selected_deck_location","selectedRiskyDeck","error","n_stimuli","present_or_absent","chosenDeckId","choice_rt","search_rt","selected_deck_location_num","ssd"
"0d478aphxuc7",702.393939393939,365.345379489732,13475,"25/03/2022@13:00:53","Mozilla/5.0 (Macintosh; Intel Mac OS X 10_15_7) AppleWebKit/605.1.15 (KHTML, like Gecko) Version/15.3 Safari/605.1.15",1440,900,1439,721,"main",1490452,7,5,4,"EE","relative_first","relative","Extreme","Easier than Reference","D","k","riskyDeck","safeDeck",0,-14,-7,"left",1,0,18,"absent","riskyDeck",1300,2077,-1,0
"0d478aphxuc7",702.393939393939,365.345379489732,13475,"25/03/2022@13:00:53","Mozilla/5.0 (Macintosh; Intel Mac OS X 10_15_7) AppleWebKit/605.1.15 (KHTML, like Gecko) Version/15.3 Safari/605.1.15",1440,900,1439,721,"main",1490452,11,6,4,"EE","relative_first","relative","Extreme","Easier than Reference","F","j","safeDeck","riskyDeck",0,-14,-7,"right",1,0,32,"present","riskyDeck",1108,1422,1,0
"0d478aphxuc7",702.393939393939,365.345379489732,13475,"25/03/2022@13:00:53","Mozilla/5.0 (Macintosh; Intel Mac OS X 10_15_7) AppleWebKit/605.1.15 (KHTML, like Gecko) Version/15.3 Safari/605.1.15",1440,900,1439,721,"main",1490452,13,6,4,"EM","relative_first","relative","Moderate","Easier than Reference","D","k","riskyDeck","safeDeck",0,-28,-14,"left",1,0,4,"absent","riskyDeck",771,1079,-1,0
"0d478aphxuc7",702.393939393939,365.345379489732,13475,"25/03/2022@13:00:53","Mozilla/5.0 (Macintosh; Intel Mac OS X 10_15_7) AppleWebKit/605.1.15 (KHTML, like Gecko) Version/15.3 Safari/605.1.15",1440,900,1439,721,"main",1490452,14,6,4,"EE","relative_first","relative","Extreme","Easier than Reference","D","j","safeDeck","riskyDeck",0,-14,-7,"left",0,0,25,"present","safeDeck",1281,1666,-1,1
"0d478aphxuc7",702.393939393939,365.345379489732,13475,"25/03/2022@13:00:53","Mozilla/5.0 (Macintosh; Intel Mac OS X 10_15_7) AppleWebKit/605.1.15 (KHTML, like Gecko) Version/15.3 Safari/605.1.15",1440,900,1439,721,"main",1490452,15,6,4,"HE","relative_first","relative","Extreme","Harder than Reference","D","k","safeDeck","riskyDeck",28,0,14,"left",0,0,46,"absent","safeDeck",1384,3031,-1,1
"0d478aphxuc7",702.393939393939,365.345379489732,13475,"25/03/2022@13:00:53","Mozilla/5.0 (Macintosh; Intel Mac OS X 10_15_7) AppleWebKit/605.1.15 (KHTML, like Gecko) Version/15.3 Safari/605.1.15",1440,900,1439,721,"main",1490452,16,6,4,"HM","relative_first","relative","Moderate","Harder than Reference","F","j","riskyDeck","safeDeck",14,0,7,"right",0,1,39,"absent","safeDeck",1122,4662,1,1
"0d478aphxuc7",702.393939393939,365.345379489732,13475,"25/03/2022@13:00:53","Mozilla/5.0 (Macintosh; Intel Mac OS X 10_15_7) AppleWebKit/605.1.15 (KHTML, like Gecko) Version/15.3 Safari/605.1.15",1440,900,1439,721,"main",1490452,17,6,5,"EE","relative_first","relative","Extreme","Easier than Reference","F","k","riskyDeck","safeDeck",0,-14,-7,"right",0,0,25,"absent","safeDeck",1036,4064,1,1
"0d478aphxuc7",702.393939393939,365.345379489732,13475,"25/03/2022@13:00:53","Mozilla/5.0 (Macintosh; Intel Mac OS X 10_15_7) AppleWebKit/605.1.15 (KHTML, like Gecko) Version/15.3 Safari/605.1.15",1440,900,1439,721,"main",1490452,18,6,5,"HE","relative_first","relative","Extreme","Harder than Reference","D","j","safeDeck","riskyDeck",28,0,14,"left",0,0,46,"present","safeDeck",852,1836,-1,1
"0d478aphxuc7",702.393939393939,365.345379489732,13475,"25/03/2022@13:00:53","Mozilla/5.0 (Macintosh; Intel Mac OS X 10_15_7) AppleWebKit/605.1.15 (KHTML, like Gecko) Version/15.3 Safari/605.1.15",1440,900,1439,721,"main",1490452,19,6,5,"HM","relative_first","relative","Moderate","Harder than Reference","D","j","safeDeck","riskyDeck",14,0,7,"left",0,0,39,"present","safeDeck",1183,4089,-1,1
"0d478aphxuc7",702.393939393939,365.345379489732,13475,"25/03/2022@13:00:53","Mozilla/5.0 (Macintosh; Intel Mac OS X 10_15_7) AppleWebKit/605.1.15 (KHTML, like Gecko) Version/15.3 Safari/605.1.15",1440,900,1439,721,"main",1490452,21,7,5,"HE","relative_first","relative","Extreme","Harder than Reference","D","k","safeDeck","riskyDeck",28,0,14,"left",0,0,46,"absent","safeDeck",912,6076,-1,1
"0d478aphxuc7",702.393939393939,365.345379489732,13475,"25/03/2022@13:00:53","Mozilla/5.0 (Macintosh; Intel Mac OS X 10_15_7) AppleWebKit/605.1.15 (KHTML, like Gecko) Version/15.3 Safari/605.1.15",1440,900,1439,721,"main",1490452,22,7,5,"EM","relative_first","relative","Moderate","Easier than Reference","D","j","riskyDeck","safeDeck",0,-28,-14,"left",1,0,4,"present","riskyDeck",1153,1080,-1,0
"0d478aphxuc7",702.393939393939,365.345379489732,13475,"25/03/2022@13:00:53","Mozilla/5.0 (Macintosh; Intel Mac OS X 10_15_7) AppleWebKit/605.1.15 (KHTML, like Gecko) Version/15.3 Safari/605.1.15",1440,900,1439,721,"main",1490452,23,7,5,"HM","relative_first","relative","Moderate","Harder than Reference","F","j","safeDeck","riskyDeck",14,0,7,"right",1,0,32,"present","riskyDeck",1084,1430,1,0
"0d478aphxuc7",702.393939393939,365.345379489732,13475,"25/03/2022@13:00:53","Mozilla/5.0 (Macintosh; Intel Mac OS X 10_15_7) AppleWebKit/605.1.15 (KHTML, like Gecko) Version/15.3 Safari/605.1.15",1440,900,1439,721,"main",1490452,24,7,5,"EE","relative_first","relative","Extreme","Easier than Reference","F","k","safeDeck","riskyDeck",-14,0,-7,"right",1,0,32,"absent","riskyDeck",1402,2200,1,0
"0d478aphxuc7",702.393939393939,365.345379489732,13475,"25/03/2022@13:00:53","Mozilla/5.0 (Macintosh; Intel Mac OS X 10_15_7) AppleWebKit/605.1.15 (KHTML, like Gecko) Version/15.3 Safari/605.1.15",1440,900,1439,721,"main",1490452,25,7,5,"HE","relative_first","relative","Extreme","Harder than Reference","F","k","riskyDeck","safeDeck",0,28,14,"right",0,0,46,"absent","safeDeck",1048,3595,1,1
"0d478aphxuc7",702.393939393939,365.345379489732,13475,"25/03/2022@13:00:53","Mozilla/5.0 (Macintosh; Intel Mac OS X 10_15_7) AppleWebKit/605.1.15 (KHTML, like Gecko) Version/15.3 Safari/605.1.15",1440,900,1439,721,"main",1490452,26,7,5,"EE","relative_first","relative","Extreme","Easier than Reference","D","k","riskyDeck","safeDeck",0,-14,-7,"left",1,0,32,"absent","riskyDeck",737,1895,-1,0
"0d478aphxuc7",702.393939393939,365.345379489732,13475,"25/03/2022@13:00:53","Mozilla/5.0 (Macintosh; Intel Mac OS X 10_15_7) AppleWebKit/605.1.15 (KHTML, like Gecko) Version/15.3 Safari/605.1.15",1440,900,1439,721,"main",1490452,27,7,5,"HM","relative_first","relative","Moderate","Harder than Reference","D","k","safeDeck","riskyDeck",14,0,7,"left",0,0,39,"absent","safeDeck",914,2451,-1,1
"0d478aphxuc7",702.393939393939,365.345379489732,13475,"25/03/2022@13:00:53","Mozilla/5.0 (Macintosh; Intel Mac OS X 10_15_7) AppleWebKit/605.1.15 (KHTML, like Gecko) Version/15.3 Safari/605.1.15",1440,900,1439,721,"main",1490452,28,7,6,"EM","relative_first","relative","Moderate","Easier than Reference","F","j","safeDeck","riskyDeck",-28,0,-14,"right",1,0,4,"present","riskyDeck",651,787,1,0
"0d478aphxuc7",702.393939393939,365.345379489732,13475,"25/03/2022@13:00:53","Mozilla/5.0 (Macintosh; Intel Mac OS X 10_15_7) AppleWebKit/605.1.15 (KHTML, like Gecko) Version/15.3 Safari/605.1.15",1440,900,1439,721,"main",1490452,29,7,6,"EE","relative_first","relative","Extreme","Easier than Reference","D","j","safeDeck","riskyDeck",-14,0,-7,"left",0,0,25,"present","safeDeck",822,1176,-1,1
"0d478aphxuc7",702.393939393939,365.345379489732,13475,"25/03/2022@13:00:53","Mozilla/5.0 (Macintosh; Intel Mac OS X 10_15_7) AppleWebKit/605.1.15 (KHTML, like Gecko) Version/15.3 Safari/605.1.15",1440,900,1439,721,"main",1490452,30,7,6,"HM","relative_first","relative","Moderate","Harder than Reference","F","k","riskyDeck","safeDeck",14,0,7,"right",0,0,39,"absent","safeDeck",820,3433,1,1
"0d478aphxuc7",702.393939393939,365.345379489732,13475,"25/03/2022@13:00:53","Mozilla/5.0 (Macintosh; Intel Mac OS X 10_15_7) AppleWebKit/605.1.15 (KHTML, like Gecko) Version/15.3 Safari/605.1.15",1440,900,1439,721,"main",1490452,31,7,6,"HE","relative_first","relative","Extreme","Harder than Reference","D","k","riskyDeck","safeDeck",28,0,14,"left",1,0,32,"absent","riskyDeck",574,1901,-1,0
"0d478aphxuc7",702.393939393939,365.345379489732,13475,"25/03/2022@13:00:53","Mozilla/5.0 (Macintosh; Intel Mac OS X 10_15_7) AppleWebKit/605.1.15 (KHTML, like Gecko) Version/15.3 Safari/605.1.15",1440,900,1439,721,"main",1490452,32,7,6,"EM","relative_first","relative","Moderate","Easier than Reference","F","j","riskyDeck","safeDeck",-28,0,-14,"right",0,0,18,"present","safeDeck",635,976,1,1
"0d478aphxuc7",702.393939393939,365.345379489732,13475,"25/03/2022@13:00:53","Mozilla/5.0 (Macintosh; Intel Mac OS X 10_15_7) AppleWebKit/605.1.15 (KHTML, like Gecko) Version/15.3 Safari/605.1.15",1440,900,1439,721,"main",1490452,33,7,6,"HE","relative_first","relative","Extreme","Harder than Reference","D","j","riskyDeck","safeDeck",0,28,14,"left",1,0,32,"present","riskyDeck",571,2097,-1,0
"0d478aphxuc7",702.393939393939,365.345379489732,13475,"25/03/2022@13:00:53","Mozilla/5.0 (Macintosh; Intel Mac OS X 10_15_7) AppleWebKit/605.1.15 (KHTML, like Gecko) Version/15.3 Safari/605.1.15",1440,900,1439,721,"main",1490452,34,8,6,"HM","relative_first","relative","Moderate","Harder than Reference","F","k","riskyDeck","safeDeck",14,0,7,"right",0,0,39,"absent","safeDeck",484,4087,1,1
"0d478aphxuc7",702.393939393939,365.345379489732,13475,"25/03/2022@13:00:53","Mozilla/5.0 (Macintosh; Intel Mac OS X 10_15_7) AppleWebKit/605.1.15 (KHTML, like Gecko) Version/15.3 Safari/605.1.15",1440,900,1439,721,"main",1490452,35,8,6,"EM","relative_first","relative","Moderate","Easier than Reference","D","k","riskyDeck","safeDeck",-28,0,-14,"left",1,0,32,"absent","riskyDeck",708,1867,-1,0
"0d478aphxuc7",702.393939393939,365.345379489732,13475,"25/03/2022@13:00:53","Mozilla/5.0 (Macintosh; Intel Mac OS X 10_15_7) AppleWebKit/605.1.15 (KHTML, like Gecko) Version/15.3 Safari/605.1.15",1440,900,1439,721,"main",1490452,36,8,6,"EE","relative_first","relative","Extreme","Easier than Reference","D","j","riskyDeck","safeDeck",0,-14,-7,"left",1,0,18,"present","riskyDeck",815,895,-1,0
"0d478aphxuc7",702.393939393939,365.345379489732,13475,"25/03/2022@13:00:53","Mozilla/5.0 (Macintosh; Intel Mac OS X 10_15_7) AppleWebKit/605.1.15 (KHTML, like Gecko) Version/15.3 Safari/605.1.15",1440,900,1439,721,"main",1490452,37,8,6,"HM","relative_first","relative","Moderate","Harder than Reference","D","k","riskyDeck","safeDeck",0,14,7,"left",1,0,46,"absent","riskyDeck",1180,3068,-1,0
"0d478aphxuc7",702.393939393939,365.345379489732,13475,"25/03/2022@13:00:53","Mozilla/5.0 (Macintosh; Intel Mac OS X 10_15_7) AppleWebKit/605.1.15 (KHTML, like Gecko) Version/15.3 Safari/605.1.15",1440,900,1439,721,"main",1490452,38,8,6,"EM","relative_first","relative","Moderate","Easier than Reference","F","k","riskyDeck","safeDeck",-28,0,-14,"right",0,0,18,"absent","safeDeck",378,1539,1,1
"0d478aphxuc7",702.393939393939,365.345379489732,13475,"25/03/2022@13:00:53","Mozilla/5.0 (Macintosh; Intel Mac OS X 10_15_7) AppleWebKit/605.1.15 (KHTML, like Gecko) Version/15.3 Safari/605.1.15",1440,900,1439,721,"main",1490452,39,8,6,"HE","relative_first","relative","Extreme","Harder than Reference","D","k","riskyDeck","safeDeck",28,0,14,"left",1,0,32,"absent","riskyDeck",826,2129,-1,0
"0d478aphxuc7",702.393939393939,365.345379489732,13475,"25/03/2022@13:00:53","Mozilla/5.0 (Macintosh; Intel Mac OS X 10_15_7) AppleWebKit/605.1.15 (KHTML, like Gecko) Version/15.3 Safari/605.1.15",1440,900,1439,721,"main",1490452,40,8,6,"EE","relative_first","relative","Extreme","Easier than Reference","F","j","safeDeck","riskyDeck",-14,0,-7,"right",1,0,18,"present","riskyDeck",647,1193,1,0
"0d478aphxuc7",702.393939393939,365.345379489732,13475,"25/03/2022@13:00:53","Mozilla/5.0 (Macintosh; Intel Mac OS X 10_15_7) AppleWebKit/605.1.15 (KHTML, like Gecko) Version/15.3 Safari/605.1.15",1440,900,1439,721,"main",1490452,41,8,6,"EM","relative_first","relative","Moderate","Easier than Reference","D","j","riskyDeck","safeDeck",0,-28,-14,"left",1,0,4,"present","riskyDeck",498,1224,-1,0
"0d478aphxuc7",702.393939393939,365.345379489732,13475,"25/03/2022@13:00:53","Mozilla/5.0 (Macintosh; Intel Mac OS X 10_15_7) AppleWebKit/605.1.15 (KHTML, like Gecko) Version/15.3 Safari/605.1.15",1440,900,1439,721,"main",1490452,42,8,6,"EE","relative_first","relative","Extreme","Easier than Reference","F","j","safeDeck","riskyDeck",-14,0,-7,"right",1,0,18,"present","riskyDeck",500,1107,1,0
"0d478aphxuc7",702.393939393939,365.345379489732,13475,"25/03/2022@13:00:53","Mozilla/5.0 (Macintosh; Intel Mac OS X 10_15_7) AppleWebKit/605.1.15 (KHTML, like Gecko) Version/15.3 Safari/605.1.15",1440,900,1439,721,"main",1490452,43,8,7,"HM","relative_first","relative","Moderate","Harder than Reference","D","k","riskyDeck","safeDeck",0,14,7,"left",1,1,32,"present","riskyDeck",529,1857,-1,0
"0d478aphxuc7",702.393939393939,365.345379489732,13475,"25/03/2022@13:00:53","Mozilla/5.0 (Macintosh; Intel Mac OS X 10_15_7) AppleWebKit/605.1.15 (KHTML, like Gecko) Version/15.3 Safari/605.1.15",1440,900,1439,721,"main",1490452,44,8,7,"HE","relative_first","relative","Extreme","Harder than Reference","D","k","safeDeck","riskyDeck",28,0,14,"left",0,0,46,"absent","safeDeck",806,2424,-1,1
"0d478aphxuc7",702.393939393939,365.345379489732,13475,"25/03/2022@13:00:53","Mozilla/5.0 (Macintosh; Intel Mac OS X 10_15_7) AppleWebKit/605.1.15 (KHTML, like Gecko) Version/15.3 Safari/605.1.15",1440,900,1439,721,"main",1490452,45,8,7,"HM","relative_first","relative","Moderate","Harder than Reference","F","k","safeDeck","riskyDeck",0,14,7,"right",1,1,32,"present","riskyDeck",770,2722,1,0
"0d478aphxuc7",702.393939393939,365.345379489732,13475,"25/03/2022@13:00:53","Mozilla/5.0 (Macintosh; Intel Mac OS X 10_15_7) AppleWebKit/605.1.15 (KHTML, like Gecko) Version/15.3 Safari/605.1.15",1440,900,1439,721,"main",1490452,46,9,7,"EM","relative_first","relative","Moderate","Easier than Reference","D","k","riskyDeck","safeDeck",-28,0,-14,"left",1,0,32,"absent","riskyDeck",568,1648,-1,0
"0d478aphxuc7",702.393939393939,365.345379489732,13475,"25/03/2022@13:00:53","Mozilla/5.0 (Macintosh; Intel Mac OS X 10_15_7) AppleWebKit/605.1.15 (KHTML, like Gecko) Version/15.3 Safari/605.1.15",1440,900,1439,721,"main",1490452,47,9,7,"HE","relative_first","relative","Extreme","Harder than Reference","F","j","safeDeck","riskyDeck",0,28,14,"right",1,0,60,"present","riskyDeck",710,1045,1,0
"0d478aphxuc7",702.393939393939,365.345379489732,13475,"25/03/2022@13:00:53","Mozilla/5.0 (Macintosh; Intel Mac OS X 10_15_7) AppleWebKit/605.1.15 (KHTML, like Gecko) Version/15.3 Safari/605.1.15",1440,900,1439,721,"main",1490452,48,9,7,"EE","relative_first","relative","Extreme","Easier than Reference","D","k","riskyDeck","safeDeck",-14,0,-7,"left",1,0,18,"absent","riskyDeck",549,1127,-1,0
"0d478aphxuc7",702.393939393939,365.345379489732,13475,"25/03/2022@13:00:53","Mozilla/5.0 (Macintosh; Intel Mac OS X 10_15_7) AppleWebKit/605.1.15 (KHTML, like Gecko) Version/15.3 Safari/605.1.15",1440,900,1439,721,"main",1490452,49,9,7,"HE","relative_first","relative","Extreme","Harder than Reference","F","k","safeDeck","riskyDeck",28,0,14,"right",1,0,60,"absent","riskyDeck",741,1589,1,0
"0d478aphxuc7",702.393939393939,365.345379489732,13475,"25/03/2022@13:00:53","Mozilla/5.0 (Macintosh; Intel Mac OS X 10_15_7) AppleWebKit/605.1.15 (KHTML, like Gecko) Version/15.3 Safari/605.1.15",1440,900,1439,721,"main",1490452,50,9,7,"EE","relative_first","relative","Extreme","Easier than Reference","D","k","safeDeck","riskyDeck",0,-14,-7,"left",0,0,25,"absent","safeDeck",557,1645,-1,1
"0d478aphxuc7",702.393939393939,365.345379489732,13475,"25/03/2022@13:00:53","Mozilla/5.0 (Macintosh; Intel Mac OS X 10_15_7) AppleWebKit/605.1.15 (KHTML, like Gecko) Version/15.3 Safari/605.1.15",1440,900,1439,721,"main",1490452,51,9,7,"HM","relative_first","relative","Moderate","Harder than Reference","F","k","safeDeck","riskyDeck",14,0,7,"right",1,0,32,"absent","riskyDeck",745,1177,1,0
"0d478aphxuc7",702.393939393939,365.345379489732,13475,"25/03/2022@13:00:53","Mozilla/5.0 (Macintosh; Intel Mac OS X 10_15_7) AppleWebKit/605.1.15 (KHTML, like Gecko) Version/15.3 Safari/605.1.15",1440,900,1439,721,"main",1490452,52,9,7,"EM","relative_first","relative","Moderate","Easier than Reference","D","k","safeDeck","riskyDeck",0,-28,-14,"left",0,0,18,"absent","safeDeck",506,1153,-1,1
"0d478aphxuc7",702.393939393939,365.345379489732,13475,"25/03/2022@13:00:53","Mozilla/5.0 (Macintosh; Intel Mac OS X 10_15_7) AppleWebKit/605.1.15 (KHTML, like Gecko) Version/15.3 Safari/605.1.15",1440,900,1439,721,"main",1490452,53,9,7,"EE","relative_first","relative","Extreme","Easier than Reference","F","j","safeDeck","riskyDeck",-14,0,-7,"right",1,0,32,"present","riskyDeck",611,1498,1,0
"0d478aphxuc7",702.393939393939,365.345379489732,13475,"25/03/2022@13:00:53","Mozilla/5.0 (Macintosh; Intel Mac OS X 10_15_7) AppleWebKit/605.1.15 (KHTML, like Gecko) Version/15.3 Safari/605.1.15",1440,900,1439,721,"main",1490452,54,9,7,"EM","relative_first","relative","Moderate","Easier than Reference","D","k","safeDeck","riskyDeck",0,-28,-14,"left",0,0,18,"absent","safeDeck",513,1609,-1,1
"0d478aphxuc7",702.393939393939,365.345379489732,13475,"25/03/2022@13:00:53","Mozilla/5.0 (Macintosh; Intel Mac OS X 10_15_7) AppleWebKit/605.1.15 (KHTML, like Gecko) Version/15.3 Safari/605.1.15",1440,900,1439,721,"main",1490452,55,9,8,"HE","relative_first","relative","Extreme","Harder than Reference","F","k","safeDeck","riskyDeck",28,0,14,"right",1,0,32,"absent","riskyDeck",844,1487,1,0
"0d478aphxuc7",702.393939393939,365.345379489732,13475,"25/03/2022@13:00:53","Mozilla/5.0 (Macintosh; Intel Mac OS X 10_15_7) AppleWebKit/605.1.15 (KHTML, like Gecko) Version/15.3 Safari/605.1.15",1440,900,1439,721,"main",1490452,56,9,8,"HM","relative_first","relative","Moderate","Harder than Reference","F","k","safeDeck","riskyDeck",14,0,7,"right",1,0,32,"absent","riskyDeck",877,1073,1,0
"0d478aphxuc7",702.393939393939,365.345379489732,13475,"25/03/2022@13:00:53","Mozilla/5.0 (Macintosh; Intel Mac OS X 10_15_7) AppleWebKit/605.1.15 (KHTML, like Gecko) Version/15.3 Safari/605.1.15",1440,900,1439,721,"main",1490452,57,9,8,"HM","relative_first","relative","Moderate","Harder than Reference","F","j","safeDeck","riskyDeck",14,0,7,"right",1,0,32,"present","riskyDeck",877,1516,1,0
"0d478aphxuc7",702.393939393939,365.345379489732,13475,"25/03/2022@13:00:53","Mozilla/5.0 (Macintosh; Intel Mac OS X 10_15_7) AppleWebKit/605.1.15 (KHTML, like Gecko) Version/15.3 Safari/605.1.15",1440,900,1439,721,"main",1490452,58,9,8,"EM","relative_first","relative","Moderate","Easier than Reference","D","j","safeDeck","riskyDeck",-28,0,-14,"left",0,0,18,"present","safeDeck",942,1265,-1,1
"0d478aphxuc7",702.393939393939,365.345379489732,13475,"25/03/2022@13:00:53","Mozilla/5.0 (Macintosh; Intel Mac OS X 10_15_7) AppleWebKit/605.1.15 (KHTML, like Gecko) Version/15.3 Safari/605.1.15",1440,900,1439,721,"main",1490452,59,9,8,"EE","relative_first","relative","Extreme","Easier than Reference","F","k","safeDeck","riskyDeck",-14,0,-7,"right",1,0,18,"absent","riskyDeck",739,1156,1,0
"0d478aphxuc7",702.393939393939,365.345379489732,13475,"25/03/2022@13:00:53","Mozilla/5.0 (Macintosh; Intel Mac OS X 10_15_7) AppleWebKit/605.1.15 (KHTML, like Gecko) Version/15.3 Safari/605.1.15",1440,900,1439,721,"main",1490452,60,9,8,"HE","relative_first","relative","Extreme","Harder than Reference","D","k","safeDeck","riskyDeck",0,28,14,"left",0,0,46,"absent","safeDeck",799,1359,-1,1
"0d478aphxuc7",702.393939393939,365.345379489732,13475,"25/03/2022@13:00:53","Mozilla/5.0 (Macintosh; Intel Mac OS X 10_15_7) AppleWebKit/605.1.15 (KHTML, like Gecko) Version/15.3 Safari/605.1.15",1440,900,1439,721,"main",1490452,61,9,8,"EE","relative_first","relative","Extreme","Easier than Reference","F","j","safeDeck","riskyDeck",0,-14,-7,"right",1,0,32,"present","riskyDeck",656,1527,1,0
"0d478aphxuc7",702.393939393939,365.345379489732,13475,"25/03/2022@13:00:53","Mozilla/5.0 (Macintosh; Intel Mac OS X 10_15_7) AppleWebKit/605.1.15 (KHTML, like Gecko) Version/15.3 Safari/605.1.15",1440,900,1439,721,"main",1490452,62,10,8,"EM","relative_first","relative","Moderate","Easier than Reference","F","k","riskyDeck","safeDeck",0,-28,-14,"right",0,0,18,"absent","safeDeck",531,1066,1,1
"0d478aphxuc7",702.393939393939,365.345379489732,13475,"25/03/2022@13:00:53","Mozilla/5.0 (Macintosh; Intel Mac OS X 10_15_7) AppleWebKit/605.1.15 (KHTML, like Gecko) Version/15.3 Safari/605.1.15",1440,900,1439,721,"main",1490452,63,10,8,"HM","relative_first","relative","Moderate","Harder than Reference","D","j","riskyDeck","safeDeck",14,0,7,"left",1,0,46,"present","riskyDeck",1123,1892,-1,0
"0d478aphxuc7",702.393939393939,365.345379489732,13475,"25/03/2022@13:00:53","Mozilla/5.0 (Macintosh; Intel Mac OS X 10_15_7) AppleWebKit/605.1.15 (KHTML, like Gecko) Version/15.3 Safari/605.1.15",1440,900,1439,721,"main",1490452,64,10,8,"HE","relative_first","relative","Extreme","Harder than Reference","F","j","riskyDeck","safeDeck",0,28,14,"right",0,0,46,"present","safeDeck",497,977,1,1
"0d478aphxuc7",702.393939393939,365.345379489732,13475,"25/03/2022@13:00:53","Mozilla/5.0 (Macintosh; Intel Mac OS X 10_15_7) AppleWebKit/605.1.15 (KHTML, like Gecko) Version/15.3 Safari/605.1.15",1440,900,1439,721,"main",1490452,65,10,8,"HE","relative_first","relative","Extreme","Harder than Reference","F","j","safeDeck","riskyDeck",28,0,14,"right",1,0,32,"present","riskyDeck",939,2027,1,0
"0d478aphxuc7",702.393939393939,365.345379489732,13475,"25/03/2022@13:00:53","Mozilla/5.0 (Macintosh; Intel Mac OS X 10_15_7) AppleWebKit/605.1.15 (KHTML, like Gecko) Version/15.3 Safari/605.1.15",1440,900,1439,721,"main",1490452,66,10,8,"EM","relative_first","relative","Moderate","Easier than Reference","F","k","safeDeck","riskyDeck",0,-28,-14,"right",1,0,32,"absent","riskyDeck",561,2376,1,0
"0d478aphxuc7",702.393939393939,365.345379489732,13475,"25/03/2022@13:00:53","Mozilla/5.0 (Macintosh; Intel Mac OS X 10_15_7) AppleWebKit/605.1.15 (KHTML, like Gecko) Version/15.3 Safari/605.1.15",1440,900,1439,721,"main",1490452,67,10,8,"HM","relative_first","relative","Moderate","Harder than Reference","F","j","riskyDeck","safeDeck",0,14,7,"right",0,0,39,"present","safeDeck",464,1371,1,1
"0d478aphxuc7",702.393939393939,365.345379489732,13475,"25/03/2022@13:00:53","Mozilla/5.0 (Macintosh; Intel Mac OS X 10_15_7) AppleWebKit/605.1.15 (KHTML, like Gecko) Version/15.3 Safari/605.1.15",1440,900,1439,721,"main",1490452,68,10,8,"EE","relative_first","relative","Extreme","Easier than Reference","F","k","riskyDeck","safeDeck",0,-14,-7,"right",0,0,25,"absent","safeDeck",677,1748,1,1
"0d478aphxuc7",702.393939393939,365.345379489732,13475,"25/03/2022@13:00:53","Mozilla/5.0 (Macintosh; Intel Mac OS X 10_15_7) AppleWebKit/605.1.15 (KHTML, like Gecko) Version/15.3 Safari/605.1.15",1440,900,1439,721,"main",1490452,69,10,8,"HM","relative_first","relative","Moderate","Harder than Reference","D","k","safeDeck","riskyDeck",0,14,7,"left",0,0,39,"absent","safeDeck",857,1786,-1,1
"0d478aphxuc7",702.393939393939,365.345379489732,13475,"25/03/2022@13:00:53","Mozilla/5.0 (Macintosh; Intel Mac OS X 10_15_7) AppleWebKit/605.1.15 (KHTML, like Gecko) Version/15.3 Safari/605.1.15",1440,900,1439,721,"main",1490452,70,10,8,"HE","relative_first","relative","Extreme","Harder than Reference","F","j","riskyDeck","safeDeck",28,0,14,"right",0,0,46,"present","safeDeck",1041,1598,1,1
"0d478aphxuc7",702.393939393939,365.345379489732,13475,"25/03/2022@13:00:53","Mozilla/5.0 (Macintosh; Intel Mac OS X 10_15_7) AppleWebKit/605.1.15 (KHTML, like Gecko) Version/15.3 Safari/605.1.15",1440,900,1439,721,"main",1490452,71,10,9,"EM","relative_first","relative","Moderate","Easier than Reference","D","j","riskyDeck","safeDeck",0,-28,-14,"left",1,0,4,"present","riskyDeck",831,810,-1,0
"0d478aphxuc7",702.393939393939,365.345379489732,13475,"25/03/2022@13:00:53","Mozilla/5.0 (Macintosh; Intel Mac OS X 10_15_7) AppleWebKit/605.1.15 (KHTML, like Gecko) Version/15.3 Safari/605.1.15",1440,900,1439,721,"main",1490452,72,10,9,"EE","relative_first","relative","Extreme","Easier than Reference","D","k","riskyDeck","safeDeck",0,-14,-7,"left",1,0,32,"absent","riskyDeck",584,2014,-1,0
"0d478aphxuc7",702.393939393939,365.345379489732,13475,"25/03/2022@13:00:53","Mozilla/5.0 (Macintosh; Intel Mac OS X 10_15_7) AppleWebKit/605.1.15 (KHTML, like Gecko) Version/15.3 Safari/605.1.15",1440,900,1439,721,"main",1490452,73,10,9,"HE","relative_first","relative","Extreme","Harder than Reference","D","k","riskyDeck","safeDeck",28,0,14,"left",1,0,60,"absent","riskyDeck",865,3060,-1,0
"0d478aphxuc7",702.393939393939,365.345379489732,13475,"25/03/2022@13:00:53","Mozilla/5.0 (Macintosh; Intel Mac OS X 10_15_7) AppleWebKit/605.1.15 (KHTML, like Gecko) Version/15.3 Safari/605.1.15",1440,900,1439,721,"main",1490452,74,10,9,"EE","relative_first","relative","Extreme","Easier than Reference","F","k","riskyDeck","safeDeck",0,-14,-7,"right",0,0,25,"absent","safeDeck",668,1140,1,1
"0d478aphxuc7",702.393939393939,365.345379489732,13475,"25/03/2022@13:00:53","Mozilla/5.0 (Macintosh; Intel Mac OS X 10_15_7) AppleWebKit/605.1.15 (KHTML, like Gecko) Version/15.3 Safari/605.1.15",1440,900,1439,721,"main",1490452,75,10,9,"EM","relative_first","relative","Moderate","Easier than Reference","F","k","riskyDeck","safeDeck",0,-28,-14,"right",0,0,18,"absent","safeDeck",498,1808,1,1
"0d478aphxuc7",702.393939393939,365.345379489732,13475,"25/03/2022@13:00:53","Mozilla/5.0 (Macintosh; Intel Mac OS X 10_15_7) AppleWebKit/605.1.15 (KHTML, like Gecko) Version/15.3 Safari/605.1.15",1440,900,1439,721,"main",1490452,76,10,9,"HM","relative_first","relative","Moderate","Harder than Reference","F","j","safeDeck","riskyDeck",14,0,7,"right",1,0,32,"present","riskyDeck",664,1005,1,0
"0d478aphxuc7",702.393939393939,365.345379489732,13475,"25/03/2022@13:00:53","Mozilla/5.0 (Macintosh; Intel Mac OS X 10_15_7) AppleWebKit/605.1.15 (KHTML, like Gecko) Version/15.3 Safari/605.1.15",1440,900,1439,721,"main",1490452,77,10,9,"HE","relative_first","relative","Extreme","Harder than Reference","F","j","safeDeck","riskyDeck",0,28,14,"right",1,0,60,"present","riskyDeck",908,1416,1,0
"0d478aphxuc7",702.393939393939,365.345379489732,13475,"25/03/2022@13:00:53","Mozilla/5.0 (Macintosh; Intel Mac OS X 10_15_7) AppleWebKit/605.1.15 (KHTML, like Gecko) Version/15.3 Safari/605.1.15",1440,900,1439,721,"main",1490452,78,11,9,"EE","relative_first","relative","Extreme","Easier than Reference","D","k","riskyDeck","safeDeck",0,-14,-7,"left",1,0,32,"absent","riskyDeck",563,2112,-1,0
"0d478aphxuc7",702.393939393939,365.345379489732,13475,"25/03/2022@13:00:53","Mozilla/5.0 (Macintosh; Intel Mac OS X 10_15_7) AppleWebKit/605.1.15 (KHTML, like Gecko) Version/15.3 Safari/605.1.15",1440,900,1439,721,"main",1490452,79,11,9,"HM","relative_first","relative","Moderate","Harder than Reference","F","j","riskyDeck","safeDeck",0,14,7,"right",0,0,39,"present","safeDeck",497,885,1,1
"0d478aphxuc7",702.393939393939,365.345379489732,13475,"25/03/2022@13:00:53","Mozilla/5.0 (Macintosh; Intel Mac OS X 10_15_7) AppleWebKit/605.1.15 (KHTML, like Gecko) Version/15.3 Safari/605.1.15",1440,900,1439,721,"main",1490452,80,11,9,"EM","relative_first","relative","Moderate","Easier than Reference","D","j","riskyDeck","safeDeck",0,-28,-14,"left",1,0,32,"present","riskyDeck",514,1502,-1,0
"0d478aphxuc7",702.393939393939,365.345379489732,13475,"25/03/2022@13:00:53","Mozilla/5.0 (Macintosh; Intel Mac OS X 10_15_7) AppleWebKit/605.1.15 (KHTML, like Gecko) Version/15.3 Safari/605.1.15",1440,900,1439,721,"main",1490452,81,11,9,"HE","relative_first","relative","Extreme","Harder than Reference","F","j","safeDeck","riskyDeck",0,28,14,"right",1,0,32,"present","riskyDeck",487,1492,1,0
"0d478aphxuc7",702.393939393939,365.345379489732,13475,"25/03/2022@13:00:53","Mozilla/5.0 (Macintosh; Intel Mac OS X 10_15_7) AppleWebKit/605.1.15 (KHTML, like Gecko) Version/15.3 Safari/605.1.15",1440,900,1439,721,"main",1490452,82,11,9,"HM","relative_first","relative","Moderate","Harder than Reference","F","k","riskyDeck","safeDeck",14,0,7,"right",0,0,39,"absent","safeDeck",742,2513,1,1
"0d478aphxuc7",702.393939393939,365.345379489732,13475,"25/03/2022@13:00:53","Mozilla/5.0 (Macintosh; Intel Mac OS X 10_15_7) AppleWebKit/605.1.15 (KHTML, like Gecko) Version/15.3 Safari/605.1.15",1440,900,1439,721,"main",1490452,83,11,9,"EE","relative_first","relative","Extreme","Easier than Reference","F","k","riskyDeck","safeDeck",-14,0,-7,"right",0,0,25,"absent","safeDeck",412,1230,1,1
"0d478aphxuc7",702.393939393939,365.345379489732,13475,"25/03/2022@13:00:53","Mozilla/5.0 (Macintosh; Intel Mac OS X 10_15_7) AppleWebKit/605.1.15 (KHTML, like Gecko) Version/15.3 Safari/605.1.15",1440,900,1439,721,"main",1490452,84,11,9,"EM","relative_first","relative","Moderate","Easier than Reference","F","j","safeDeck","riskyDeck",0,-28,-14,"right",1,0,4,"present","riskyDeck",681,609,1,0
"0d478aphxuc7",702.393939393939,365.345379489732,13475,"25/03/2022@13:00:53","Mozilla/5.0 (Macintosh; Intel Mac OS X 10_15_7) AppleWebKit/605.1.15 (KHTML, like Gecko) Version/15.3 Safari/605.1.15",1440,900,1439,721,"main",1490452,85,11,9,"EM","relative_first","relative","Moderate","Easier than Reference","F","j","riskyDeck","safeDeck",0,-28,-14,"right",0,0,18,"present","safeDeck",457,1576,1,1
"0d478aphxuc7",702.393939393939,365.345379489732,13475,"25/03/2022@13:00:53","Mozilla/5.0 (Macintosh; Intel Mac OS X 10_15_7) AppleWebKit/605.1.15 (KHTML, like Gecko) Version/15.3 Safari/605.1.15",1440,900,1439,721,"main",1490452,86,11,9,"HM","relative_first","relative","Moderate","Harder than Reference","F","j","riskyDeck","safeDeck",0,14,7,"right",0,0,39,"present","safeDeck",667,1006,1,1
"0d478aphxuc7",702.393939393939,365.345379489732,13475,"25/03/2022@13:00:53","Mozilla/5.0 (Macintosh; Intel Mac OS X 10_15_7) AppleWebKit/605.1.15 (KHTML, like Gecko) Version/15.3 Safari/605.1.15",1440,900,1439,721,"main",1490452,87,11,9,"EE","relative_first","relative","Extreme","Easier than Reference","D","k","safeDeck","riskyDeck",-14,0,-7,"left",0,0,25,"absent","safeDeck",580,1119,-1,1
"0d478aphxuc7",702.393939393939,365.345379489732,13475,"25/03/2022@13:00:53","Mozilla/5.0 (Macintosh; Intel Mac OS X 10_15_7) AppleWebKit/605.1.15 (KHTML, like Gecko) Version/15.3 Safari/605.1.15",1440,900,1439,721,"main",1490452,88,11,10,"HE","relative_first","relative","Extreme","Harder than Reference","F","k","safeDeck","riskyDeck",0,28,14,"right",1,0,32,"absent","riskyDeck",1080,3290,1,0
"0d478aphxuc7",702.393939393939,365.345379489732,13475,"25/03/2022@13:00:53","Mozilla/5.0 (Macintosh; Intel Mac OS X 10_15_7) AppleWebKit/605.1.15 (KHTML, like Gecko) Version/15.3 Safari/605.1.15",1440,900,1439,721,"main",1490452,89,11,10,"HM","relative_first","relative","Moderate","Harder than Reference","D","j","safeDeck","riskyDeck",0,14,7,"left",0,0,39,"present","safeDeck",1237,930,-1,1
"0d478aphxuc7",702.393939393939,365.345379489732,13475,"25/03/2022@13:00:53","Mozilla/5.0 (Macintosh; Intel Mac OS X 10_15_7) AppleWebKit/605.1.15 (KHTML, like Gecko) Version/15.3 Safari/605.1.15",1440,900,1439,721,"main",1490452,90,11,10,"HE","relative_first","relative","Extreme","Harder than Reference","D","k","safeDeck","riskyDeck",0,28,14,"left",0,0,46,"absent","safeDeck",944,1820,-1,1
"0d478aphxuc7",702.393939393939,365.345379489732,13475,"25/03/2022@13:00:53","Mozilla/5.0 (Macintosh; Intel Mac OS X 10_15_7) AppleWebKit/605.1.15 (KHTML, like Gecko) Version/15.3 Safari/605.1.15",1440,900,1439,721,"main",1490452,91,11,10,"EE","relative_first","relative","Extreme","Easier than Reference","F","k","riskyDeck","safeDeck",-14,0,-7,"right",0,0,25,"absent","safeDeck",418,1659,1,1
"0d478aphxuc7",702.393939393939,365.345379489732,13475,"25/03/2022@13:00:53","Mozilla/5.0 (Macintosh; Intel Mac OS X 10_15_7) AppleWebKit/605.1.15 (KHTML, like Gecko) Version/15.3 Safari/605.1.15",1440,900,1439,721,"main",1490452,92,11,10,"EM","relative_first","relative","Moderate","Easier than Reference","F","j","safeDeck","riskyDeck",0,-28,-14,"right",1,0,4,"present","riskyDeck",421,709,1,0
"0d478aphxuc7",702.393939393939,365.345379489732,13475,"25/03/2022@13:00:53","Mozilla/5.0 (Macintosh; Intel Mac OS X 10_15_7) AppleWebKit/605.1.15 (KHTML, like Gecko) Version/15.3 Safari/605.1.15",1440,900,1439,721,"main",1490452,93,12,10,"HE","relative_first","relative","Extreme","Harder than Reference","D","k","riskyDeck","safeDeck",28,0,14,"left",1,0,32,"absent","riskyDeck",740,1399,-1,0
"0d478aphxuc7",702.393939393939,365.345379489732,13475,"25/03/2022@13:00:53","Mozilla/5.0 (Macintosh; Intel Mac OS X 10_15_7) AppleWebKit/605.1.15 (KHTML, like Gecko) Version/15.3 Safari/605.1.15",1440,900,1439,721,"main",1490452,94,12,10,"EE","relative_first","relative","Extreme","Easier than Reference","F","j","riskyDeck","safeDeck",0,-14,-7,"right",0,0,25,"present","safeDeck",490,941,1,1
"0d478aphxuc7",702.393939393939,365.345379489732,13475,"25/03/2022@13:00:53","Mozilla/5.0 (Macintosh; Intel Mac OS X 10_15_7) AppleWebKit/605.1.15 (KHTML, like Gecko) Version/15.3 Safari/605.1.15",1440,900,1439,721,"main",1490452,95,12,10,"HM","relative_first","relative","Moderate","Harder than Reference","D","k","safeDeck","riskyDeck",0,14,7,"left",0,1,39,"present","safeDeck",960,1182,-1,1
"0d478aphxuc7",702.393939393939,365.345379489732,13475,"25/03/2022@13:00:53","Mozilla/5.0 (Macintosh; Intel Mac OS X 10_15_7) AppleWebKit/605.1.15 (KHTML, like Gecko) Version/15.3 Safari/605.1.15",1440,900,1439,721,"main",1490452,96,12,10,"EM","relative_first","relative","Moderate","Easier than Reference","F","j","riskyDeck","safeDeck",0,-28,-14,"right",0,0,18,"present","safeDeck",719,649,1,1
"0d478aphxuc7",702.393939393939,365.345379489732,13475,"25/03/2022@13:00:53","Mozilla/5.0 (Macintosh; Intel Mac OS X 10_15_7) AppleWebKit/605.1.15 (KHTML, like Gecko) Version/15.3 Safari/605.1.15",1440,900,1439,721,"main",1490452,97,12,10,"HM","relative_first","relative","Moderate","Harder than Reference","D","k","safeDeck","riskyDeck",0,14,7,"left",0,1,39,"present","safeDeck",769,1501,-1,1
"0d478aphxuc7",702.393939393939,365.345379489732,13475,"25/03/2022@13:00:53","Mozilla/5.0 (Macintosh; Intel Mac OS X 10_15_7) AppleWebKit/605.1.15 (KHTML, like Gecko) Version/15.3 Safari/605.1.15",1440,900,1439,721,"main",1490452,98,12,10,"HE","relative_first","relative","Extreme","Harder than Reference","D","k","riskyDeck","safeDeck",0,28,14,"left",1,1,60,"present","riskyDeck",680,2085,-1,0
"0d478aphxuc7",702.393939393939,365.345379489732,13475,"25/03/2022@13:00:53","Mozilla/5.0 (Macintosh; Intel Mac OS X 10_15_7) AppleWebKit/605.1.15 (KHTML, like Gecko) Version/15.3 Safari/605.1.15",1440,900,1439,721,"main",1490452,99,12,10,"EE","relative_first","relative","Extreme","Easier than Reference","D","j","riskyDeck","safeDeck",-14,0,-7,"left",1,0,18,"present","riskyDeck",567,793,-1,0
"0d478aphxuc7",702.393939393939,365.345379489732,13475,"25/03/2022@13:00:53","Mozilla/5.0 (Macintosh; Intel Mac OS X 10_15_7) AppleWebKit/605.1.15 (KHTML, like Gecko) Version/15.3 Safari/605.1.15",1440,900,1439,721,"main",1490452,100,12,10,"EM","relative_first","relative","Moderate","Easier than Reference","D","j","safeDeck","riskyDeck",0,-28,-14,"left",0,0,18,"present","safeDeck",654,1575,-1,1
"0d478aphxuc7",702.393939393939,365.345379489732,13475,"25/03/2022@13:00:53","Mozilla/5.0 (Macintosh; Intel Mac OS X 10_15_7) AppleWebKit/605.1.15 (KHTML, like Gecko) Version/15.3 Safari/605.1.15",1440,900,1439,721,"main",1490452,101,12,10,"EM","relative_first","relative","Moderate","Easier than Reference","D","k","safeDeck","riskyDeck",0,-28,-14,"left",0,0,18,"absent","safeDeck",516,1491,-1,1
"0d478aphxuc7",702.393939393939,365.345379489732,13475,"25/03/2022@13:00:53","Mozilla/5.0 (Macintosh; Intel Mac OS X 10_15_7) AppleWebKit/605.1.15 (KHTML, like Gecko) Version/15.3 Safari/605.1.15",1440,900,1439,721,"main",1490452,102,12,11,"HE","relative_first","relative","Extreme","Harder than Reference","D","k","riskyDeck","safeDeck",0,28,14,"left",1,0,60,"absent","riskyDeck",943,4150,-1,0
"0d478aphxuc7",702.393939393939,365.345379489732,13475,"25/03/2022@13:00:53","Mozilla/5.0 (Macintosh; Intel Mac OS X 10_15_7) AppleWebKit/605.1.15 (KHTML, like Gecko) Version/15.3 Safari/605.1.15",1440,900,1439,721,"main",1490452,103,12,11,"EE","relative_first","relative","Extreme","Easier than Reference","F","k","riskyDeck","safeDeck",0,-14,-7,"right",0,0,25,"absent","safeDeck",543,1702,1,1
"0d478aphxuc7",702.393939393939,365.345379489732,13475,"25/03/2022@13:00:53","Mozilla/5.0 (Macintosh; Intel Mac OS X 10_15_7) AppleWebKit/605.1.15 (KHTML, like Gecko) Version/15.3 Safari/605.1.15",1440,900,1439,721,"main",1490452,104,12,11,"HM","relative_first","relative","Moderate","Harder than Reference","D","k","safeDeck","riskyDeck",14,0,7,"left",0,1,39,"present","safeDeck",812,1308,-1,1
"0d478aphxuc7",702.393939393939,365.345379489732,13475,"25/03/2022@13:00:53","Mozilla/5.0 (Macintosh; Intel Mac OS X 10_15_7) AppleWebKit/605.1.15 (KHTML, like Gecko) Version/15.3 Safari/605.1.15",1440,900,1439,721,"main",1490452,105,12,11,"EM","relative_first","relative","Moderate","Easier than Reference","D","j","safeDeck","riskyDeck",0,-28,-14,"left",0,0,18,"present","safeDeck",636,899,-1,1
"0d478aphxuc7",702.393939393939,365.345379489732,13475,"25/03/2022@13:00:53","Mozilla/5.0 (Macintosh; Intel Mac OS X 10_15_7) AppleWebKit/605.1.15 (KHTML, like Gecko) Version/15.3 Safari/605.1.15",1440,900,1439,721,"main",1490452,106,12,11,"HM","relative_first","relative","Moderate","Harder than Reference","F","k","safeDeck","riskyDeck",0,14,7,"right",1,0,32,"absent","riskyDeck",915,1111,1,0
"0d478aphxuc7",702.393939393939,365.345379489732,13475,"25/03/2022@13:00:53","Mozilla/5.0 (Macintosh; Intel Mac OS X 10_15_7) AppleWebKit/605.1.15 (KHTML, like Gecko) Version/15.3 Safari/605.1.15",1440,900,1439,721,"main",1490452,107,13,11,"HE","relative_first","relative","Extreme","Harder than Reference","D","k","riskyDeck","safeDeck",0,28,14,"left",1,0,32,"absent","riskyDeck",734,1900,-1,0
"0d478aphxuc7",702.393939393939,365.345379489732,13475,"25/03/2022@13:00:53","Mozilla/5.0 (Macintosh; Intel Mac OS X 10_15_7) AppleWebKit/605.1.15 (KHTML, like Gecko) Version/15.3 Safari/605.1.15",1440,900,1439,721,"main",1490452,108,13,11,"EE","relative_first","relative","Extreme","Easier than Reference","D","j","safeDeck","riskyDeck",-14,0,-7,"left",0,0,25,"present","safeDeck",572,793,-1,1
"0d478aphxuc7",702.393939393939,365.345379489732,13475,"25/03/2022@13:00:53","Mozilla/5.0 (Macintosh; Intel Mac OS X 10_15_7) AppleWebKit/605.1.15 (KHTML, like Gecko) Version/15.3 Safari/605.1.15",1440,900,1439,721,"main",1490452,109,13,11,"HE","relative_first","relative","Extreme","Harder than Reference","D","k","riskyDeck","safeDeck",0,28,14,"left",1,0,60,"absent","riskyDeck",877,3379,-1,0
"0d478aphxuc7",702.393939393939,365.345379489732,13475,"25/03/2022@13:00:53","Mozilla/5.0 (Macintosh; Intel Mac OS X 10_15_7) AppleWebKit/605.1.15 (KHTML, like Gecko) Version/15.3 Safari/605.1.15",1440,900,1439,721,"main",1490452,110,13,11,"HM","relative_first","relative","Moderate","Harder than Reference","F","k","riskyDeck","safeDeck",14,0,7,"right",0,1,39,"present","safeDeck",863,1955,1,1
"0d478aphxuc7",702.393939393939,365.345379489732,13475,"25/03/2022@13:00:53","Mozilla/5.0 (Macintosh; Intel Mac OS X 10_15_7) AppleWebKit/605.1.15 (KHTML, like Gecko) Version/15.3 Safari/605.1.15",1440,900,1439,721,"main",1490452,111,13,11,"EE","relative_first","relative","Extreme","Easier than Reference","D","k","riskyDeck","safeDeck",-14,0,-7,"left",1,0,18,"absent","riskyDeck",533,1256,-1,0
"0d478aphxuc7",702.393939393939,365.345379489732,13475,"25/03/2022@13:00:53","Mozilla/5.0 (Macintosh; Intel Mac OS X 10_15_7) AppleWebKit/605.1.15 (KHTML, like Gecko) Version/15.3 Safari/605.1.15",1440,900,1439,721,"main",1490452,112,13,11,"EM","relative_first","relative","Moderate","Easier than Reference","D","k","safeDeck","riskyDeck",-28,0,-14,"left",0,0,18,"absent","safeDeck",602,982,-1,1
"0d478aphxuc7",702.393939393939,365.345379489732,13475,"25/03/2022@13:00:53","Mozilla/5.0 (Macintosh; Intel Mac OS X 10_15_7) AppleWebKit/605.1.15 (KHTML, like Gecko) Version/15.3 Safari/605.1.15",1440,900,1439,721,"main",1490452,113,13,11,"EM","relative_first","relative","Moderate","Easier than Reference","D","k","riskyDeck","safeDeck",0,-28,-14,"left",1,0,4,"absent","riskyDeck",543,802,-1,0
"0d478aphxuc7",702.393939393939,365.345379489732,13475,"25/03/2022@13:00:53","Mozilla/5.0 (Macintosh; Intel Mac OS X 10_15_7) AppleWebKit/605.1.15 (KHTML, like Gecko) Version/15.3 Safari/605.1.15",1440,900,1439,721,"main",1490452,114,13,11,"HM","relative_first","relative","Moderate","Harder than Reference","D","j","riskyDeck","safeDeck",0,14,7,"left",1,0,46,"present","riskyDeck",687,2978,-1,0
"0d478aphxuc7",702.393939393939,365.345379489732,13475,"25/03/2022@13:00:53","Mozilla/5.0 (Macintosh; Intel Mac OS X 10_15_7) AppleWebKit/605.1.15 (KHTML, like Gecko) Version/15.3 Safari/605.1.15",1440,900,1439,721,"main",1490452,115,13,11,"EE","relative_first","relative","Extreme","Easier than Reference","D","k","riskyDeck","safeDeck",-14,0,-7,"left",1,0,32,"absent","riskyDeck",504,1735,-1,0
"0d478aphxuc7",702.393939393939,365.345379489732,13475,"25/03/2022@13:00:53","Mozilla/5.0 (Macintosh; Intel Mac OS X 10_15_7) AppleWebKit/605.1.15 (KHTML, like Gecko) Version/15.3 Safari/605.1.15",1440,900,1439,721,"main",1490452,116,13,12,"HE","relative_first","relative","Extreme","Harder than Reference","F","k","safeDeck","riskyDeck",28,0,14,"right",1,0,32,"absent","riskyDeck",873,2207,1,0
"0d478aphxuc7",702.393939393939,365.345379489732,13475,"25/03/2022@13:00:53","Mozilla/5.0 (Macintosh; Intel Mac OS X 10_15_7) AppleWebKit/605.1.15 (KHTML, like Gecko) Version/15.3 Safari/605.1.15",1440,900,1439,721,"main",1490452,117,13,12,"HM","relative_first","relative","Moderate","Harder than Reference","D","k","riskyDeck","safeDeck",14,0,7,"left",1,0,32,"absent","riskyDeck",414,1244,-1,0
"0d478aphxuc7",702.393939393939,365.345379489732,13475,"25/03/2022@13:00:53","Mozilla/5.0 (Macintosh; Intel Mac OS X 10_15_7) AppleWebKit/605.1.15 (KHTML, like Gecko) Version/15.3 Safari/605.1.15",1440,900,1439,721,"main",1490452,118,13,12,"HE","relative_first","relative","Extreme","Harder than Reference","F","k","safeDeck","riskyDeck",0,28,14,"right",1,0,60,"absent","riskyDeck",822,6253,1,0
"0d478aphxuc7",702.393939393939,365.345379489732,13475,"25/03/2022@13:00:53","Mozilla/5.0 (Macintosh; Intel Mac OS X 10_15_7) AppleWebKit/605.1.15 (KHTML, like Gecko) Version/15.3 Safari/605.1.15",1440,900,1439,721,"main",1490452,119,13,12,"EM","relative_first","relative","Moderate","Easier than Reference","D","j","riskyDeck","safeDeck",-28,0,-14,"left",1,0,32,"present","riskyDeck",494,920,-1,0
"0d478aphxuc7",702.393939393939,365.345379489732,13475,"25/03/2022@13:00:53","Mozilla/5.0 (Macintosh; Intel Mac OS X 10_15_7) AppleWebKit/605.1.15 (KHTML, like Gecko) Version/15.3 Safari/605.1.15",1440,900,1439,721,"main",1490452,120,13,12,"EE","relative_first","relative","Extreme","Easier than Reference","D","k","safeDeck","riskyDeck",-14,0,-7,"left",0,0,25,"absent","safeDeck",535,1428,-1,1
"0d478aphxuc7",702.393939393939,365.345379489732,13475,"25/03/2022@13:00:53","Mozilla/5.0 (Macintosh; Intel Mac OS X 10_15_7) AppleWebKit/605.1.15 (KHTML, like Gecko) Version/15.3 Safari/605.1.15",1440,900,1439,721,"main",1490452,121,14,12,"HE","relative_first","relative","Extreme","Harder than Reference","D","k","riskyDeck","safeDeck",0,28,14,"left",1,0,32,"absent","riskyDeck",802,1571,-1,0
"0d478aphxuc7",702.393939393939,365.345379489732,13475,"25/03/2022@13:00:53","Mozilla/5.0 (Macintosh; Intel Mac OS X 10_15_7) AppleWebKit/605.1.15 (KHTML, like Gecko) Version/15.3 Safari/605.1.15",1440,900,1439,721,"main",1490452,122,14,12,"EE","relative_first","relative","Extreme","Easier than Reference","D","k","riskyDeck","safeDeck",0,-14,-7,"left",1,0,32,"absent","riskyDeck",1358,1101,-1,0
"0d478aphxuc7",702.393939393939,365.345379489732,13475,"25/03/2022@13:00:53","Mozilla/5.0 (Macintosh; Intel Mac OS X 10_15_7) AppleWebKit/605.1.15 (KHTML, like Gecko) Version/15.3 Safari/605.1.15",1440,900,1439,721,"main",1490452,123,14,12,"EM","relative_first","relative","Moderate","Easier than Reference","D","k","safeDeck","riskyDeck",0,-28,-14,"left",0,0,18,"absent","safeDeck",550,862,-1,1
"0d478aphxuc7",702.393939393939,365.345379489732,13475,"25/03/2022@13:00:53","Mozilla/5.0 (Macintosh; Intel Mac OS X 10_15_7) AppleWebKit/605.1.15 (KHTML, like Gecko) Version/15.3 Safari/605.1.15",1440,900,1439,721,"main",1490452,124,14,12,"HM","relative_first","relative","Moderate","Harder than Reference","F","k","safeDeck","riskyDeck",0,14,7,"right",1,1,32,"present","riskyDeck",950,1890,1,0
"0d478aphxuc7",702.393939393939,365.345379489732,13475,"25/03/2022@13:00:53","Mozilla/5.0 (Macintosh; Intel Mac OS X 10_15_7) AppleWebKit/605.1.15 (KHTML, like Gecko) Version/15.3 Safari/605.1.15",1440,900,1439,721,"main",1490452,125,14,12,"HE","relative_first","relative","Extreme","Harder than Reference","F","k","safeDeck","riskyDeck",0,28,14,"right",1,0,60,"absent","riskyDeck",745,2878,1,0
"0d478aphxuc7",702.393939393939,365.345379489732,13475,"25/03/2022@13:00:53","Mozilla/5.0 (Macintosh; Intel Mac OS X 10_15_7) AppleWebKit/605.1.15 (KHTML, like Gecko) Version/15.3 Safari/605.1.15",1440,900,1439,721,"main",1490452,126,14,12,"HM","relative_first","relative","Moderate","Harder than Reference","F","k","safeDeck","riskyDeck",14,0,7,"right",1,0,46,"absent","riskyDeck",769,3379,1,0
"0d478aphxuc7",702.393939393939,365.345379489732,13475,"25/03/2022@13:00:53","Mozilla/5.0 (Macintosh; Intel Mac OS X 10_15_7) AppleWebKit/605.1.15 (KHTML, like Gecko) Version/15.3 Safari/605.1.15",1440,900,1439,721,"main",1490452,127,14,12,"EM","relative_first","relative","Moderate","Easier than Reference","D","j","safeDeck","riskyDeck",0,-28,-14,"left",0,0,18,"present","safeDeck",531,945,-1,1
"0d478aphxuc7",702.393939393939,365.345379489732,13475,"25/03/2022@13:00:53","Mozilla/5.0 (Macintosh; Intel Mac OS X 10_15_7) AppleWebKit/605.1.15 (KHTML, like Gecko) Version/15.3 Safari/605.1.15",1440,900,1439,721,"main",1490452,128,14,12,"EE","relative_first","relative","Extreme","Easier than Reference","D","j","riskyDeck","safeDeck",-14,0,-7,"left",1,0,18,"present","riskyDeck",579,1079,-1,0
"0d478aphxuc7",702.393939393939,365.345379489732,13475,"25/03/2022@13:00:53","Mozilla/5.0 (Macintosh; Intel Mac OS X 10_15_7) AppleWebKit/605.1.15 (KHTML, like Gecko) Version/15.3 Safari/605.1.15",1440,900,1439,721,"main",1490452,129,14,12,"EE","relative_first","relative","Extreme","Easier than Reference","D","k","riskyDeck","safeDeck",0,-14,-7,"left",1,0,18,"absent","riskyDeck",651,1881,-1,0
"0d478aphxuc7",702.393939393939,365.345379489732,13475,"25/03/2022@13:00:53","Mozilla/5.0 (Macintosh; Intel Mac OS X 10_15_7) AppleWebKit/605.1.15 (KHTML, like Gecko) Version/15.3 Safari/605.1.15",1440,900,1439,721,"main",1490452,130,14,13,"EM","relative_first","relative","Moderate","Easier than Reference","D","j","riskyDeck","safeDeck",-28,0,-14,"left",1,0,32,"present","riskyDeck",766,1081,-1,0
"0d478aphxuc7",702.393939393939,365.345379489732,13475,"25/03/2022@13:00:53","Mozilla/5.0 (Macintosh; Intel Mac OS X 10_15_7) AppleWebKit/605.1.15 (KHTML, like Gecko) Version/15.3 Safari/605.1.15",1440,900,1439,721,"main",1490452,131,14,13,"HM","relative_first","relative","Moderate","Harder than Reference","F","k","safeDeck","riskyDeck",14,0,7,"right",1,1,46,"present","riskyDeck",813,1679,1,0
"0d478aphxuc7",702.393939393939,365.345379489732,13475,"25/03/2022@13:00:53","Mozilla/5.0 (Macintosh; Intel Mac OS X 10_15_7) AppleWebKit/605.1.15 (KHTML, like Gecko) Version/15.3 Safari/605.1.15",1440,900,1439,721,"main",1490452,132,14,13,"HE","relative_first","relative","Extreme","Harder than Reference","F","k","safeDeck","riskyDeck",0,28,14,"right",1,0,60,"absent","riskyDeck",782,4164,1,0
"0d478aphxuc7",702.393939393939,365.345379489732,13475,"25/03/2022@13:00:53","Mozilla/5.0 (Macintosh; Intel Mac OS X 10_15_7) AppleWebKit/605.1.15 (KHTML, like Gecko) Version/15.3 Safari/605.1.15",1440,900,1439,721,"main",1490452,133,14,13,"EM","relative_first","relative","Moderate","Easier than Reference","D","j","safeDeck","riskyDeck",-28,0,-14,"left",0,0,18,"present","safeDeck",1433,1221,-1,1
"0d478aphxuc7",702.393939393939,365.345379489732,13475,"25/03/2022@13:00:53","Mozilla/5.0 (Macintosh; Intel Mac OS X 10_15_7) AppleWebKit/605.1.15 (KHTML, like Gecko) Version/15.3 Safari/605.1.15",1440,900,1439,721,"main",1490452,134,15,13,"HE","relative_first","relative","Extreme","Harder than Reference","D","k","riskyDeck","safeDeck",0,28,14,"left",1,1,60,"present","riskyDeck",696,1354,-1,0
"0d478aphxuc7",702.393939393939,365.345379489732,13475,"25/03/2022@13:00:53","Mozilla/5.0 (Macintosh; Intel Mac OS X 10_15_7) AppleWebKit/605.1.15 (KHTML, like Gecko) Version/15.3 Safari/605.1.15",1440,900,1439,721,"main",1490452,135,15,13,"HM","relative_first","relative","Moderate","Harder than Reference","D","k","riskyDeck","safeDeck",0,14,7,"left",1,1,46,"present","riskyDeck",638,2342,-1,0
"0d478aphxuc7",702.393939393939,365.345379489732,13475,"25/03/2022@13:00:53","Mozilla/5.0 (Macintosh; Intel Mac OS X 10_15_7) AppleWebKit/605.1.15 (KHTML, like Gecko) Version/15.3 Safari/605.1.15",1440,900,1439,721,"main",1490452,136,15,13,"EE","relative_first","relative","Extreme","Easier than Reference","D","j","safeDeck","riskyDeck",0,-14,-7,"left",0,0,25,"present","safeDeck",838,942,-1,1
"0d478aphxuc7",702.393939393939,365.345379489732,13475,"25/03/2022@13:00:53","Mozilla/5.0 (Macintosh; Intel Mac OS X 10_15_7) AppleWebKit/605.1.15 (KHTML, like Gecko) Version/15.3 Safari/605.1.15",1440,900,1439,721,"main",1490452,137,15,13,"EM","relative_first","relative","Moderate","Easier than Reference","F","k","safeDeck","riskyDeck",0,-28,-14,"right",1,0,4,"absent","riskyDeck",790,673,1,0
"0d478aphxuc7",702.393939393939,365.345379489732,13475,"25/03/2022@13:00:53","Mozilla/5.0 (Macintosh; Intel Mac OS X 10_15_7) AppleWebKit/605.1.15 (KHTML, like Gecko) Version/15.3 Safari/605.1.15",1440,900,1439,721,"main",1490452,138,15,13,"HM","relative_first","relative","Moderate","Harder than Reference","D","j","safeDeck","riskyDeck",0,14,7,"left",0,0,39,"present","safeDeck",860,1366,-1,1
"0d478aphxuc7",702.393939393939,365.345379489732,13475,"25/03/2022@13:00:53","Mozilla/5.0 (Macintosh; Intel Mac OS X 10_15_7) AppleWebKit/605.1.15 (KHTML, like Gecko) Version/15.3 Safari/605.1.15",1440,900,1439,721,"main",1490452,139,15,13,"HE","relative_first","relative","Extreme","Harder than Reference","F","k","safeDeck","riskyDeck",28,0,14,"right",1,0,32,"absent","riskyDeck",745,1703,1,0
"0d478aphxuc7",702.393939393939,365.345379489732,13475,"25/03/2022@13:00:53","Mozilla/5.0 (Macintosh; Intel Mac OS X 10_15_7) AppleWebKit/605.1.15 (KHTML, like Gecko) Version/15.3 Safari/605.1.15",1440,900,1439,721,"main",1490452,140,15,13,"EE","relative_first","relative","Extreme","Easier than Reference","D","k","riskyDeck","safeDeck",0,-14,-7,"left",1,0,32,"absent","riskyDeck",539,1593,-1,0
"0d478aphxuc7",702.393939393939,365.345379489732,13475,"25/03/2022@13:00:53","Mozilla/5.0 (Macintosh; Intel Mac OS X 10_15_7) AppleWebKit/605.1.15 (KHTML, like Gecko) Version/15.3 Safari/605.1.15",1440,900,1439,721,"main",1490452,141,15,13,"EE","relative_first","relative","Extreme","Easier than Reference","F","j","safeDeck","riskyDeck",-14,0,-7,"right",1,0,32,"present","riskyDeck",680,1360,1,0
"0d478aphxuc7",702.393939393939,365.345379489732,13475,"25/03/2022@13:00:53","Mozilla/5.0 (Macintosh; Intel Mac OS X 10_15_7) AppleWebKit/605.1.15 (KHTML, like Gecko) Version/15.3 Safari/605.1.15",1440,900,1439,721,"main",1490452,142,15,13,"HE","relative_first","relative","Extreme","Harder than Reference","D","k","safeDeck","riskyDeck",0,28,14,"left",0,0,46,"absent","safeDeck",845,2092,-1,1
"0d478aphxuc7",702.393939393939,365.345379489732,13475,"25/03/2022@13:00:53","Mozilla/5.0 (Macintosh; Intel Mac OS X 10_15_7) AppleWebKit/605.1.15 (KHTML, like Gecko) Version/15.3 Safari/605.1.15",1440,900,1439,721,"main",1490452,143,15,14,"HM","relative_first","relative","Moderate","Harder than Reference","D","j","riskyDeck","safeDeck",14,0,7,"left",1,0,32,"present","riskyDeck",778,2150,-1,0
"0d478aphxuc7",702.393939393939,365.345379489732,13475,"25/03/2022@13:00:53","Mozilla/5.0 (Macintosh; Intel Mac OS X 10_15_7) AppleWebKit/605.1.15 (KHTML, like Gecko) Version/15.3 Safari/605.1.15",1440,900,1439,721,"main",1490452,144,15,14,"EM","relative_first","relative","Moderate","Easier than Reference","D","k","riskyDeck","safeDeck",-28,0,-14,"left",1,0,4,"absent","riskyDeck",559,545,-1,0
"0d478aphxuc7",702.393939393939,365.345379489732,13475,"25/03/2022@13:00:53","Mozilla/5.0 (Macintosh; Intel Mac OS X 10_15_7) AppleWebKit/605.1.15 (KHTML, like Gecko) Version/15.3 Safari/605.1.15",1440,900,1439,721,"main",1490452,145,15,14,"HE","relative_first","relative","Extreme","Harder than Reference","D","j","riskyDeck","safeDeck",28,0,14,"left",1,0,32,"present","riskyDeck",690,1401,-1,0
"0d478aphxuc7",702.393939393939,365.345379489732,13475,"25/03/2022@13:00:53","Mozilla/5.0 (Macintosh; Intel Mac OS X 10_15_7) AppleWebKit/605.1.15 (KHTML, like Gecko) Version/15.3 Safari/605.1.15",1440,900,1439,721,"main",1490452,146,15,14,"EM","relative_first","relative","Moderate","Easier than Reference","D","j","safeDeck","riskyDeck",0,-28,-14,"left",0,0,18,"present","safeDeck",591,861,-1,1
"0d478aphxuc7",702.393939393939,365.345379489732,13475,"25/03/2022@13:00:53","Mozilla/5.0 (Macintosh; Intel Mac OS X 10_15_7) AppleWebKit/605.1.15 (KHTML, like Gecko) Version/15.3 Safari/605.1.15",1440,900,1439,721,"main",1490452,147,15,14,"HM","relative_first","relative","Moderate","Harder than Reference","D","k","riskyDeck","safeDeck",0,14,7,"left",1,0,46,"absent","riskyDeck",867,2631,-1,0
"0d478aphxuc7",702.393939393939,365.345379489732,13475,"25/03/2022@13:00:53","Mozilla/5.0 (Macintosh; Intel Mac OS X 10_15_7) AppleWebKit/605.1.15 (KHTML, like Gecko) Version/15.3 Safari/605.1.15",1440,900,1439,721,"main",1490452,148,15,14,"EE","relative_first","relative","Extreme","Easier than Reference","D","j","riskyDeck","safeDeck",0,-14,-7,"left",1,0,18,"present","riskyDeck",469,786,-1,0
"0d478aphxuc7",702.393939393939,365.345379489732,13475,"25/03/2022@13:00:53","Mozilla/5.0 (Macintosh; Intel Mac OS X 10_15_7) AppleWebKit/605.1.15 (KHTML, like Gecko) Version/15.3 Safari/605.1.15",1440,900,1439,721,"main",1490452,149,15,14,"HM","relative_first","relative","Moderate","Harder than Reference","D","j","riskyDeck","safeDeck",14,0,7,"left",1,0,32,"present","riskyDeck",671,1659,-1,0
"0d478aphxuc7",702.393939393939,365.345379489732,13475,"25/03/2022@13:00:53","Mozilla/5.0 (Macintosh; Intel Mac OS X 10_15_7) AppleWebKit/605.1.15 (KHTML, like Gecko) Version/15.3 Safari/605.1.15",1440,900,1439,721,"main",1490452,150,16,14,"HE","relative_first","relative","Extreme","Harder than Reference","D","k","riskyDeck","safeDeck",28,0,14,"left",1,0,60,"absent","riskyDeck",803,1814,-1,0
"0d478aphxuc7",702.393939393939,365.345379489732,13475,"25/03/2022@13:00:53","Mozilla/5.0 (Macintosh; Intel Mac OS X 10_15_7) AppleWebKit/605.1.15 (KHTML, like Gecko) Version/15.3 Safari/605.1.15",1440,900,1439,721,"main",1490452,151,16,14,"EM","relative_first","relative","Moderate","Easier than Reference","D","k","riskyDeck","safeDeck",-28,0,-14,"left",1,0,32,"absent","riskyDeck",385,1470,-1,0
"0d478aphxuc7",702.393939393939,365.345379489732,13475,"25/03/2022@13:00:53","Mozilla/5.0 (Macintosh; Intel Mac OS X 10_15_7) AppleWebKit/605.1.15 (KHTML, like Gecko) Version/15.3 Safari/605.1.15",1440,900,1439,721,"main",1490452,152,16,14,"EE","relative_first","relative","Extreme","Easier than Reference","D","j","riskyDeck","safeDeck",0,-14,-7,"left",1,0,32,"present","riskyDeck",473,1514,-1,0
"0d478aphxuc7",702.393939393939,365.345379489732,13475,"25/03/2022@13:00:53","Mozilla/5.0 (Macintosh; Intel Mac OS X 10_15_7) AppleWebKit/605.1.15 (KHTML, like Gecko) Version/15.3 Safari/605.1.15",1440,900,1439,721,"main",1490452,153,16,14,"HM","relative_first","relative","Moderate","Harder than Reference","D","k","safeDeck","riskyDeck",0,14,7,"left",0,0,39,"absent","safeDeck",762,2613,-1,1
"0d478aphxuc7",702.393939393939,365.345379489732,13475,"25/03/2022@13:00:53","Mozilla/5.0 (Macintosh; Intel Mac OS X 10_15_7) AppleWebKit/605.1.15 (KHTML, like Gecko) Version/15.3 Safari/605.1.15",1440,900,1439,721,"main",1490452,154,16,14,"EM","relative_first","relative","Moderate","Easier than Reference","D","k","riskyDeck","safeDeck",0,-28,-14,"left",1,0,4,"absent","riskyDeck",422,735,-1,0
"0d478aphxuc7",702.393939393939,365.345379489732,13475,"25/03/2022@13:00:53","Mozilla/5.0 (Macintosh; Intel Mac OS X 10_15_7) AppleWebKit/605.1.15 (KHTML, like Gecko) Version/15.3 Safari/605.1.15",1440,900,1439,721,"main",1490452,156,16,14,"EE","relative_first","relative","Extreme","Easier than Reference","D","k","riskyDeck","safeDeck",0,-14,-7,"left",1,0,32,"absent","riskyDeck",1020,1229,-1,0
"0d478aphxuc7",702.393939393939,365.345379489732,13475,"25/03/2022@13:00:53","Mozilla/5.0 (Macintosh; Intel Mac OS X 10_15_7) AppleWebKit/605.1.15 (KHTML, like Gecko) Version/15.3 Safari/605.1.15",1440,900,1439,721,"main",1490452,157,16,14,"HM","relative_first","relative","Moderate","Harder than Reference","F","k","safeDeck","riskyDeck",14,0,7,"right",1,0,32,"absent","riskyDeck",1367,1017,1,0
"0d478aphxuc7",702.393939393939,365.345379489732,13475,"25/03/2022@13:00:53","Mozilla/5.0 (Macintosh; Intel Mac OS X 10_15_7) AppleWebKit/605.1.15 (KHTML, like Gecko) Version/15.3 Safari/605.1.15",1440,900,1439,721,"main",1490452,158,16,14,"HE","relative_first","relative","Extreme","Harder than Reference","F","k","safeDeck","riskyDeck",28,0,14,"right",1,0,32,"absent","riskyDeck",728,2065,1,0
"0d478aphxuc7",702.393939393939,365.345379489732,13475,"25/03/2022@13:00:53","Mozilla/5.0 (Macintosh; Intel Mac OS X 10_15_7) AppleWebKit/605.1.15 (KHTML, like Gecko) Version/15.3 Safari/605.1.15",1440,900,1439,721,"main",1490452,159,16,15,"EM","relative_first","relative","Moderate","Easier than Reference","D","k","riskyDeck","safeDeck",0,-28,-14,"left",1,0,4,"absent","riskyDeck",559,645,-1,0
"0d478aphxuc7",702.393939393939,365.345379489732,13475,"25/03/2022@13:00:53","Mozilla/5.0 (Macintosh; Intel Mac OS X 10_15_7) AppleWebKit/605.1.15 (KHTML, like Gecko) Version/15.3 Safari/605.1.15",1440,900,1439,721,"main",1490452,160,16,15,"EE","relative_first","relative","Extreme","Easier than Reference","D","k","riskyDeck","safeDeck",0,-14,-7,"left",1,0,32,"absent","riskyDeck",662,908,-1,0
"0d478aphxuc7",702.393939393939,365.345379489732,13475,"25/03/2022@13:00:53","Mozilla/5.0 (Macintosh; Intel Mac OS X 10_15_7) AppleWebKit/605.1.15 (KHTML, like Gecko) Version/15.3 Safari/605.1.15",1440,900,1439,721,"main",1490452,161,16,15,"HM","relative_first","relative","Moderate","Harder than Reference","F","k","riskyDeck","safeDeck",14,0,7,"right",0,0,39,"absent","safeDeck",799,1365,1,1
"0d478aphxuc7",702.393939393939,365.345379489732,13475,"25/03/2022@13:00:53","Mozilla/5.0 (Macintosh; Intel Mac OS X 10_15_7) AppleWebKit/605.1.15 (KHTML, like Gecko) Version/15.3 Safari/605.1.15",1440,900,1439,721,"main",1490452,162,16,15,"EE","relative_first","relative","Extreme","Easier than Reference","F","k","safeDeck","riskyDeck",0,-14,-7,"right",1,0,18,"absent","riskyDeck",896,955,1,0
"0d478aphxuc7",702.393939393939,365.345379489732,13475,"25/03/2022@13:00:53","Mozilla/5.0 (Macintosh; Intel Mac OS X 10_15_7) AppleWebKit/605.1.15 (KHTML, like Gecko) Version/15.3 Safari/605.1.15",1440,900,1439,721,"main",1490452,163,16,15,"EM","relative_first","relative","Moderate","Easier than Reference","D","j","riskyDeck","safeDeck",0,-28,-14,"left",1,0,4,"present","riskyDeck",742,677,-1,0
"0d478aphxuc7",702.393939393939,365.345379489732,13475,"25/03/2022@13:00:53","Mozilla/5.0 (Macintosh; Intel Mac OS X 10_15_7) AppleWebKit/605.1.15 (KHTML, like Gecko) Version/15.3 Safari/605.1.15",1440,900,1439,721,"main",1490452,164,16,15,"HE","relative_first","relative","Extreme","Harder than Reference","F","k","safeDeck","riskyDeck",0,28,14,"right",1,0,32,"absent","riskyDeck",629,1048,1,0
"0d478aphxuc7",702.393939393939,365.345379489732,13475,"25/03/2022@13:00:53","Mozilla/5.0 (Macintosh; Intel Mac OS X 10_15_7) AppleWebKit/605.1.15 (KHTML, like Gecko) Version/15.3 Safari/605.1.15",1440,900,1439,721,"main",1490452,165,16,15,"HM","relative_first","relative","Moderate","Harder than Reference","D","j","safeDeck","riskyDeck",0,14,7,"left",0,0,39,"present","safeDeck",1175,1477,-1,1
"0d478aphxuc7",702.393939393939,365.345379489732,13475,"25/03/2022@13:00:53","Mozilla/5.0 (Macintosh; Intel Mac OS X 10_15_7) AppleWebKit/605.1.15 (KHTML, like Gecko) Version/15.3 Safari/605.1.15",1440,900,1439,721,"main",1490452,166,17,15,"HE","relative_first","relative","Extreme","Harder than Reference","D","j","riskyDeck","safeDeck",0,28,14,"left",1,0,32,"present","riskyDeck",565,1188,-1,0
"0d478aphxuc7",702.393939393939,365.345379489732,13475,"25/03/2022@13:00:53","Mozilla/5.0 (Macintosh; Intel Mac OS X 10_15_7) AppleWebKit/605.1.15 (KHTML, like Gecko) Version/15.3 Safari/605.1.15",1440,900,1439,721,"main",1490452,167,17,15,"EM","relative_first","relative","Moderate","Easier than Reference","D","j","riskyDeck","safeDeck",-28,0,-14,"left",1,0,4,"present","riskyDeck",467,672,-1,0
"0d478aphxuc7",702.393939393939,365.345379489732,13475,"25/03/2022@13:00:53","Mozilla/5.0 (Macintosh; Intel Mac OS X 10_15_7) AppleWebKit/605.1.15 (KHTML, like Gecko) Version/15.3 Safari/605.1.15",1440,900,1439,721,"main",1490452,168,17,15,"EE","relative_first","relative","Extreme","Easier than Reference","D","k","safeDeck","riskyDeck",-14,0,-7,"left",0,0,25,"absent","safeDeck",786,1153,-1,1
"0d478aphxuc7",702.393939393939,365.345379489732,13475,"25/03/2022@13:00:53","Mozilla/5.0 (Macintosh; Intel Mac OS X 10_15_7) AppleWebKit/605.1.15 (KHTML, like Gecko) Version/15.3 Safari/605.1.15",1440,900,1439,721,"main",1490452,169,17,15,"HM","relative_first","relative","Moderate","Harder than Reference","F","k","safeDeck","riskyDeck",14,0,7,"right",1,0,32,"absent","riskyDeck",639,1106,1,0
"0d478aphxuc7",702.393939393939,365.345379489732,13475,"25/03/2022@13:00:53","Mozilla/5.0 (Macintosh; Intel Mac OS X 10_15_7) AppleWebKit/605.1.15 (KHTML, like Gecko) Version/15.3 Safari/605.1.15",1440,900,1439,721,"main",1490452,170,17,15,"EM","relative_first","relative","Moderate","Easier than Reference","D","k","safeDeck","riskyDeck",-28,0,-14,"left",0,0,18,"absent","safeDeck",454,1514,-1,1
"0d478aphxuc7",702.393939393939,365.345379489732,13475,"25/03/2022@13:00:53","Mozilla/5.0 (Macintosh; Intel Mac OS X 10_15_7) AppleWebKit/605.1.15 (KHTML, like Gecko) Version/15.3 Safari/605.1.15",1440,900,1439,721,"main",1490452,171,17,15,"HE","relative_first","relative","Extreme","Harder than Reference","D","k","riskyDeck","safeDeck",28,0,14,"left",1,0,60,"absent","riskyDeck",600,2764,-1,0
"0d478aphxuc7",702.393939393939,365.345379489732,13475,"25/03/2022@13:00:53","Mozilla/5.0 (Macintosh; Intel Mac OS X 10_15_7) AppleWebKit/605.1.15 (KHTML, like Gecko) Version/15.3 Safari/605.1.15",1440,900,1439,721,"main",1490452,172,17,15,"EE","relative_first","relative","Extreme","Easier than Reference","D","j","riskyDeck","safeDeck",0,-14,-7,"left",1,0,18,"present","riskyDeck",440,843,-1,0
"0d478aphxuc7",702.393939393939,365.345379489732,13475,"25/03/2022@13:00:53","Mozilla/5.0 (Macintosh; Intel Mac OS X 10_15_7) AppleWebKit/605.1.15 (KHTML, like Gecko) Version/15.3 Safari/605.1.15",1440,900,1439,721,"main",1490452,173,17,15,"HM","relative_first","relative","Moderate","Harder than Reference","D","k","riskyDeck","safeDeck",14,0,7,"left",1,0,46,"absent","riskyDeck",508,1684,-1,0
"0d478aphxuc7",702.393939393939,365.345379489732,13475,"25/03/2022@13:00:53","Mozilla/5.0 (Macintosh; Intel Mac OS X 10_15_7) AppleWebKit/605.1.15 (KHTML, like Gecko) Version/15.3 Safari/605.1.15",1440,900,1439,721,"main",1490452,174,17,15,"EE","relative_first","relative","Extreme","Easier than Reference","D","k","safeDeck","riskyDeck",0,-14,-7,"left",0,0,25,"absent","safeDeck",303,1506,-1,1
"0d478aphxuc7",702.393939393939,365.345379489732,13475,"25/03/2022@13:00:53","Mozilla/5.0 (Macintosh; Intel Mac OS X 10_15_7) AppleWebKit/605.1.15 (KHTML, like Gecko) Version/15.3 Safari/605.1.15",1440,900,1439,721,"main",1490452,175,17,15,"EM","relative_first","relative","Moderate","Easier than Reference","F","k","safeDeck","riskyDeck",-28,0,-14,"right",1,0,32,"absent","riskyDeck",856,1546,1,0
"0d478aphxuc7",702.393939393939,365.345379489732,13475,"25/03/2022@13:00:53","Mozilla/5.0 (Macintosh; Intel Mac OS X 10_15_7) AppleWebKit/605.1.15 (KHTML, like Gecko) Version/15.3 Safari/605.1.15",1440,900,1439,721,"main",1490452,176,17,16,"HE","relative_first","relative","Extreme","Harder than Reference","D","k","safeDeck","riskyDeck",28,0,14,"left",0,0,46,"absent","safeDeck",334,1301,-1,1
"0d478aphxuc7",702.393939393939,365.345379489732,13475,"25/03/2022@13:00:53","Mozilla/5.0 (Macintosh; Intel Mac OS X 10_15_7) AppleWebKit/605.1.15 (KHTML, like Gecko) Version/15.3 Safari/605.1.15",1440,900,1439,721,"main",1490452,177,17,16,"HM","relative_first","relative","Moderate","Harder than Reference","D","k","riskyDeck","safeDeck",0,14,7,"left",1,0,46,"absent","riskyDeck",643,1603,-1,0
"0d478aphxuc7",702.393939393939,365.345379489732,13475,"25/03/2022@13:00:53","Mozilla/5.0 (Macintosh; Intel Mac OS X 10_15_7) AppleWebKit/605.1.15 (KHTML, like Gecko) Version/15.3 Safari/605.1.15",1440,900,1439,721,"main",1490452,178,17,16,"EE","relative_first","relative","Extreme","Easier than Reference","D","j","riskyDeck","safeDeck",-14,0,-7,"left",1,0,18,"present","riskyDeck",636,929,-1,0
"0d478aphxuc7",702.393939393939,365.345379489732,13475,"25/03/2022@13:00:53","Mozilla/5.0 (Macintosh; Intel Mac OS X 10_15_7) AppleWebKit/605.1.15 (KHTML, like Gecko) Version/15.3 Safari/605.1.15",1440,900,1439,721,"main",1490452,179,17,16,"HE","relative_first","relative","Extreme","Harder than Reference","F","k","riskyDeck","safeDeck",0,28,14,"right",0,0,46,"absent","safeDeck",583,734,1,1
"0d478aphxuc7",702.393939393939,365.345379489732,13475,"25/03/2022@13:00:53","Mozilla/5.0 (Macintosh; Intel Mac OS X 10_15_7) AppleWebKit/605.1.15 (KHTML, like Gecko) Version/15.3 Safari/605.1.15",1440,900,1439,721,"main",1490452,180,17,16,"EM","relative_first","relative","Moderate","Easier than Reference","D","j","safeDeck","riskyDeck",0,-28,-14,"left",0,0,18,"present","safeDeck",451,596,-1,1
"0d478aphxuc7",702.393939393939,365.345379489732,13475,"25/03/2022@13:00:53","Mozilla/5.0 (Macintosh; Intel Mac OS X 10_15_7) AppleWebKit/605.1.15 (KHTML, like Gecko) Version/15.3 Safari/605.1.15",1440,900,1439,721,"main",1490452,181,17,16,"EM","relative_first","relative","Moderate","Easier than Reference","F","k","safeDeck","riskyDeck",-28,0,-14,"right",1,0,4,"absent","riskyDeck",567,547,1,0
"0d478aphxuc7",702.393939393939,365.345379489732,13475,"25/03/2022@13:00:53","Mozilla/5.0 (Macintosh; Intel Mac OS X 10_15_7) AppleWebKit/605.1.15 (KHTML, like Gecko) Version/15.3 Safari/605.1.15",1440,900,1439,721,"main",1490452,182,17,16,"HM","relative_first","relative","Moderate","Harder than Reference","D","j","riskyDeck","safeDeck",14,0,7,"left",1,0,46,"present","riskyDeck",497,1504,-1,0
"0d478aphxuc7",702.393939393939,365.345379489732,13475,"25/03/2022@13:00:53","Mozilla/5.0 (Macintosh; Intel Mac OS X 10_15_7) AppleWebKit/605.1.15 (KHTML, like Gecko) Version/15.3 Safari/605.1.15",1440,900,1439,721,"main",1490452,183,17,16,"EE","relative_first","relative","Extreme","Easier than Reference","F","k","riskyDeck","safeDeck",0,-14,-7,"right",0,0,25,"absent","safeDeck",499,1461,1,1
"0d478aphxuc7",702.393939393939,365.345379489732,13475,"25/03/2022@13:00:53","Mozilla/5.0 (Macintosh; Intel Mac OS X 10_15_7) AppleWebKit/605.1.15 (KHTML, like Gecko) Version/15.3 Safari/605.1.15",1440,900,1439,721,"main",1490452,184,18,16,"HE","relative_first","relative","Extreme","Harder than Reference","D","k","safeDeck","riskyDeck",0,28,14,"left",0,0,46,"absent","safeDeck",438,1351,-1,1
"0d478aphxuc7",702.393939393939,365.345379489732,13475,"25/03/2022@13:00:53","Mozilla/5.0 (Macintosh; Intel Mac OS X 10_15_7) AppleWebKit/605.1.15 (KHTML, like Gecko) Version/15.3 Safari/605.1.15",1440,900,1439,721,"main",1490452,185,18,16,"HE","relative_first","relative","Extreme","Harder than Reference","D","j","safeDeck","riskyDeck",0,28,14,"left",0,0,46,"present","safeDeck",389,1365,-1,1
"0d478aphxuc7",702.393939393939,365.345379489732,13475,"25/03/2022@13:00:53","Mozilla/5.0 (Macintosh; Intel Mac OS X 10_15_7) AppleWebKit/605.1.15 (KHTML, like Gecko) Version/15.3 Safari/605.1.15",1440,900,1439,721,"main",1490452,186,18,16,"EE","relative_first","relative","Extreme","Easier than Reference","F","k","safeDeck","riskyDeck",0,-14,-7,"right",1,0,18,"absent","riskyDeck",866,666,1,0
"0d478aphxuc7",702.393939393939,365.345379489732,13475,"25/03/2022@13:00:53","Mozilla/5.0 (Macintosh; Intel Mac OS X 10_15_7) AppleWebKit/605.1.15 (KHTML, like Gecko) Version/15.3 Safari/605.1.15",1440,900,1439,721,"main",1490452,187,18,16,"EM","relative_first","relative","Moderate","Easier than Reference","D","k","safeDeck","riskyDeck",-28,0,-14,"left",0,0,18,"absent","safeDeck",399,1002,-1,1
"0d478aphxuc7",702.393939393939,365.345379489732,13475,"25/03/2022@13:00:53","Mozilla/5.0 (Macintosh; Intel Mac OS X 10_15_7) AppleWebKit/605.1.15 (KHTML, like Gecko) Version/15.3 Safari/605.1.15",1440,900,1439,721,"main",1490452,188,18,16,"HM","relative_first","relative","Moderate","Harder than Reference","D","k","riskyDeck","safeDeck",14,0,7,"left",1,0,46,"absent","riskyDeck",652,769,-1,0
"0d478aphxuc7",702.393939393939,365.345379489732,13475,"25/03/2022@13:00:53","Mozilla/5.0 (Macintosh; Intel Mac OS X 10_15_7) AppleWebKit/605.1.15 (KHTML, like Gecko) Version/15.3 Safari/605.1.15",1440,900,1439,721,"main",1490452,189,18,16,"HM","relative_first","relative","Moderate","Harder than Reference","F","k","safeDeck","riskyDeck",14,0,7,"right",1,1,46,"present","riskyDeck",650,2135,1,0
"0d478aphxuc7",702.393939393939,365.345379489732,13475,"25/03/2022@13:00:53","Mozilla/5.0 (Macintosh; Intel Mac OS X 10_15_7) AppleWebKit/605.1.15 (KHTML, like Gecko) Version/15.3 Safari/605.1.15",1440,900,1439,721,"main",1490452,191,18,16,"EM","relative_first","relative","Moderate","Easier than Reference","D","k","safeDeck","riskyDeck",-28,0,-14,"left",0,0,18,"absent","safeDeck",517,730,-1,1
"0d478aphxuc7",702.393939393939,365.345379489732,13475,"25/03/2022@13:00:53","Mozilla/5.0 (Macintosh; Intel Mac OS X 10_15_7) AppleWebKit/605.1.15 (KHTML, like Gecko) Version/15.3 Safari/605.1.15",1440,900,1439,721,"main",1490452,192,18,16,"HE","relative_first","relative","Extreme","Harder than Reference","D","j","safeDeck","riskyDeck",28,0,14,"left",0,0,46,"present","safeDeck",569,794,-1,1
"0d478aphxuc7",702.393939393939,365.345379489732,13475,"25/03/2022@13:00:53","Mozilla/5.0 (Macintosh; Intel Mac OS X 10_15_7) AppleWebKit/605.1.15 (KHTML, like Gecko) Version/15.3 Safari/605.1.15",1440,900,1439,721,"main",1490452,193,18,16,"HM","relative_first","relative","Moderate","Harder than Reference","F","j","safeDeck","riskyDeck",14,0,7,"right",1,0,32,"present","riskyDeck",414,933,1,0
"0d478aphxuc7",702.393939393939,365.345379489732,13475,"25/03/2022@13:00:53","Mozilla/5.0 (Macintosh; Intel Mac OS X 10_15_7) AppleWebKit/605.1.15 (KHTML, like Gecko) Version/15.3 Safari/605.1.15",1440,900,1439,721,"main",1490452,194,18,16,"EM","relative_first","relative","Moderate","Easier than Reference","D","k","safeDeck","riskyDeck",0,-28,-14,"left",0,0,18,"absent","safeDeck",460,1085,-1,1
"0d478aphxuc7",702.393939393939,365.345379489732,13475,"25/03/2022@13:00:53","Mozilla/5.0 (Macintosh; Intel Mac OS X 10_15_7) AppleWebKit/605.1.15 (KHTML, like Gecko) Version/15.3 Safari/605.1.15",1440,900,1439,721,"main",1490452,195,18,17,"HE","relative_first","relative","Extreme","Harder than Reference","F","j","safeDeck","riskyDeck",0,28,14,"right",1,0,32,"present","riskyDeck",726,815,1,0
"0d478aphxuc7",702.393939393939,365.345379489732,13475,"25/03/2022@13:00:53","Mozilla/5.0 (Macintosh; Intel Mac OS X 10_15_7) AppleWebKit/605.1.15 (KHTML, like Gecko) Version/15.3 Safari/605.1.15",1440,900,1439,721,"main",1490452,196,18,17,"EE","relative_first","relative","Extreme","Easier than Reference","D","k","riskyDeck","safeDeck",-14,0,-7,"left",1,0,18,"absent","riskyDeck",472,818,-1,0
"0d478aphxuc7",702.393939393939,365.345379489732,13475,"25/03/2022@13:00:53","Mozilla/5.0 (Macintosh; Intel Mac OS X 10_15_7) AppleWebKit/605.1.15 (KHTML, like Gecko) Version/15.3 Safari/605.1.15",1440,900,1439,721,"main",1490452,197,18,17,"EE","relative_first","relative","Extreme","Easier than Reference","F","j","riskyDeck","safeDeck",-14,0,-7,"right",0,0,25,"present","safeDeck",501,1039,1,1
"0d478aphxuc7",702.393939393939,365.345379489732,13475,"25/03/2022@13:00:53","Mozilla/5.0 (Macintosh; Intel Mac OS X 10_15_7) AppleWebKit/605.1.15 (KHTML, like Gecko) Version/15.3 Safari/605.1.15",1440,900,1439,721,"main",1490452,198,18,17,"HE","relative_first","relative","Extreme","Harder than Reference","D","k","safeDeck","riskyDeck",28,0,14,"left",0,0,46,"absent","safeDeck",350,978,-1,1
"0d478aphxuc7",702.393939393939,365.345379489732,13475,"25/03/2022@13:00:53","Mozilla/5.0 (Macintosh; Intel Mac OS X 10_15_7) AppleWebKit/605.1.15 (KHTML, like Gecko) Version/15.3 Safari/605.1.15",1440,900,1439,721,"main",1490452,199,18,17,"EM","relative_first","relative","Moderate","Easier than Reference","D","k","riskyDeck","safeDeck",0,-28,-14,"left",1,0,32,"absent","riskyDeck",678,843,-1,0
"0d478aphxuc7",702.393939393939,365.345379489732,13475,"25/03/2022@13:00:53","Mozilla/5.0 (Macintosh; Intel Mac OS X 10_15_7) AppleWebKit/605.1.15 (KHTML, like Gecko) Version/15.3 Safari/605.1.15",1440,900,1439,721,"main",1490452,200,18,17,"HM","relative_first","relative","Moderate","Harder than Reference","F","j","riskyDeck","safeDeck",14,0,7,"right",0,0,39,"present","safeDeck",630,1578,1,1
"0d478aphxuc7",702.393939393939,365.345379489732,13475,"25/03/2022@13:00:53","Mozilla/5.0 (Macintosh; Intel Mac OS X 10_15_7) AppleWebKit/605.1.15 (KHTML, like Gecko) Version/15.3 Safari/605.1.15",1440,900,1439,721,"main",1490452,201,18,17,"EE","relative_first","relative","Extreme","Easier than Reference","D","j","safeDeck","riskyDeck",0,-14,-7,"left",0,1,25,"absent","safeDeck",508,1151,-1,1
"0d478aphxuc7",702.393939393939,365.345379489732,13475,"25/03/2022@13:00:53","Mozilla/5.0 (Macintosh; Intel Mac OS X 10_15_7) AppleWebKit/605.1.15 (KHTML, like Gecko) Version/15.3 Safari/605.1.15",1440,900,1439,721,"main",1490452,202,19,17,"EM","relative_first","relative","Moderate","Easier than Reference","D","j","riskyDeck","safeDeck",-28,0,-14,"left",1,0,4,"present","riskyDeck",798,816,-1,0
"0d478aphxuc7",702.393939393939,365.345379489732,13475,"25/03/2022@13:00:53","Mozilla/5.0 (Macintosh; Intel Mac OS X 10_15_7) AppleWebKit/605.1.15 (KHTML, like Gecko) Version/15.3 Safari/605.1.15",1440,900,1439,721,"main",1490452,203,19,17,"HE","relative_first","relative","Extreme","Harder than Reference","F","k","riskyDeck","safeDeck",28,0,14,"right",0,0,46,"absent","safeDeck",519,1295,1,1
"0d478aphxuc7",702.393939393939,365.345379489732,13475,"25/03/2022@13:00:53","Mozilla/5.0 (Macintosh; Intel Mac OS X 10_15_7) AppleWebKit/605.1.15 (KHTML, like Gecko) Version/15.3 Safari/605.1.15",1440,900,1439,721,"main",1490452,204,19,17,"HM","relative_first","relative","Moderate","Harder than Reference","F","k","safeDeck","riskyDeck",0,14,7,"right",1,0,32,"absent","riskyDeck",684,969,1,0
"0d478aphxuc7",702.393939393939,365.345379489732,13475,"25/03/2022@13:00:53","Mozilla/5.0 (Macintosh; Intel Mac OS X 10_15_7) AppleWebKit/605.1.15 (KHTML, like Gecko) Version/15.3 Safari/605.1.15",1440,900,1439,721,"main",1490452,205,19,17,"EM","relative_first","relative","Moderate","Easier than Reference","D","j","safeDeck","riskyDeck",0,-28,-14,"left",0,0,18,"present","safeDeck",592,1031,-1,1
"0d478aphxuc7",702.393939393939,365.345379489732,13475,"25/03/2022@13:00:53","Mozilla/5.0 (Macintosh; Intel Mac OS X 10_15_7) AppleWebKit/605.1.15 (KHTML, like Gecko) Version/15.3 Safari/605.1.15",1440,900,1439,721,"main",1490452,206,19,17,"HE","relative_first","relative","Extreme","Harder than Reference","D","k","riskyDeck","safeDeck",28,0,14,"left",1,1,60,"present","riskyDeck",908,1622,-1,0
"0d478aphxuc7",702.393939393939,365.345379489732,13475,"25/03/2022@13:00:53","Mozilla/5.0 (Macintosh; Intel Mac OS X 10_15_7) AppleWebKit/605.1.15 (KHTML, like Gecko) Version/15.3 Safari/605.1.15",1440,900,1439,721,"main",1490452,207,19,17,"HM","relative_first","relative","Moderate","Harder than Reference","D","k","safeDeck","riskyDeck",0,14,7,"left",0,0,39,"absent","safeDeck",405,1528,-1,1
"0d478aphxuc7",702.393939393939,365.345379489732,13475,"25/03/2022@13:00:53","Mozilla/5.0 (Macintosh; Intel Mac OS X 10_15_7) AppleWebKit/605.1.15 (KHTML, like Gecko) Version/15.3 Safari/605.1.15",1440,900,1439,721,"main",1490452,208,19,17,"EE","relative_first","relative","Extreme","Easier than Reference","F","k","riskyDeck","safeDeck",0,-14,-7,"right",0,0,25,"absent","safeDeck",344,814,1,1
"0d478aphxuc7",702.393939393939,365.345379489732,13475,"25/03/2022@13:00:53","Mozilla/5.0 (Macintosh; Intel Mac OS X 10_15_7) AppleWebKit/605.1.15 (KHTML, like Gecko) Version/15.3 Safari/605.1.15",1440,900,1439,721,"main",1490452,209,19,17,"EE","relative_first","relative","Extreme","Easier than Reference","D","k","safeDeck","riskyDeck",0,-14,-7,"left",0,0,25,"absent","safeDeck",378,936,-1,1
"0d478aphxuc7",702.393939393939,365.345379489732,13475,"25/03/2022@13:00:53","Mozilla/5.0 (Macintosh; Intel Mac OS X 10_15_7) AppleWebKit/605.1.15 (KHTML, like Gecko) Version/15.3 Safari/605.1.15",1440,900,1439,721,"main",1490452,210,19,17,"EM","relative_first","relative","Moderate","Easier than Reference","F","k","riskyDeck","safeDeck",-28,0,-14,"right",0,0,18,"absent","safeDeck",504,1218,1,1
"0d478aphxuc7",702.393939393939,365.345379489732,13475,"25/03/2022@13:00:53","Mozilla/5.0 (Macintosh; Intel Mac OS X 10_15_7) AppleWebKit/605.1.15 (KHTML, like Gecko) Version/15.3 Safari/605.1.15",1440,900,1439,721,"main",1490452,211,19,17,"HE","relative_first","relative","Extreme","Harder than Reference","D","k","safeDeck","riskyDeck",0,28,14,"left",0,1,46,"present","safeDeck",361,873,-1,1
"0d478aphxuc7",702.393939393939,365.345379489732,13475,"25/03/2022@13:00:53","Mozilla/5.0 (Macintosh; Intel Mac OS X 10_15_7) AppleWebKit/605.1.15 (KHTML, like Gecko) Version/15.3 Safari/605.1.15",1440,900,1439,721,"main",1490452,212,19,18,"HM","relative_first","relative","Moderate","Harder than Reference","F","k","safeDeck","riskyDeck",0,14,7,"right",1,0,46,"absent","riskyDeck",530,1620,1,0
"0d478aphxuc7",702.393939393939,365.345379489732,13475,"25/03/2022@13:00:53","Mozilla/5.0 (Macintosh; Intel Mac OS X 10_15_7) AppleWebKit/605.1.15 (KHTML, like Gecko) Version/15.3 Safari/605.1.15",1440,900,1439,721,"main",1490452,214,19,18,"EM","relative_first","relative","Moderate","Easier than Reference","F","k","riskyDeck","safeDeck",-28,0,-14,"right",0,0,18,"absent","safeDeck",350,1183,1,1
"0d478aphxuc7",702.393939393939,365.345379489732,13475,"25/03/2022@13:00:53","Mozilla/5.0 (Macintosh; Intel Mac OS X 10_15_7) AppleWebKit/605.1.15 (KHTML, like Gecko) Version/15.3 Safari/605.1.15",1440,900,1439,721,"main",1490452,215,19,18,"EE","relative_first","relative","Extreme","Easier than Reference","D","j","riskyDeck","safeDeck",0,-14,-7,"left",1,0,18,"present","riskyDeck",351,818,-1,0
"0d478aphxuc7",702.393939393939,365.345379489732,13475,"25/03/2022@13:00:53","Mozilla/5.0 (Macintosh; Intel Mac OS X 10_15_7) AppleWebKit/605.1.15 (KHTML, like Gecko) Version/15.3 Safari/605.1.15",1440,900,1439,721,"main",1490452,216,19,18,"HE","relative_first","relative","Extreme","Harder than Reference","F","k","safeDeck","riskyDeck",28,0,14,"right",1,0,60,"absent","riskyDeck",806,1597,1,0
"0d478aphxuc7",702.393939393939,365.345379489732,13475,"25/03/2022@13:00:53","Mozilla/5.0 (Macintosh; Intel Mac OS X 10_15_7) AppleWebKit/605.1.15 (KHTML, like Gecko) Version/15.3 Safari/605.1.15",1440,900,1439,721,"main",1490452,217,19,18,"HM","relative_first","relative","Moderate","Harder than Reference","D","k","riskyDeck","safeDeck",0,14,7,"left",1,0,32,"absent","riskyDeck",352,1015,-1,0
"0d478aphxuc7",702.393939393939,365.345379489732,13475,"25/03/2022@13:00:53","Mozilla/5.0 (Macintosh; Intel Mac OS X 10_15_7) AppleWebKit/605.1.15 (KHTML, like Gecko) Version/15.3 Safari/605.1.15",1440,900,1439,721,"main",1490452,218,19,18,"EM","relative_first","relative","Moderate","Easier than Reference","D","k","safeDeck","riskyDeck",0,-28,-14,"left",0,0,18,"absent","safeDeck",356,929,-1,1
"0d478aphxuc7",702.393939393939,365.345379489732,13475,"25/03/2022@13:00:53","Mozilla/5.0 (Macintosh; Intel Mac OS X 10_15_7) AppleWebKit/605.1.15 (KHTML, like Gecko) Version/15.3 Safari/605.1.15",1440,900,1439,721,"main",1490452,219,19,18,"EE","relative_first","relative","Extreme","Easier than Reference","F","j","riskyDeck","safeDeck",-14,0,-7,"right",0,0,25,"present","safeDeck",419,735,1,1
"0d478aphxuc7",702.393939393939,365.345379489732,13475,"25/03/2022@13:00:53","Mozilla/5.0 (Macintosh; Intel Mac OS X 10_15_7) AppleWebKit/605.1.15 (KHTML, like Gecko) Version/15.3 Safari/605.1.15",1440,900,1439,721,"main",1490452,220,20,18,"HE","relative_first","relative","Extreme","Harder than Reference","D","k","safeDeck","riskyDeck",28,0,14,"left",0,0,46,"absent","safeDeck",309,1414,-1,1
"0d478aphxuc7",702.393939393939,365.345379489732,13475,"25/03/2022@13:00:53","Mozilla/5.0 (Macintosh; Intel Mac OS X 10_15_7) AppleWebKit/605.1.15 (KHTML, like Gecko) Version/15.3 Safari/605.1.15",1440,900,1439,721,"main",1490452,222,20,18,"EE","relative_first","relative","Extreme","Easier than Reference","D","j","riskyDeck","safeDeck",0,-14,-7,"left",1,0,18,"present","riskyDeck",346,1276,-1,0
"0d478aphxuc7",702.393939393939,365.345379489732,13475,"25/03/2022@13:00:53","Mozilla/5.0 (Macintosh; Intel Mac OS X 10_15_7) AppleWebKit/605.1.15 (KHTML, like Gecko) Version/15.3 Safari/605.1.15",1440,900,1439,721,"main",1490452,223,20,18,"EM","relative_first","relative","Moderate","Easier than Reference","F","j","safeDeck","riskyDeck",0,-28,-14,"right",1,0,4,"present","riskyDeck",310,689,1,0
"0d478aphxuc7",702.393939393939,365.345379489732,13475,"25/03/2022@13:00:53","Mozilla/5.0 (Macintosh; Intel Mac OS X 10_15_7) AppleWebKit/605.1.15 (KHTML, like Gecko) Version/15.3 Safari/605.1.15",1440,900,1439,721,"main",1490452,224,20,18,"HM","relative_first","relative","Moderate","Harder than Reference","D","k","riskyDeck","safeDeck",14,0,7,"left",1,1,32,"present","riskyDeck",421,1094,-1,0
"0d478aphxuc7",702.393939393939,365.345379489732,13475,"25/03/2022@13:00:53","Mozilla/5.0 (Macintosh; Intel Mac OS X 10_15_7) AppleWebKit/605.1.15 (KHTML, like Gecko) Version/15.3 Safari/605.1.15",1440,900,1439,721,"main",1490452,225,20,18,"HM","relative_first","relative","Moderate","Harder than Reference","D","j","riskyDeck","safeDeck",14,0,7,"left",1,0,46,"present","riskyDeck",580,1421,-1,0
"0d478aphxuc7",702.393939393939,365.345379489732,13475,"25/03/2022@13:00:53","Mozilla/5.0 (Macintosh; Intel Mac OS X 10_15_7) AppleWebKit/605.1.15 (KHTML, like Gecko) Version/15.3 Safari/605.1.15",1440,900,1439,721,"main",1490452,226,20,18,"EM","relative_first","relative","Moderate","Easier than Reference","F","j","riskyDeck","safeDeck",0,-28,-14,"right",0,0,18,"present","safeDeck",554,808,1,1
"0d478aphxuc7",702.393939393939,365.345379489732,13475,"25/03/2022@13:00:53","Mozilla/5.0 (Macintosh; Intel Mac OS X 10_15_7) AppleWebKit/605.1.15 (KHTML, like Gecko) Version/15.3 Safari/605.1.15",1440,900,1439,721,"main",1490452,227,20,18,"EE","relative_first","relative","Extreme","Easier than Reference","D","j","safeDeck","riskyDeck",-14,0,-7,"left",0,0,25,"present","safeDeck",391,730,-1,1
"0d478aphxuc7",702.393939393939,365.345379489732,13475,"25/03/2022@13:00:53","Mozilla/5.0 (Macintosh; Intel Mac OS X 10_15_7) AppleWebKit/605.1.15 (KHTML, like Gecko) Version/15.3 Safari/605.1.15",1440,900,1439,721,"main",1490452,228,20,19,"HE","relative_first","relative","Extreme","Harder than Reference","F","k","riskyDeck","safeDeck",0,28,14,"right",0,0,46,"absent","safeDeck",334,1017,1,1
"0d478aphxuc7",702.393939393939,365.345379489732,13475,"25/03/2022@13:00:53","Mozilla/5.0 (Macintosh; Intel Mac OS X 10_15_7) AppleWebKit/605.1.15 (KHTML, like Gecko) Version/15.3 Safari/605.1.15",1440,900,1439,721,"main",1490452,229,20,19,"EE","relative_first","relative","Extreme","Easier than Reference","F","k","safeDeck","riskyDeck",0,-14,-7,"right",1,0,32,"absent","riskyDeck",856,1056,1,0
"0d478aphxuc7",702.393939393939,365.345379489732,13475,"25/03/2022@13:00:53","Mozilla/5.0 (Macintosh; Intel Mac OS X 10_15_7) AppleWebKit/605.1.15 (KHTML, like Gecko) Version/15.3 Safari/605.1.15",1440,900,1439,721,"main",1490452,230,20,19,"HE","relative_first","relative","Extreme","Harder than Reference","D","k","riskyDeck","safeDeck",0,28,14,"left",1,0,32,"absent","riskyDeck",436,1133,-1,0
"0d478aphxuc7",702.393939393939,365.345379489732,13475,"25/03/2022@13:00:53","Mozilla/5.0 (Macintosh; Intel Mac OS X 10_15_7) AppleWebKit/605.1.15 (KHTML, like Gecko) Version/15.3 Safari/605.1.15",1440,900,1439,721,"main",1490452,231,20,19,"HM","relative_first","relative","Moderate","Harder than Reference","F","j","safeDeck","riskyDeck",14,0,7,"right",1,0,32,"present","riskyDeck",475,702,1,0
"0d478aphxuc7",702.393939393939,365.345379489732,13475,"25/03/2022@13:00:53","Mozilla/5.0 (Macintosh; Intel Mac OS X 10_15_7) AppleWebKit/605.1.15 (KHTML, like Gecko) Version/15.3 Safari/605.1.15",1440,900,1439,721,"main",1490452,232,20,19,"EM","relative_first","relative","Moderate","Easier than Reference","D","j","safeDeck","riskyDeck",0,-28,-14,"left",0,0,18,"present","safeDeck",446,588,-1,1
"0d478aphxuc7",702.393939393939,365.345379489732,13475,"25/03/2022@13:00:53","Mozilla/5.0 (Macintosh; Intel Mac OS X 10_15_7) AppleWebKit/605.1.15 (KHTML, like Gecko) Version/15.3 Safari/605.1.15",1440,900,1439,721,"main",1490452,233,20,19,"HM","relative_first","relative","Moderate","Harder than Reference","D","k","riskyDeck","safeDeck",0,14,7,"left",1,0,32,"absent","riskyDeck",725,1070,-1,0
"0d478aphxuc7",702.393939393939,365.345379489732,13475,"25/03/2022@13:00:53","Mozilla/5.0 (Macintosh; Intel Mac OS X 10_15_7) AppleWebKit/605.1.15 (KHTML, like Gecko) Version/15.3 Safari/605.1.15",1440,900,1439,721,"main",1490452,234,20,19,"HE","relative_first","relative","Extreme","Harder than Reference","F","j","riskyDeck","safeDeck",0,28,14,"right",0,0,46,"present","safeDeck",645,816,1,1
"0d478aphxuc7",702.393939393939,365.345379489732,13475,"25/03/2022@13:00:53","Mozilla/5.0 (Macintosh; Intel Mac OS X 10_15_7) AppleWebKit/605.1.15 (KHTML, like Gecko) Version/15.3 Safari/605.1.15",1440,900,1439,721,"main",1490452,235,20,19,"EE","relative_first","relative","Extreme","Easier than Reference","D","j","safeDeck","riskyDeck",-14,0,-7,"left",0,0,25,"present","safeDeck",432,669,-1,1
"0d478aphxuc7",702.393939393939,365.345379489732,13475,"25/03/2022@13:00:53","Mozilla/5.0 (Macintosh; Intel Mac OS X 10_15_7) AppleWebKit/605.1.15 (KHTML, like Gecko) Version/15.3 Safari/605.1.15",1440,900,1439,721,"main",1490452,236,20,19,"EM","relative_first","relative","Moderate","Easier than Reference","F","j","safeDeck","riskyDeck",0,-28,-14,"right",1,0,32,"present","riskyDeck",474,796,1,0
"0d478aphxuc7",702.393939393939,365.345379489732,13475,"25/03/2022@13:00:53","Mozilla/5.0 (Macintosh; Intel Mac OS X 10_15_7) AppleWebKit/605.1.15 (KHTML, like Gecko) Version/15.3 Safari/605.1.15",1440,900,1439,721,"main",1490452,237,21,19,"EE","relative_first","relative","Extreme","Easier than Reference","D","k","riskyDeck","safeDeck",-14,0,-7,"left",1,0,32,"absent","riskyDeck",517,1045,-1,0
"0d478aphxuc7",702.393939393939,365.345379489732,13475,"25/03/2022@13:00:53","Mozilla/5.0 (Macintosh; Intel Mac OS X 10_15_7) AppleWebKit/605.1.15 (KHTML, like Gecko) Version/15.3 Safari/605.1.15",1440,900,1439,721,"main",1490452,238,21,19,"HE","relative_first","relative","Extreme","Harder than Reference","F","k","safeDeck","riskyDeck",0,28,14,"right",1,1,60,"present","riskyDeck",616,1024,1,0
"0d478aphxuc7",702.393939393939,365.345379489732,13475,"25/03/2022@13:00:53","Mozilla/5.0 (Macintosh; Intel Mac OS X 10_15_7) AppleWebKit/605.1.15 (KHTML, like Gecko) Version/15.3 Safari/605.1.15",1440,900,1439,721,"main",1490452,239,21,19,"EM","relative_first","relative","Moderate","Easier than Reference","D","k","riskyDeck","safeDeck",-28,0,-14,"left",1,0,4,"absent","riskyDeck",569,627,-1,0
"0d478aphxuc7",702.393939393939,365.345379489732,13475,"25/03/2022@13:00:53","Mozilla/5.0 (Macintosh; Intel Mac OS X 10_15_7) AppleWebKit/605.1.15 (KHTML, like Gecko) Version/15.3 Safari/605.1.15",1440,900,1439,721,"main",1490452,240,21,19,"HM","relative_first","relative","Moderate","Harder than Reference","D","k","safeDeck","riskyDeck",14,0,7,"left",0,0,39,"absent","safeDeck",624,799,-1,1
"0d478aphxuc7",702.393939393939,365.345379489732,13475,"25/03/2022@13:00:53","Mozilla/5.0 (Macintosh; Intel Mac OS X 10_15_7) AppleWebKit/605.1.15 (KHTML, like Gecko) Version/15.3 Safari/605.1.15",1440,900,1439,721,"main",1490452,241,21,19,"HM","relative_first","relative","Moderate","Harder than Reference","D","k","riskyDeck","safeDeck",0,14,7,"left",1,1,46,"present","riskyDeck",653,892,-1,0
"0d478aphxuc7",702.393939393939,365.345379489732,13475,"25/03/2022@13:00:53","Mozilla/5.0 (Macintosh; Intel Mac OS X 10_15_7) AppleWebKit/605.1.15 (KHTML, like Gecko) Version/15.3 Safari/605.1.15",1440,900,1439,721,"main",1490452,242,21,19,"EM","relative_first","relative","Moderate","Easier than Reference","D","j","riskyDeck","safeDeck",-28,0,-14,"left",1,0,4,"present","riskyDeck",462,691,-1,0
"0d478aphxuc7",702.393939393939,365.345379489732,13475,"25/03/2022@13:00:53","Mozilla/5.0 (Macintosh; Intel Mac OS X 10_15_7) AppleWebKit/605.1.15 (KHTML, like Gecko) Version/15.3 Safari/605.1.15",1440,900,1439,721,"main",1490452,243,21,19,"HE","relative_first","relative","Extreme","Harder than Reference","F","k","safeDeck","riskyDeck",28,0,14,"right",1,0,32,"absent","riskyDeck",875,804,1,0
"0d478aphxuc7",702.393939393939,365.345379489732,13475,"25/03/2022@13:00:53","Mozilla/5.0 (Macintosh; Intel Mac OS X 10_15_7) AppleWebKit/605.1.15 (KHTML, like Gecko) Version/15.3 Safari/605.1.15",1440,900,1439,721,"main",1490452,244,21,19,"EE","relative_first","relative","Extreme","Easier than Reference","D","j","safeDeck","riskyDeck",-14,0,-7,"left",0,0,25,"present","safeDeck",715,786,-1,1
"0d478aphxuc7",702.393939393939,365.345379489732,13475,"25/03/2022@13:00:53","Mozilla/5.0 (Macintosh; Intel Mac OS X 10_15_7) AppleWebKit/605.1.15 (KHTML, like Gecko) Version/15.3 Safari/605.1.15",1440,900,1439,721,"main",1490452,245,21,19,"HE","relative_first","relative","Extreme","Harder than Reference","F","j","safeDeck","riskyDeck",28,0,14,"right",1,0,60,"present","riskyDeck",631,1278,1,0
"0d478aphxuc7",702.393939393939,365.345379489732,13475,"25/03/2022@13:00:53","Mozilla/5.0 (Macintosh; Intel Mac OS X 10_15_7) AppleWebKit/605.1.15 (KHTML, like Gecko) Version/15.3 Safari/605.1.15",1440,900,1439,721,"main",1490452,246,21,19,"HM","relative_first","relative","Moderate","Harder than Reference","D","j","riskyDeck","safeDeck",0,14,7,"left",1,0,46,"present","riskyDeck",611,1263,-1,0
"0d478aphxuc7",702.393939393939,365.345379489732,13475,"25/03/2022@13:00:53","Mozilla/5.0 (Macintosh; Intel Mac OS X 10_15_7) AppleWebKit/605.1.15 (KHTML, like Gecko) Version/15.3 Safari/605.1.15",1440,900,1439,721,"main",1490452,247,21,20,"EM","relative_first","relative","Moderate","Easier than Reference","F","j","safeDeck","riskyDeck",-28,0,-14,"right",1,0,32,"present","riskyDeck",783,1301,1,0
"0d478aphxuc7",702.393939393939,365.345379489732,13475,"25/03/2022@13:00:53","Mozilla/5.0 (Macintosh; Intel Mac OS X 10_15_7) AppleWebKit/605.1.15 (KHTML, like Gecko) Version/15.3 Safari/605.1.15",1440,900,1439,721,"main",1490452,248,21,20,"EE","relative_first","relative","Extreme","Easier than Reference","D","k","riskyDeck","safeDeck",-14,0,-7,"left",1,0,32,"absent","riskyDeck",541,1629,-1,0
"0d478aphxuc7",702.393939393939,365.345379489732,13475,"25/03/2022@13:00:53","Mozilla/5.0 (Macintosh; Intel Mac OS X 10_15_7) AppleWebKit/605.1.15 (KHTML, like Gecko) Version/15.3 Safari/605.1.15",1440,900,1439,721,"main",1490452,249,21,20,"EE","relative_first","relative","Extreme","Easier than Reference","D","k","riskyDeck","safeDeck",0,-14,-7,"left",1,0,32,"absent","riskyDeck",531,1184,-1,0
"0d478aphxuc7",702.393939393939,365.345379489732,13475,"25/03/2022@13:00:53","Mozilla/5.0 (Macintosh; Intel Mac OS X 10_15_7) AppleWebKit/605.1.15 (KHTML, like Gecko) Version/15.3 Safari/605.1.15",1440,900,1439,721,"main",1490452,250,21,20,"HM","relative_first","relative","Moderate","Harder than Reference","D","k","riskyDeck","safeDeck",14,0,7,"left",1,0,32,"absent","riskyDeck",389,1035,-1,0
"0d478aphxuc7",702.393939393939,365.345379489732,13475,"25/03/2022@13:00:53","Mozilla/5.0 (Macintosh; Intel Mac OS X 10_15_7) AppleWebKit/605.1.15 (KHTML, like Gecko) Version/15.3 Safari/605.1.15",1440,900,1439,721,"main",1490452,251,21,20,"HE","relative_first","relative","Extreme","Harder than Reference","F","k","safeDeck","riskyDeck",0,28,14,"right",1,0,60,"absent","riskyDeck",717,902,1,0
"0d478aphxuc7",702.393939393939,365.345379489732,13475,"25/03/2022@13:00:53","Mozilla/5.0 (Macintosh; Intel Mac OS X 10_15_7) AppleWebKit/605.1.15 (KHTML, like Gecko) Version/15.3 Safari/605.1.15",1440,900,1439,721,"main",1490452,252,21,20,"EM","relative_first","relative","Moderate","Easier than Reference","D","j","riskyDeck","safeDeck",0,-28,-14,"left",1,0,4,"present","riskyDeck",459,548,-1,0
"0d478aphxuc7",702.393939393939,365.345379489732,13475,"25/03/2022@13:00:53","Mozilla/5.0 (Macintosh; Intel Mac OS X 10_15_7) AppleWebKit/605.1.15 (KHTML, like Gecko) Version/15.3 Safari/605.1.15",1440,900,1439,721,"main",1490452,253,21,20,"HM","relative_first","relative","Moderate","Harder than Reference","D","j","riskyDeck","safeDeck",0,14,7,"left",1,0,32,"present","riskyDeck",716,1298,-1,0
"0d478aphxuc7",702.393939393939,365.345379489732,13475,"25/03/2022@13:00:53","Mozilla/5.0 (Macintosh; Intel Mac OS X 10_15_7) AppleWebKit/605.1.15 (KHTML, like Gecko) Version/15.3 Safari/605.1.15",1440,900,1439,721,"main",1490452,254,22,20,"EM","relative_first","relative","Moderate","Easier than Reference","D","k","safeDeck","riskyDeck",0,-28,-14,"left",0,0,18,"absent","safeDeck",539,1427,-1,1
"0d478aphxuc7",702.393939393939,365.345379489732,13475,"25/03/2022@13:00:53","Mozilla/5.0 (Macintosh; Intel Mac OS X 10_15_7) AppleWebKit/605.1.15 (KHTML, like Gecko) Version/15.3 Safari/605.1.15",1440,900,1439,721,"main",1490452,255,22,20,"HE","relative_first","relative","Extreme","Harder than Reference","F","k","safeDeck","riskyDeck",28,0,14,"right",1,0,32,"absent","riskyDeck",645,996,1,0
"0d478aphxuc7",702.393939393939,365.345379489732,13475,"25/03/2022@13:00:53","Mozilla/5.0 (Macintosh; Intel Mac OS X 10_15_7) AppleWebKit/605.1.15 (KHTML, like Gecko) Version/15.3 Safari/605.1.15",1440,900,1439,721,"main",1490452,256,22,20,"EE","relative_first","relative","Extreme","Easier than Reference","D","k","riskyDeck","safeDeck",-14,0,-7,"left",1,0,18,"absent","riskyDeck",455,825,-1,0
"0d478aphxuc7",702.393939393939,365.345379489732,13475,"25/03/2022@13:00:53","Mozilla/5.0 (Macintosh; Intel Mac OS X 10_15_7) AppleWebKit/605.1.15 (KHTML, like Gecko) Version/15.3 Safari/605.1.15",1440,900,1439,721,"main",1490452,257,22,20,"HM","relative_first","relative","Moderate","Harder than Reference","D","k","riskyDeck","safeDeck",14,0,7,"left",1,0,32,"absent","riskyDeck",592,990,-1,0
"0d478aphxuc7",702.393939393939,365.345379489732,13475,"25/03/2022@13:00:53","Mozilla/5.0 (Macintosh; Intel Mac OS X 10_15_7) AppleWebKit/605.1.15 (KHTML, like Gecko) Version/15.3 Safari/605.1.15",1440,900,1439,721,"main",1490452,258,22,20,"HE","relative_first","relative","Extreme","Harder than Reference","F","k","safeDeck","riskyDeck",28,0,14,"right",1,1,60,"present","riskyDeck",695,1340,1,0
"0d478aphxuc7",702.393939393939,365.345379489732,13475,"25/03/2022@13:00:53","Mozilla/5.0 (Macintosh; Intel Mac OS X 10_15_7) AppleWebKit/605.1.15 (KHTML, like Gecko) Version/15.3 Safari/605.1.15",1440,900,1439,721,"main",1490452,259,22,20,"EM","relative_first","relative","Moderate","Easier than Reference","D","j","safeDeck","riskyDeck",-28,0,-14,"left",0,0,18,"present","safeDeck",430,742,-1,1
"0d478aphxuc7",702.393939393939,365.345379489732,13475,"25/03/2022@13:00:53","Mozilla/5.0 (Macintosh; Intel Mac OS X 10_15_7) AppleWebKit/605.1.15 (KHTML, like Gecko) Version/15.3 Safari/605.1.15",1440,900,1439,721,"main",1490452,260,22,20,"EE","relative_first","relative","Extreme","Easier than Reference","D","j","riskyDeck","safeDeck",-14,0,-7,"left",1,0,18,"present","riskyDeck",496,647,-1,0
"0d478aphxuc7",702.393939393939,365.345379489732,13475,"25/03/2022@13:00:53","Mozilla/5.0 (Macintosh; Intel Mac OS X 10_15_7) AppleWebKit/605.1.15 (KHTML, like Gecko) Version/15.3 Safari/605.1.15",1440,900,1439,721,"main",1490452,261,22,20,"EM","relative_first","relative","Moderate","Easier than Reference","D","j","riskyDeck","safeDeck",-28,0,-14,"left",1,0,4,"present","riskyDeck",374,572,-1,0
"0d478aphxuc7",702.393939393939,365.345379489732,13475,"25/03/2022@13:00:53","Mozilla/5.0 (Macintosh; Intel Mac OS X 10_15_7) AppleWebKit/605.1.15 (KHTML, like Gecko) Version/15.3 Safari/605.1.15",1440,900,1439,721,"main",1490452,262,22,20,"HE","relative_first","relative","Extreme","Harder than Reference","D","k","riskyDeck","safeDeck",28,0,14,"left",1,0,32,"absent","riskyDeck",432,769,-1,0
"0d478aphxuc7",702.393939393939,365.345379489732,13475,"25/03/2022@13:00:53","Mozilla/5.0 (Macintosh; Intel Mac OS X 10_15_7) AppleWebKit/605.1.15 (KHTML, like Gecko) Version/15.3 Safari/605.1.15",1440,900,1439,721,"main",1490452,263,22,20,"HM","relative_first","relative","Moderate","Harder than Reference","D","j","safeDeck","riskyDeck",0,14,7,"left",0,0,39,"present","safeDeck",354,938,-1,1
"0d478aphxuc7",702.393939393939,365.345379489732,13475,"25/03/2022@13:00:53","Mozilla/5.0 (Macintosh; Intel Mac OS X 10_15_7) AppleWebKit/605.1.15 (KHTML, like Gecko) Version/15.3 Safari/605.1.15",1440,900,1439,721,"main",1490452,264,22,20,"EE","relative_first","relative","Extreme","Easier than Reference","D","j","safeDeck","riskyDeck",0,-14,-7,"left",0,0,25,"present","safeDeck",372,675,-1,1
"0d478aphxuc7",702.393939393939,365.345379489732,13475,"25/03/2022@13:00:53","Mozilla/5.0 (Macintosh; Intel Mac OS X 10_15_7) AppleWebKit/605.1.15 (KHTML, like Gecko) Version/15.3 Safari/605.1.15",1440,900,1439,721,"main",1490452,265,22,21,"HE","relative_first","relative","Extreme","Harder than Reference","F","j","safeDeck","riskyDeck",0,28,14,"right",1,0,60,"present","riskyDeck",595,1378,1,0
"0d478aphxuc7",702.393939393939,365.345379489732,13475,"25/03/2022@13:00:53","Mozilla/5.0 (Macintosh; Intel Mac OS X 10_15_7) AppleWebKit/605.1.15 (KHTML, like Gecko) Version/15.3 Safari/605.1.15",1440,900,1439,721,"main",1490452,266,22,21,"HM","relative_first","relative","Moderate","Harder than Reference","D","j","safeDeck","riskyDeck",0,14,7,"left",0,0,39,"present","safeDeck",404,1706,-1,1
