subject,sona_id,curTime,userAgent,screenWidth,screenHeight,windowWidth,windowHeight,phase,phase_run_time,trial,exp_runtime_mins,phase_runtime_mins,condition,counterbalance_condition,current_counterbalance_condition,magnitude,direction,choice_response_key,search_response_key,left_deck_id,right_deck_id,risky_deck_outcome_top,risky_deck_outcome_bottom,safe_deck_outcome,selected_deck_location,selectedRiskyDeck,error,n_stimuli,present_or_absent,chosenDeckId,choice_rt,search_rt
oogjei95b1,13615,19/03/2022@14:13:38,"Mozilla/5.0 (Macintosh; Intel Mac OS X 10_15_7) AppleWebKit/605.1.15 (KHTML, like Gecko) Version/14.1.2 Safari/605.1.15",1440,900,1442,735,main,2006853,1,4,3,HM,relative_first,relative,Moderate,Harder than Reference,F,j,riskyDeck,safeDeck,14,0,7,right,0,0,39,present,safeDeck,1684,2925
oogjei95b1,13615,19/03/2022@14:13:38,"Mozilla/5.0 (Macintosh; Intel Mac OS X 10_15_7) AppleWebKit/605.1.15 (KHTML, like Gecko) Version/14.1.2 Safari/605.1.15",1440,900,1442,735,main,2006853,2,4,3,EE,relative_first,relative,Extreme,Easier than Reference,F,k,safeDeck,riskyDeck,0,-14,-7,right,1,0,32,absent,riskyDeck,1625,3160
oogjei95b1,13615,19/03/2022@14:13:38,"Mozilla/5.0 (Macintosh; Intel Mac OS X 10_15_7) AppleWebKit/605.1.15 (KHTML, like Gecko) Version/14.1.2 Safari/605.1.15",1440,900,1442,735,main,2006853,3,4,3,HE,relative_first,relative,Extreme,Harder than Reference,D,j,riskyDeck,safeDeck,0,28,14,left,1,0,32,present,riskyDeck,3972,1207
oogjei95b1,13615,19/03/2022@14:13:38,"Mozilla/5.0 (Macintosh; Intel Mac OS X 10_15_7) AppleWebKit/605.1.15 (KHTML, like Gecko) Version/14.1.2 Safari/605.1.15",1440,900,1442,735,main,2006853,4,4,3,EM,relative_first,relative,Moderate,Easier than Reference,F,k,riskyDeck,safeDeck,-28,0,-14,right,0,0,18,absent,safeDeck,2727,2146
oogjei95b1,13615,19/03/2022@14:13:38,"Mozilla/5.0 (Macintosh; Intel Mac OS X 10_15_7) AppleWebKit/605.1.15 (KHTML, like Gecko) Version/14.1.2 Safari/605.1.15",1440,900,1442,735,main,2006853,5,4,3,HM,relative_first,relative,Moderate,Harder than Reference,D,j,safeDeck,riskyDeck,14,0,7,left,0,0,39,present,safeDeck,1202,2480
oogjei95b1,13615,19/03/2022@14:13:38,"Mozilla/5.0 (Macintosh; Intel Mac OS X 10_15_7) AppleWebKit/605.1.15 (KHTML, like Gecko) Version/14.1.2 Safari/605.1.15",1440,900,1442,735,main,2006853,6,5,3,EM,relative_first,relative,Moderate,Easier than Reference,D,j,riskyDeck,safeDeck,0,-28,-14,left,1,0,32,present,riskyDeck,8948,1281
oogjei95b1,13615,19/03/2022@14:13:38,"Mozilla/5.0 (Macintosh; Intel Mac OS X 10_15_7) AppleWebKit/605.1.15 (KHTML, like Gecko) Version/14.1.2 Safari/605.1.15",1440,900,1442,735,main,2006853,7,5,3,EE,relative_first,relative,Extreme,Easier than Reference,F,k,safeDeck,riskyDeck,-14,0,-7,right,1,0,18,absent,riskyDeck,1908,2581
oogjei95b1,13615,19/03/2022@14:13:38,"Mozilla/5.0 (Macintosh; Intel Mac OS X 10_15_7) AppleWebKit/605.1.15 (KHTML, like Gecko) Version/14.1.2 Safari/605.1.15",1440,900,1442,735,main,2006853,8,5,3,HE,relative_first,relative,Extreme,Harder than Reference,F,j,safeDeck,riskyDeck,28,0,14,right,1,0,32,present,riskyDeck,1986,3952
oogjei95b1,13615,19/03/2022@14:13:38,"Mozilla/5.0 (Macintosh; Intel Mac OS X 10_15_7) AppleWebKit/605.1.15 (KHTML, like Gecko) Version/14.1.2 Safari/605.1.15",1440,900,1442,735,main,2006853,9,5,4,HM,relative_first,relative,Moderate,Harder than Reference,F,k,riskyDeck,safeDeck,14,0,7,right,0,0,39,absent,safeDeck,4243,3636
oogjei95b1,13615,19/03/2022@14:13:38,"Mozilla/5.0 (Macintosh; Intel Mac OS X 10_15_7) AppleWebKit/605.1.15 (KHTML, like Gecko) Version/14.1.2 Safari/605.1.15",1440,900,1442,735,main,2006853,10,5,4,EM,relative_first,relative,Moderate,Easier than Reference,D,j,riskyDeck,safeDeck,0,-28,-14,left,1,0,4,present,riskyDeck,1281,750
oogjei95b1,13615,19/03/2022@14:13:38,"Mozilla/5.0 (Macintosh; Intel Mac OS X 10_15_7) AppleWebKit/605.1.15 (KHTML, like Gecko) Version/14.1.2 Safari/605.1.15",1440,900,1442,735,main,2006853,11,5,4,HE,relative_first,relative,Extreme,Harder than Reference,F,j,riskyDeck,safeDeck,0,28,14,right,0,0,46,present,safeDeck,1066,3472
oogjei95b1,13615,19/03/2022@14:13:38,"Mozilla/5.0 (Macintosh; Intel Mac OS X 10_15_7) AppleWebKit/605.1.15 (KHTML, like Gecko) Version/14.1.2 Safari/605.1.15",1440,900,1442,735,main,2006853,12,5,4,EE,relative_first,relative,Extreme,Easier than Reference,F,k,safeDeck,riskyDeck,-14,0,-7,right,1,1,32,present,riskyDeck,1742,2502
oogjei95b1,13615,19/03/2022@14:13:38,"Mozilla/5.0 (Macintosh; Intel Mac OS X 10_15_7) AppleWebKit/605.1.15 (KHTML, like Gecko) Version/14.1.2 Safari/605.1.15",1440,900,1442,735,main,2006853,13,5,4,EM,relative_first,relative,Moderate,Easier than Reference,D,k,riskyDeck,safeDeck,-28,0,-14,left,1,0,32,absent,riskyDeck,705,5846
oogjei95b1,13615,19/03/2022@14:13:38,"Mozilla/5.0 (Macintosh; Intel Mac OS X 10_15_7) AppleWebKit/605.1.15 (KHTML, like Gecko) Version/14.1.2 Safari/605.1.15",1440,900,1442,735,main,2006853,14,5,4,HE,relative_first,relative,Extreme,Harder than Reference,F,j,safeDeck,riskyDeck,0,28,14,right,1,0,32,present,riskyDeck,2944,2762
oogjei95b1,13615,19/03/2022@14:13:38,"Mozilla/5.0 (Macintosh; Intel Mac OS X 10_15_7) AppleWebKit/605.1.15 (KHTML, like Gecko) Version/14.1.2 Safari/605.1.15",1440,900,1442,735,main,2006853,15,6,4,HM,relative_first,relative,Moderate,Harder than Reference,F,j,riskyDeck,safeDeck,14,0,7,right,0,0,39,present,safeDeck,2437,1442
oogjei95b1,13615,19/03/2022@14:13:38,"Mozilla/5.0 (Macintosh; Intel Mac OS X 10_15_7) AppleWebKit/605.1.15 (KHTML, like Gecko) Version/14.1.2 Safari/605.1.15",1440,900,1442,735,main,2006853,16,6,4,EE,relative_first,relative,Extreme,Easier than Reference,D,k,riskyDeck,safeDeck,-14,0,-7,left,1,0,18,absent,riskyDeck,1155,3466
oogjei95b1,13615,19/03/2022@14:13:38,"Mozilla/5.0 (Macintosh; Intel Mac OS X 10_15_7) AppleWebKit/605.1.15 (KHTML, like Gecko) Version/14.1.2 Safari/605.1.15",1440,900,1442,735,main,2006853,17,6,4,EM,relative_first,relative,Moderate,Easier than Reference,F,j,safeDeck,riskyDeck,-28,0,-14,right,1,0,4,present,riskyDeck,1779,1282
oogjei95b1,13615,19/03/2022@14:13:38,"Mozilla/5.0 (Macintosh; Intel Mac OS X 10_15_7) AppleWebKit/605.1.15 (KHTML, like Gecko) Version/14.1.2 Safari/605.1.15",1440,900,1442,735,main,2006853,18,6,4,EE,relative_first,relative,Extreme,Easier than Reference,F,k,riskyDeck,safeDeck,-14,0,-7,right,0,0,25,absent,safeDeck,1565,3233
oogjei95b1,13615,19/03/2022@14:13:38,"Mozilla/5.0 (Macintosh; Intel Mac OS X 10_15_7) AppleWebKit/605.1.15 (KHTML, like Gecko) Version/14.1.2 Safari/605.1.15",1440,900,1442,735,main,2006853,19,6,5,HE,relative_first,relative,Extreme,Harder than Reference,F,k,riskyDeck,safeDeck,0,28,14,right,0,0,46,absent,safeDeck,1744,7531
oogjei95b1,13615,19/03/2022@14:13:38,"Mozilla/5.0 (Macintosh; Intel Mac OS X 10_15_7) AppleWebKit/605.1.15 (KHTML, like Gecko) Version/14.1.2 Safari/605.1.15",1440,900,1442,735,main,2006853,20,6,5,HM,relative_first,relative,Moderate,Harder than Reference,D,j,riskyDeck,safeDeck,14,0,7,left,1,0,32,present,riskyDeck,1511,1978
oogjei95b1,13615,19/03/2022@14:13:38,"Mozilla/5.0 (Macintosh; Intel Mac OS X 10_15_7) AppleWebKit/605.1.15 (KHTML, like Gecko) Version/14.1.2 Safari/605.1.15",1440,900,1442,735,main,2006853,21,6,5,EE,relative_first,relative,Extreme,Easier than Reference,F,j,safeDeck,riskyDeck,0,-14,-7,right,1,0,18,present,riskyDeck,1630,1218
oogjei95b1,13615,19/03/2022@14:13:38,"Mozilla/5.0 (Macintosh; Intel Mac OS X 10_15_7) AppleWebKit/605.1.15 (KHTML, like Gecko) Version/14.1.2 Safari/605.1.15",1440,900,1442,735,main,2006853,22,6,5,HE,relative_first,relative,Extreme,Harder than Reference,F,k,safeDeck,riskyDeck,28,0,14,right,1,0,60,absent,riskyDeck,1416,5266
oogjei95b1,13615,19/03/2022@14:13:38,"Mozilla/5.0 (Macintosh; Intel Mac OS X 10_15_7) AppleWebKit/605.1.15 (KHTML, like Gecko) Version/14.1.2 Safari/605.1.15",1440,900,1442,735,main,2006853,23,6,5,HM,relative_first,relative,Moderate,Harder than Reference,D,k,safeDeck,riskyDeck,14,0,7,left,0,0,39,absent,safeDeck,957,8600
oogjei95b1,13615,19/03/2022@14:13:38,"Mozilla/5.0 (Macintosh; Intel Mac OS X 10_15_7) AppleWebKit/605.1.15 (KHTML, like Gecko) Version/14.1.2 Safari/605.1.15",1440,900,1442,735,main,2006853,24,7,5,EM,relative_first,relative,Moderate,Easier than Reference,D,k,safeDeck,riskyDeck,-28,0,-14,left,0,0,18,absent,safeDeck,1610,2407
oogjei95b1,13615,19/03/2022@14:13:38,"Mozilla/5.0 (Macintosh; Intel Mac OS X 10_15_7) AppleWebKit/605.1.15 (KHTML, like Gecko) Version/14.1.2 Safari/605.1.15",1440,900,1442,735,main,2006853,25,7,5,EM,relative_first,relative,Moderate,Easier than Reference,D,j,riskyDeck,safeDeck,0,-28,-14,left,1,0,32,present,riskyDeck,1000,1602
oogjei95b1,13615,19/03/2022@14:13:38,"Mozilla/5.0 (Macintosh; Intel Mac OS X 10_15_7) AppleWebKit/605.1.15 (KHTML, like Gecko) Version/14.1.2 Safari/605.1.15",1440,900,1442,735,main,2006853,26,7,5,HE,relative_first,relative,Extreme,Harder than Reference,F,j,riskyDeck,safeDeck,28,0,14,right,0,0,46,present,safeDeck,917,3496
oogjei95b1,13615,19/03/2022@14:13:38,"Mozilla/5.0 (Macintosh; Intel Mac OS X 10_15_7) AppleWebKit/605.1.15 (KHTML, like Gecko) Version/14.1.2 Safari/605.1.15",1440,900,1442,735,main,2006853,27,7,5,EE,relative_first,relative,Extreme,Easier than Reference,F,j,safeDeck,riskyDeck,0,-14,-7,right,1,0,18,present,riskyDeck,1222,2061
oogjei95b1,13615,19/03/2022@14:13:38,"Mozilla/5.0 (Macintosh; Intel Mac OS X 10_15_7) AppleWebKit/605.1.15 (KHTML, like Gecko) Version/14.1.2 Safari/605.1.15",1440,900,1442,735,main,2006853,28,7,6,HM,relative_first,relative,Moderate,Harder than Reference,F,j,safeDeck,riskyDeck,0,14,7,right,1,0,32,present,riskyDeck,5246,1673
oogjei95b1,13615,19/03/2022@14:13:38,"Mozilla/5.0 (Macintosh; Intel Mac OS X 10_15_7) AppleWebKit/605.1.15 (KHTML, like Gecko) Version/14.1.2 Safari/605.1.15",1440,900,1442,735,main,2006853,29,7,6,EE,relative_first,relative,Extreme,Easier than Reference,F,j,safeDeck,riskyDeck,0,-14,-7,right,1,0,18,present,riskyDeck,2792,1137
oogjei95b1,13615,19/03/2022@14:13:38,"Mozilla/5.0 (Macintosh; Intel Mac OS X 10_15_7) AppleWebKit/605.1.15 (KHTML, like Gecko) Version/14.1.2 Safari/605.1.15",1440,900,1442,735,main,2006853,30,7,6,HE,relative_first,relative,Extreme,Harder than Reference,D,j,riskyDeck,safeDeck,0,28,14,left,1,0,60,present,riskyDeck,1325,3544
oogjei95b1,13615,19/03/2022@14:13:38,"Mozilla/5.0 (Macintosh; Intel Mac OS X 10_15_7) AppleWebKit/605.1.15 (KHTML, like Gecko) Version/14.1.2 Safari/605.1.15",1440,900,1442,735,main,2006853,31,7,6,HM,relative_first,relative,Moderate,Harder than Reference,F,j,safeDeck,riskyDeck,14,0,7,right,1,0,46,present,riskyDeck,1386,2898
oogjei95b1,13615,19/03/2022@14:13:38,"Mozilla/5.0 (Macintosh; Intel Mac OS X 10_15_7) AppleWebKit/605.1.15 (KHTML, like Gecko) Version/14.1.2 Safari/605.1.15",1440,900,1442,735,main,2006853,32,7,6,EM,relative_first,relative,Moderate,Easier than Reference,F,j,safeDeck,riskyDeck,0,-28,-14,right,1,0,32,present,riskyDeck,1138,1537
oogjei95b1,13615,19/03/2022@14:13:38,"Mozilla/5.0 (Macintosh; Intel Mac OS X 10_15_7) AppleWebKit/605.1.15 (KHTML, like Gecko) Version/14.1.2 Safari/605.1.15",1440,900,1442,735,main,2006853,33,7,6,EM,relative_first,relative,Moderate,Easier than Reference,F,j,safeDeck,riskyDeck,-28,0,-14,right,1,0,32,present,riskyDeck,924,2547
oogjei95b1,13615,19/03/2022@14:13:38,"Mozilla/5.0 (Macintosh; Intel Mac OS X 10_15_7) AppleWebKit/605.1.15 (KHTML, like Gecko) Version/14.1.2 Safari/605.1.15",1440,900,1442,735,main,2006853,34,8,6,HM,relative_first,relative,Moderate,Harder than Reference,F,k,safeDeck,riskyDeck,14,0,7,right,1,0,46,absent,riskyDeck,1061,5399
oogjei95b1,13615,19/03/2022@14:13:38,"Mozilla/5.0 (Macintosh; Intel Mac OS X 10_15_7) AppleWebKit/605.1.15 (KHTML, like Gecko) Version/14.1.2 Safari/605.1.15",1440,900,1442,735,main,2006853,35,8,6,EE,relative_first,relative,Extreme,Easier than Reference,F,k,safeDeck,riskyDeck,0,-14,-7,right,1,0,32,absent,riskyDeck,955,9809
oogjei95b1,13615,19/03/2022@14:13:38,"Mozilla/5.0 (Macintosh; Intel Mac OS X 10_15_7) AppleWebKit/605.1.15 (KHTML, like Gecko) Version/14.1.2 Safari/605.1.15",1440,900,1442,735,main,2006853,36,8,7,HE,relative_first,relative,Extreme,Harder than Reference,F,k,riskyDeck,safeDeck,0,28,14,right,0,1,46,present,safeDeck,2718,9320
oogjei95b1,13615,19/03/2022@14:13:38,"Mozilla/5.0 (Macintosh; Intel Mac OS X 10_15_7) AppleWebKit/605.1.15 (KHTML, like Gecko) Version/14.1.2 Safari/605.1.15",1440,900,1442,735,main,2006853,37,8,7,EM,relative_first,relative,Moderate,Easier than Reference,F,j,safeDeck,riskyDeck,-28,0,-14,right,1,0,4,present,riskyDeck,1228,591
oogjei95b1,13615,19/03/2022@14:13:38,"Mozilla/5.0 (Macintosh; Intel Mac OS X 10_15_7) AppleWebKit/605.1.15 (KHTML, like Gecko) Version/14.1.2 Safari/605.1.15",1440,900,1442,735,main,2006853,38,8,7,EE,relative_first,relative,Extreme,Easier than Reference,D,k,safeDeck,riskyDeck,0,-14,-7,left,0,0,25,absent,safeDeck,1400,3642
oogjei95b1,13615,19/03/2022@14:13:38,"Mozilla/5.0 (Macintosh; Intel Mac OS X 10_15_7) AppleWebKit/605.1.15 (KHTML, like Gecko) Version/14.1.2 Safari/605.1.15",1440,900,1442,735,main,2006853,39,8,7,HE,relative_first,relative,Extreme,Harder than Reference,F,k,riskyDeck,safeDeck,28,0,14,right,0,0,46,absent,safeDeck,1574,4578
oogjei95b1,13615,19/03/2022@14:13:38,"Mozilla/5.0 (Macintosh; Intel Mac OS X 10_15_7) AppleWebKit/605.1.15 (KHTML, like Gecko) Version/14.1.2 Safari/605.1.15",1440,900,1442,735,main,2006853,40,8,7,HM,relative_first,relative,Moderate,Harder than Reference,D,k,safeDeck,riskyDeck,14,0,7,left,0,0,39,absent,safeDeck,737,4228
oogjei95b1,13615,19/03/2022@14:13:38,"Mozilla/5.0 (Macintosh; Intel Mac OS X 10_15_7) AppleWebKit/605.1.15 (KHTML, like Gecko) Version/14.1.2 Safari/605.1.15",1440,900,1442,735,main,2006853,41,9,7,HM,relative_first,relative,Moderate,Harder than Reference,F,k,safeDeck,riskyDeck,0,14,7,right,1,0,32,absent,riskyDeck,4101,6652
oogjei95b1,13615,19/03/2022@14:13:38,"Mozilla/5.0 (Macintosh; Intel Mac OS X 10_15_7) AppleWebKit/605.1.15 (KHTML, like Gecko) Version/14.1.2 Safari/605.1.15",1440,900,1442,735,main,2006853,42,9,7,HE,relative_first,relative,Extreme,Harder than Reference,F,k,safeDeck,riskyDeck,28,0,14,right,1,0,32,absent,riskyDeck,1524,4791
oogjei95b1,13615,19/03/2022@14:13:38,"Mozilla/5.0 (Macintosh; Intel Mac OS X 10_15_7) AppleWebKit/605.1.15 (KHTML, like Gecko) Version/14.1.2 Safari/605.1.15",1440,900,1442,735,main,2006853,43,9,8,EM,relative_first,relative,Moderate,Easier than Reference,F,k,safeDeck,riskyDeck,0,-28,-14,right,1,0,32,absent,riskyDeck,2194,4174
oogjei95b1,13615,19/03/2022@14:13:38,"Mozilla/5.0 (Macintosh; Intel Mac OS X 10_15_7) AppleWebKit/605.1.15 (KHTML, like Gecko) Version/14.1.2 Safari/605.1.15",1440,900,1442,735,main,2006853,44,9,8,EE,relative_first,relative,Extreme,Easier than Reference,F,k,safeDeck,riskyDeck,0,-14,-7,right,1,0,32,absent,riskyDeck,795,5757
oogjei95b1,13615,19/03/2022@14:13:38,"Mozilla/5.0 (Macintosh; Intel Mac OS X 10_15_7) AppleWebKit/605.1.15 (KHTML, like Gecko) Version/14.1.2 Safari/605.1.15",1440,900,1442,735,main,2006853,45,9,8,HM,relative_first,relative,Moderate,Harder than Reference,F,k,safeDeck,riskyDeck,0,14,7,right,1,0,32,absent,riskyDeck,4381,3817
oogjei95b1,13615,19/03/2022@14:13:38,"Mozilla/5.0 (Macintosh; Intel Mac OS X 10_15_7) AppleWebKit/605.1.15 (KHTML, like Gecko) Version/14.1.2 Safari/605.1.15",1440,900,1442,735,main,2006853,46,9,8,HE,relative_first,relative,Extreme,Harder than Reference,F,k,safeDeck,riskyDeck,0,28,14,right,1,0,32,absent,riskyDeck,902,3053
oogjei95b1,13615,19/03/2022@14:13:38,"Mozilla/5.0 (Macintosh; Intel Mac OS X 10_15_7) AppleWebKit/605.1.15 (KHTML, like Gecko) Version/14.1.2 Safari/605.1.15",1440,900,1442,735,main,2006853,47,9,8,EM,relative_first,relative,Moderate,Easier than Reference,F,j,safeDeck,riskyDeck,-28,0,-14,right,1,0,4,present,riskyDeck,599,586
oogjei95b1,13615,19/03/2022@14:13:38,"Mozilla/5.0 (Macintosh; Intel Mac OS X 10_15_7) AppleWebKit/605.1.15 (KHTML, like Gecko) Version/14.1.2 Safari/605.1.15",1440,900,1442,735,main,2006853,48,10,8,EE,relative_first,relative,Extreme,Easier than Reference,F,j,riskyDeck,safeDeck,0,-14,-7,right,0,0,25,present,safeDeck,719,1885
oogjei95b1,13615,19/03/2022@14:13:38,"Mozilla/5.0 (Macintosh; Intel Mac OS X 10_15_7) AppleWebKit/605.1.15 (KHTML, like Gecko) Version/14.1.2 Safari/605.1.15",1440,900,1442,735,main,2006853,49,10,8,EE,relative_first,relative,Extreme,Easier than Reference,F,k,riskyDeck,safeDeck,-14,0,-7,right,0,0,25,absent,safeDeck,816,2232
oogjei95b1,13615,19/03/2022@14:13:38,"Mozilla/5.0 (Macintosh; Intel Mac OS X 10_15_7) AppleWebKit/605.1.15 (KHTML, like Gecko) Version/14.1.2 Safari/605.1.15",1440,900,1442,735,main,2006853,50,10,8,HE,relative_first,relative,Extreme,Harder than Reference,F,k,riskyDeck,safeDeck,28,0,14,right,0,0,46,absent,safeDeck,885,5315
oogjei95b1,13615,19/03/2022@14:13:38,"Mozilla/5.0 (Macintosh; Intel Mac OS X 10_15_7) AppleWebKit/605.1.15 (KHTML, like Gecko) Version/14.1.2 Safari/605.1.15",1440,900,1442,735,main,2006853,51,10,8,HM,relative_first,relative,Moderate,Harder than Reference,F,j,safeDeck,riskyDeck,0,14,7,right,1,0,32,present,riskyDeck,979,950
oogjei95b1,13615,19/03/2022@14:13:38,"Mozilla/5.0 (Macintosh; Intel Mac OS X 10_15_7) AppleWebKit/605.1.15 (KHTML, like Gecko) Version/14.1.2 Safari/605.1.15",1440,900,1442,735,main,2006853,52,10,9,EM,relative_first,relative,Moderate,Easier than Reference,D,k,riskyDeck,safeDeck,0,-28,-14,left,1,0,32,absent,riskyDeck,1212,7593
oogjei95b1,13615,19/03/2022@14:13:38,"Mozilla/5.0 (Macintosh; Intel Mac OS X 10_15_7) AppleWebKit/605.1.15 (KHTML, like Gecko) Version/14.1.2 Safari/605.1.15",1440,900,1442,735,main,2006853,53,10,9,HE,relative_first,relative,Extreme,Harder than Reference,F,k,riskyDeck,safeDeck,0,28,14,right,0,0,46,absent,safeDeck,1187,11120
oogjei95b1,13615,19/03/2022@14:13:38,"Mozilla/5.0 (Macintosh; Intel Mac OS X 10_15_7) AppleWebKit/605.1.15 (KHTML, like Gecko) Version/14.1.2 Safari/605.1.15",1440,900,1442,735,main,2006853,54,10,9,HM,relative_first,relative,Moderate,Harder than Reference,D,j,riskyDeck,safeDeck,14,0,7,left,1,0,46,present,riskyDeck,1354,1813
oogjei95b1,13615,19/03/2022@14:13:38,"Mozilla/5.0 (Macintosh; Intel Mac OS X 10_15_7) AppleWebKit/605.1.15 (KHTML, like Gecko) Version/14.1.2 Safari/605.1.15",1440,900,1442,735,main,2006853,55,10,9,EE,relative_first,relative,Extreme,Easier than Reference,D,j,riskyDeck,safeDeck,0,-14,-7,left,1,0,18,present,riskyDeck,736,1435
oogjei95b1,13615,19/03/2022@14:13:38,"Mozilla/5.0 (Macintosh; Intel Mac OS X 10_15_7) AppleWebKit/605.1.15 (KHTML, like Gecko) Version/14.1.2 Safari/605.1.15",1440,900,1442,735,main,2006853,56,10,9,EM,relative_first,relative,Moderate,Easier than Reference,F,j,safeDeck,riskyDeck,0,-28,-14,right,1,0,4,present,riskyDeck,1579,821
oogjei95b1,13615,19/03/2022@14:13:38,"Mozilla/5.0 (Macintosh; Intel Mac OS X 10_15_7) AppleWebKit/605.1.15 (KHTML, like Gecko) Version/14.1.2 Safari/605.1.15",1440,900,1442,735,main,2006853,57,10,9,EE,relative_first,relative,Extreme,Easier than Reference,F,j,safeDeck,riskyDeck,0,-14,-7,right,1,0,18,present,riskyDeck,980,816
oogjei95b1,13615,19/03/2022@14:13:38,"Mozilla/5.0 (Macintosh; Intel Mac OS X 10_15_7) AppleWebKit/605.1.15 (KHTML, like Gecko) Version/14.1.2 Safari/605.1.15",1440,900,1442,735,main,2006853,58,11,9,EM,relative_first,relative,Moderate,Easier than Reference,D,j,riskyDeck,safeDeck,-28,0,-14,left,1,0,32,present,riskyDeck,878,1971
oogjei95b1,13615,19/03/2022@14:13:38,"Mozilla/5.0 (Macintosh; Intel Mac OS X 10_15_7) AppleWebKit/605.1.15 (KHTML, like Gecko) Version/14.1.2 Safari/605.1.15",1440,900,1442,735,main,2006853,59,11,9,HE,relative_first,relative,Extreme,Harder than Reference,F,k,safeDeck,riskyDeck,28,0,14,right,1,0,32,absent,riskyDeck,816,2399
oogjei95b1,13615,19/03/2022@14:13:38,"Mozilla/5.0 (Macintosh; Intel Mac OS X 10_15_7) AppleWebKit/605.1.15 (KHTML, like Gecko) Version/14.1.2 Safari/605.1.15",1440,900,1442,735,main,2006853,60,11,9,HM,relative_first,relative,Moderate,Harder than Reference,F,k,riskyDeck,safeDeck,0,14,7,right,0,0,39,absent,safeDeck,809,5310
oogjei95b1,13615,19/03/2022@14:13:38,"Mozilla/5.0 (Macintosh; Intel Mac OS X 10_15_7) AppleWebKit/605.1.15 (KHTML, like Gecko) Version/14.1.2 Safari/605.1.15",1440,900,1442,735,main,2006853,61,11,10,EM,relative_first,relative,Moderate,Easier than Reference,F,k,riskyDeck,safeDeck,0,-28,-14,right,0,0,18,absent,safeDeck,556,3810
oogjei95b1,13615,19/03/2022@14:13:38,"Mozilla/5.0 (Macintosh; Intel Mac OS X 10_15_7) AppleWebKit/605.1.15 (KHTML, like Gecko) Version/14.1.2 Safari/605.1.15",1440,900,1442,735,main,2006853,62,11,10,EE,relative_first,relative,Extreme,Easier than Reference,D,k,safeDeck,riskyDeck,0,-14,-7,left,0,0,25,absent,safeDeck,1052,2808
oogjei95b1,13615,19/03/2022@14:13:38,"Mozilla/5.0 (Macintosh; Intel Mac OS X 10_15_7) AppleWebKit/605.1.15 (KHTML, like Gecko) Version/14.1.2 Safari/605.1.15",1440,900,1442,735,main,2006853,63,11,10,HM,relative_first,relative,Moderate,Harder than Reference,F,j,riskyDeck,safeDeck,14,0,7,right,0,0,39,present,safeDeck,758,2279
oogjei95b1,13615,19/03/2022@14:13:38,"Mozilla/5.0 (Macintosh; Intel Mac OS X 10_15_7) AppleWebKit/605.1.15 (KHTML, like Gecko) Version/14.1.2 Safari/605.1.15",1440,900,1442,735,main,2006853,64,11,10,HE,relative_first,relative,Extreme,Harder than Reference,F,j,safeDeck,riskyDeck,28,0,14,right,1,0,60,present,riskyDeck,1528,3140
oogjei95b1,13615,19/03/2022@14:13:38,"Mozilla/5.0 (Macintosh; Intel Mac OS X 10_15_7) AppleWebKit/605.1.15 (KHTML, like Gecko) Version/14.1.2 Safari/605.1.15",1440,900,1442,735,main,2006853,65,11,10,HE,relative_first,relative,Extreme,Harder than Reference,F,k,safeDeck,riskyDeck,0,28,14,right,1,0,32,absent,riskyDeck,1072,1369
oogjei95b1,13615,19/03/2022@14:13:38,"Mozilla/5.0 (Macintosh; Intel Mac OS X 10_15_7) AppleWebKit/605.1.15 (KHTML, like Gecko) Version/14.1.2 Safari/605.1.15",1440,900,1442,735,main,2006853,66,11,10,EE,relative_first,relative,Extreme,Easier than Reference,F,j,safeDeck,riskyDeck,0,-14,-7,right,1,0,32,present,riskyDeck,868,1945
oogjei95b1,13615,19/03/2022@14:13:38,"Mozilla/5.0 (Macintosh; Intel Mac OS X 10_15_7) AppleWebKit/605.1.15 (KHTML, like Gecko) Version/14.1.2 Safari/605.1.15",1440,900,1442,735,main,2006853,67,11,10,EM,relative_first,relative,Moderate,Easier than Reference,D,k,riskyDeck,safeDeck,0,-28,-14,left,1,0,4,absent,riskyDeck,865,1106
oogjei95b1,13615,19/03/2022@14:13:38,"Mozilla/5.0 (Macintosh; Intel Mac OS X 10_15_7) AppleWebKit/605.1.15 (KHTML, like Gecko) Version/14.1.2 Safari/605.1.15",1440,900,1442,735,main,2006853,68,11,10,HM,relative_first,relative,Moderate,Harder than Reference,F,k,safeDeck,riskyDeck,0,14,7,right,1,0,32,absent,riskyDeck,1549,7061
oogjei95b1,13615,19/03/2022@14:13:38,"Mozilla/5.0 (Macintosh; Intel Mac OS X 10_15_7) AppleWebKit/605.1.15 (KHTML, like Gecko) Version/14.1.2 Safari/605.1.15",1440,900,1442,735,main,2006853,69,12,10,EE,relative_first,relative,Extreme,Easier than Reference,F,j,safeDeck,riskyDeck,0,-14,-7,right,1,0,32,present,riskyDeck,1034,2075
oogjei95b1,13615,19/03/2022@14:13:38,"Mozilla/5.0 (Macintosh; Intel Mac OS X 10_15_7) AppleWebKit/605.1.15 (KHTML, like Gecko) Version/14.1.2 Safari/605.1.15",1440,900,1442,735,main,2006853,70,12,10,EM,relative_first,relative,Moderate,Easier than Reference,F,k,safeDeck,riskyDeck,0,-28,-14,right,1,0,32,absent,riskyDeck,685,4224
oogjei95b1,13615,19/03/2022@14:13:38,"Mozilla/5.0 (Macintosh; Intel Mac OS X 10_15_7) AppleWebKit/605.1.15 (KHTML, like Gecko) Version/14.1.2 Safari/605.1.15",1440,900,1442,735,main,2006853,71,12,10,HE,relative_first,relative,Extreme,Harder than Reference,D,k,riskyDeck,safeDeck,0,28,14,left,1,0,60,absent,riskyDeck,1495,3908
oogjei95b1,13615,19/03/2022@14:13:38,"Mozilla/5.0 (Macintosh; Intel Mac OS X 10_15_7) AppleWebKit/605.1.15 (KHTML, like Gecko) Version/14.1.2 Safari/605.1.15",1440,900,1442,735,main,2006853,72,12,11,HM,relative_first,relative,Moderate,Harder than Reference,F,j,safeDeck,riskyDeck,14,0,7,right,1,0,32,present,riskyDeck,1090,911
oogjei95b1,13615,19/03/2022@14:13:38,"Mozilla/5.0 (Macintosh; Intel Mac OS X 10_15_7) AppleWebKit/605.1.15 (KHTML, like Gecko) Version/14.1.2 Safari/605.1.15",1440,900,1442,735,main,2006853,73,12,11,EM,relative_first,relative,Moderate,Easier than Reference,F,k,riskyDeck,safeDeck,0,-28,-14,right,0,0,18,absent,safeDeck,690,2114
oogjei95b1,13615,19/03/2022@14:13:38,"Mozilla/5.0 (Macintosh; Intel Mac OS X 10_15_7) AppleWebKit/605.1.15 (KHTML, like Gecko) Version/14.1.2 Safari/605.1.15",1440,900,1442,735,main,2006853,74,12,11,EE,relative_first,relative,Extreme,Easier than Reference,F,k,safeDeck,riskyDeck,0,-14,-7,right,1,0,32,absent,riskyDeck,602,2467
oogjei95b1,13615,19/03/2022@14:13:38,"Mozilla/5.0 (Macintosh; Intel Mac OS X 10_15_7) AppleWebKit/605.1.15 (KHTML, like Gecko) Version/14.1.2 Safari/605.1.15",1440,900,1442,735,main,2006853,75,12,11,HE,relative_first,relative,Extreme,Harder than Reference,F,j,safeDeck,riskyDeck,0,28,14,right,1,0,60,present,riskyDeck,532,1391
oogjei95b1,13615,19/03/2022@14:13:38,"Mozilla/5.0 (Macintosh; Intel Mac OS X 10_15_7) AppleWebKit/605.1.15 (KHTML, like Gecko) Version/14.1.2 Safari/605.1.15",1440,900,1442,735,main,2006853,76,12,11,HM,relative_first,relative,Moderate,Harder than Reference,F,j,safeDeck,riskyDeck,14,0,7,right,1,0,46,present,riskyDeck,633,1015
oogjei95b1,13615,19/03/2022@14:13:38,"Mozilla/5.0 (Macintosh; Intel Mac OS X 10_15_7) AppleWebKit/605.1.15 (KHTML, like Gecko) Version/14.1.2 Safari/605.1.15",1440,900,1442,735,main,2006853,77,12,11,EE,relative_first,relative,Extreme,Easier than Reference,D,k,riskyDeck,safeDeck,0,-14,-7,left,1,0,32,absent,riskyDeck,1306,2632
oogjei95b1,13615,19/03/2022@14:13:38,"Mozilla/5.0 (Macintosh; Intel Mac OS X 10_15_7) AppleWebKit/605.1.15 (KHTML, like Gecko) Version/14.1.2 Safari/605.1.15",1440,900,1442,735,main,2006853,78,12,11,EM,relative_first,relative,Moderate,Easier than Reference,D,j,riskyDeck,safeDeck,-28,0,-14,left,1,0,32,present,riskyDeck,795,1224
oogjei95b1,13615,19/03/2022@14:13:38,"Mozilla/5.0 (Macintosh; Intel Mac OS X 10_15_7) AppleWebKit/605.1.15 (KHTML, like Gecko) Version/14.1.2 Safari/605.1.15",1440,900,1442,735,main,2006853,79,12,11,HM,relative_first,relative,Moderate,Harder than Reference,F,j,safeDeck,riskyDeck,14,0,7,right,1,1,32,absent,riskyDeck,753,2566
oogjei95b1,13615,19/03/2022@14:13:38,"Mozilla/5.0 (Macintosh; Intel Mac OS X 10_15_7) AppleWebKit/605.1.15 (KHTML, like Gecko) Version/14.1.2 Safari/605.1.15",1440,900,1442,735,main,2006853,80,12,11,HE,relative_first,relative,Extreme,Harder than Reference,D,j,riskyDeck,safeDeck,0,28,14,left,1,1,60,absent,riskyDeck,1044,385
oogjei95b1,13615,19/03/2022@14:13:38,"Mozilla/5.0 (Macintosh; Intel Mac OS X 10_15_7) AppleWebKit/605.1.15 (KHTML, like Gecko) Version/14.1.2 Safari/605.1.15",1440,900,1442,735,main,2006853,81,12,11,EM,relative_first,relative,Moderate,Easier than Reference,F,j,riskyDeck,safeDeck,0,-28,-14,right,0,0,18,present,safeDeck,600,963
oogjei95b1,13615,19/03/2022@14:13:38,"Mozilla/5.0 (Macintosh; Intel Mac OS X 10_15_7) AppleWebKit/605.1.15 (KHTML, like Gecko) Version/14.1.2 Safari/605.1.15",1440,900,1442,735,main,2006853,82,13,11,HE,relative_first,relative,Extreme,Harder than Reference,F,j,safeDeck,riskyDeck,0,28,14,right,1,0,32,present,riskyDeck,697,1201
oogjei95b1,13615,19/03/2022@14:13:38,"Mozilla/5.0 (Macintosh; Intel Mac OS X 10_15_7) AppleWebKit/605.1.15 (KHTML, like Gecko) Version/14.1.2 Safari/605.1.15",1440,900,1442,735,main,2006853,83,13,11,EE,relative_first,relative,Extreme,Easier than Reference,F,k,safeDeck,riskyDeck,-14,0,-7,right,1,0,18,absent,riskyDeck,762,2149
oogjei95b1,13615,19/03/2022@14:13:38,"Mozilla/5.0 (Macintosh; Intel Mac OS X 10_15_7) AppleWebKit/605.1.15 (KHTML, like Gecko) Version/14.1.2 Safari/605.1.15",1440,900,1442,735,main,2006853,84,13,11,HM,relative_first,relative,Moderate,Harder than Reference,F,k,safeDeck,riskyDeck,0,14,7,right,1,0,46,absent,riskyDeck,745,3376
oogjei95b1,13615,19/03/2022@14:13:38,"Mozilla/5.0 (Macintosh; Intel Mac OS X 10_15_7) AppleWebKit/605.1.15 (KHTML, like Gecko) Version/14.1.2 Safari/605.1.15",1440,900,1442,735,main,2006853,85,13,11,EM,relative_first,relative,Moderate,Easier than Reference,D,j,riskyDeck,safeDeck,-28,0,-14,left,1,0,4,present,riskyDeck,872,724
oogjei95b1,13615,19/03/2022@14:13:38,"Mozilla/5.0 (Macintosh; Intel Mac OS X 10_15_7) AppleWebKit/605.1.15 (KHTML, like Gecko) Version/14.1.2 Safari/605.1.15",1440,900,1442,735,main,2006853,86,13,12,EE,relative_first,relative,Extreme,Easier than Reference,F,j,riskyDeck,safeDeck,-14,0,-7,right,0,0,25,present,safeDeck,902,771
oogjei95b1,13615,19/03/2022@14:13:38,"Mozilla/5.0 (Macintosh; Intel Mac OS X 10_15_7) AppleWebKit/605.1.15 (KHTML, like Gecko) Version/14.1.2 Safari/605.1.15",1440,900,1442,735,main,2006853,87,13,12,HM,relative_first,relative,Moderate,Harder than Reference,F,j,safeDeck,riskyDeck,14,0,7,right,1,1,46,absent,riskyDeck,708,3932
oogjei95b1,13615,19/03/2022@14:13:38,"Mozilla/5.0 (Macintosh; Intel Mac OS X 10_15_7) AppleWebKit/605.1.15 (KHTML, like Gecko) Version/14.1.2 Safari/605.1.15",1440,900,1442,735,main,2006853,88,13,12,HE,relative_first,relative,Extreme,Harder than Reference,D,j,riskyDeck,safeDeck,0,28,14,left,1,0,60,present,riskyDeck,941,456
oogjei95b1,13615,19/03/2022@14:13:38,"Mozilla/5.0 (Macintosh; Intel Mac OS X 10_15_7) AppleWebKit/605.1.15 (KHTML, like Gecko) Version/14.1.2 Safari/605.1.15",1440,900,1442,735,main,2006853,89,13,12,HM,relative_first,relative,Moderate,Harder than Reference,D,k,riskyDeck,safeDeck,0,14,7,left,1,0,32,absent,riskyDeck,1356,1305
oogjei95b1,13615,19/03/2022@14:13:38,"Mozilla/5.0 (Macintosh; Intel Mac OS X 10_15_7) AppleWebKit/605.1.15 (KHTML, like Gecko) Version/14.1.2 Safari/605.1.15",1440,900,1442,735,main,2006853,90,13,12,HE,relative_first,relative,Extreme,Harder than Reference,F,j,safeDeck,riskyDeck,28,0,14,right,1,0,60,present,riskyDeck,750,1364
oogjei95b1,13615,19/03/2022@14:13:38,"Mozilla/5.0 (Macintosh; Intel Mac OS X 10_15_7) AppleWebKit/605.1.15 (KHTML, like Gecko) Version/14.1.2 Safari/605.1.15",1440,900,1442,735,main,2006853,91,13,12,EM,relative_first,relative,Moderate,Easier than Reference,F,j,safeDeck,riskyDeck,-28,0,-14,right,1,0,32,present,riskyDeck,687,3090
oogjei95b1,13615,19/03/2022@14:13:38,"Mozilla/5.0 (Macintosh; Intel Mac OS X 10_15_7) AppleWebKit/605.1.15 (KHTML, like Gecko) Version/14.1.2 Safari/605.1.15",1440,900,1442,735,main,2006853,92,13,12,EE,relative_first,relative,Extreme,Easier than Reference,F,j,safeDeck,riskyDeck,-14,0,-7,right,1,0,32,present,riskyDeck,704,3204
oogjei95b1,13615,19/03/2022@14:13:38,"Mozilla/5.0 (Macintosh; Intel Mac OS X 10_15_7) AppleWebKit/605.1.15 (KHTML, like Gecko) Version/14.1.2 Safari/605.1.15",1440,900,1442,735,main,2006853,93,13,12,HE,relative_first,relative,Extreme,Harder than Reference,F,k,safeDeck,riskyDeck,28,0,14,right,1,0,60,absent,riskyDeck,939,3623
oogjei95b1,13615,19/03/2022@14:13:38,"Mozilla/5.0 (Macintosh; Intel Mac OS X 10_15_7) AppleWebKit/605.1.15 (KHTML, like Gecko) Version/14.1.2 Safari/605.1.15",1440,900,1442,735,main,2006853,94,14,12,HM,relative_first,relative,Moderate,Harder than Reference,D,j,riskyDeck,safeDeck,0,14,7,left,1,0,46,present,riskyDeck,659,2112
oogjei95b1,13615,19/03/2022@14:13:38,"Mozilla/5.0 (Macintosh; Intel Mac OS X 10_15_7) AppleWebKit/605.1.15 (KHTML, like Gecko) Version/14.1.2 Safari/605.1.15",1440,900,1442,735,main,2006853,95,14,12,EE,relative_first,relative,Extreme,Easier than Reference,D,j,riskyDeck,safeDeck,0,-14,-7,left,1,0,32,present,riskyDeck,589,2667
oogjei95b1,13615,19/03/2022@14:13:38,"Mozilla/5.0 (Macintosh; Intel Mac OS X 10_15_7) AppleWebKit/605.1.15 (KHTML, like Gecko) Version/14.1.2 Safari/605.1.15",1440,900,1442,735,main,2006853,96,14,12,EM,relative_first,relative,Moderate,Easier than Reference,D,j,riskyDeck,safeDeck,-28,0,-14,left,1,1,32,absent,riskyDeck,744,1902
oogjei95b1,13615,19/03/2022@14:13:38,"Mozilla/5.0 (Macintosh; Intel Mac OS X 10_15_7) AppleWebKit/605.1.15 (KHTML, like Gecko) Version/14.1.2 Safari/605.1.15",1440,900,1442,735,main,2006853,97,14,12,EM,relative_first,relative,Moderate,Easier than Reference,D,k,riskyDeck,safeDeck,-28,0,-14,left,1,0,4,absent,riskyDeck,626,786
oogjei95b1,13615,19/03/2022@14:13:38,"Mozilla/5.0 (Macintosh; Intel Mac OS X 10_15_7) AppleWebKit/605.1.15 (KHTML, like Gecko) Version/14.1.2 Safari/605.1.15",1440,900,1442,735,main,2006853,98,14,12,HE,relative_first,relative,Extreme,Harder than Reference,F,j,riskyDeck,safeDeck,0,28,14,right,0,1,46,absent,safeDeck,495,831
oogjei95b1,13615,19/03/2022@14:13:38,"Mozilla/5.0 (Macintosh; Intel Mac OS X 10_15_7) AppleWebKit/605.1.15 (KHTML, like Gecko) Version/14.1.2 Safari/605.1.15",1440,900,1442,735,main,2006853,99,14,13,HM,relative_first,relative,Moderate,Harder than Reference,F,j,safeDeck,riskyDeck,14,0,7,right,1,0,46,present,riskyDeck,576,1109
oogjei95b1,13615,19/03/2022@14:13:38,"Mozilla/5.0 (Macintosh; Intel Mac OS X 10_15_7) AppleWebKit/605.1.15 (KHTML, like Gecko) Version/14.1.2 Safari/605.1.15",1440,900,1442,735,main,2006853,100,14,13,EE,relative_first,relative,Extreme,Easier than Reference,F,j,safeDeck,riskyDeck,0,-14,-7,right,1,0,32,present,riskyDeck,512,1408
oogjei95b1,13615,19/03/2022@14:13:38,"Mozilla/5.0 (Macintosh; Intel Mac OS X 10_15_7) AppleWebKit/605.1.15 (KHTML, like Gecko) Version/14.1.2 Safari/605.1.15",1440,900,1442,735,main,2006853,101,14,13,EM,relative_first,relative,Moderate,Easier than Reference,F,k,riskyDeck,safeDeck,0,-28,-14,right,0,0,18,absent,safeDeck,353,1071
oogjei95b1,13615,19/03/2022@14:13:38,"Mozilla/5.0 (Macintosh; Intel Mac OS X 10_15_7) AppleWebKit/605.1.15 (KHTML, like Gecko) Version/14.1.2 Safari/605.1.15",1440,900,1442,735,main,2006853,102,14,13,EE,relative_first,relative,Extreme,Easier than Reference,F,j,safeDeck,riskyDeck,0,-14,-7,right,1,0,18,present,riskyDeck,354,783
oogjei95b1,13615,19/03/2022@14:13:38,"Mozilla/5.0 (Macintosh; Intel Mac OS X 10_15_7) AppleWebKit/605.1.15 (KHTML, like Gecko) Version/14.1.2 Safari/605.1.15",1440,900,1442,735,main,2006853,103,14,13,HE,relative_first,relative,Extreme,Harder than Reference,D,k,riskyDeck,safeDeck,0,28,14,left,1,0,60,absent,riskyDeck,747,943
oogjei95b1,13615,19/03/2022@14:13:38,"Mozilla/5.0 (Macintosh; Intel Mac OS X 10_15_7) AppleWebKit/605.1.15 (KHTML, like Gecko) Version/14.1.2 Safari/605.1.15",1440,900,1442,735,main,2006853,104,14,13,HM,relative_first,relative,Moderate,Harder than Reference,F,k,safeDeck,riskyDeck,14,0,7,right,1,0,32,absent,riskyDeck,382,3393
oogjei95b1,13615,19/03/2022@14:13:38,"Mozilla/5.0 (Macintosh; Intel Mac OS X 10_15_7) AppleWebKit/605.1.15 (KHTML, like Gecko) Version/14.1.2 Safari/605.1.15",1440,900,1442,735,main,2006853,105,14,13,HE,relative_first,relative,Extreme,Harder than Reference,F,k,safeDeck,riskyDeck,28,0,14,right,1,0,32,absent,riskyDeck,474,3902
oogjei95b1,13615,19/03/2022@14:13:38,"Mozilla/5.0 (Macintosh; Intel Mac OS X 10_15_7) AppleWebKit/605.1.15 (KHTML, like Gecko) Version/14.1.2 Safari/605.1.15",1440,900,1442,735,main,2006853,106,14,13,EE,relative_first,relative,Extreme,Easier than Reference,D,j,riskyDeck,safeDeck,-14,0,-7,left,1,0,18,present,riskyDeck,755,1014
oogjei95b1,13615,19/03/2022@14:13:38,"Mozilla/5.0 (Macintosh; Intel Mac OS X 10_15_7) AppleWebKit/605.1.15 (KHTML, like Gecko) Version/14.1.2 Safari/605.1.15",1440,900,1442,735,main,2006853,107,14,13,HM,relative_first,relative,Moderate,Harder than Reference,F,j,safeDeck,riskyDeck,0,14,7,right,1,0,46,present,riskyDeck,1393,691
oogjei95b1,13615,19/03/2022@14:13:38,"Mozilla/5.0 (Macintosh; Intel Mac OS X 10_15_7) AppleWebKit/605.1.15 (KHTML, like Gecko) Version/14.1.2 Safari/605.1.15",1440,900,1442,735,main,2006853,108,14,13,EM,relative_first,relative,Moderate,Easier than Reference,D,j,riskyDeck,safeDeck,-28,0,-14,left,1,0,4,present,riskyDeck,720,618
oogjei95b1,13615,19/03/2022@14:13:38,"Mozilla/5.0 (Macintosh; Intel Mac OS X 10_15_7) AppleWebKit/605.1.15 (KHTML, like Gecko) Version/14.1.2 Safari/605.1.15",1440,900,1442,735,main,2006853,109,15,13,EM,relative_first,relative,Moderate,Easier than Reference,D,j,riskyDeck,safeDeck,-28,0,-14,left,1,0,4,present,riskyDeck,1109,1534
oogjei95b1,13615,19/03/2022@14:13:38,"Mozilla/5.0 (Macintosh; Intel Mac OS X 10_15_7) AppleWebKit/605.1.15 (KHTML, like Gecko) Version/14.1.2 Safari/605.1.15",1440,900,1442,735,main,2006853,110,15,13,HM,relative_first,relative,Moderate,Harder than Reference,D,j,riskyDeck,safeDeck,0,14,7,left,1,0,32,present,riskyDeck,3365,1194
oogjei95b1,13615,19/03/2022@14:13:38,"Mozilla/5.0 (Macintosh; Intel Mac OS X 10_15_7) AppleWebKit/605.1.15 (KHTML, like Gecko) Version/14.1.2 Safari/605.1.15",1440,900,1442,735,main,2006853,111,15,13,EE,relative_first,relative,Extreme,Easier than Reference,D,k,riskyDeck,safeDeck,0,-14,-7,left,1,0,32,absent,riskyDeck,939,3619
oogjei95b1,13615,19/03/2022@14:13:38,"Mozilla/5.0 (Macintosh; Intel Mac OS X 10_15_7) AppleWebKit/605.1.15 (KHTML, like Gecko) Version/14.1.2 Safari/605.1.15",1440,900,1442,735,main,2006853,112,15,13,HE,relative_first,relative,Extreme,Harder than Reference,F,j,safeDeck,riskyDeck,28,0,14,right,1,1,32,absent,riskyDeck,811,2588
oogjei95b1,13615,19/03/2022@14:13:38,"Mozilla/5.0 (Macintosh; Intel Mac OS X 10_15_7) AppleWebKit/605.1.15 (KHTML, like Gecko) Version/14.1.2 Safari/605.1.15",1440,900,1442,735,main,2006853,113,15,14,HM,relative_first,relative,Moderate,Harder than Reference,D,j,riskyDeck,safeDeck,14,0,7,left,1,0,46,present,riskyDeck,749,1497
oogjei95b1,13615,19/03/2022@14:13:38,"Mozilla/5.0 (Macintosh; Intel Mac OS X 10_15_7) AppleWebKit/605.1.15 (KHTML, like Gecko) Version/14.1.2 Safari/605.1.15",1440,900,1442,735,main,2006853,114,15,14,HE,relative_first,relative,Extreme,Harder than Reference,F,k,safeDeck,riskyDeck,28,0,14,right,1,0,60,absent,riskyDeck,625,6215
oogjei95b1,13615,19/03/2022@14:13:38,"Mozilla/5.0 (Macintosh; Intel Mac OS X 10_15_7) AppleWebKit/605.1.15 (KHTML, like Gecko) Version/14.1.2 Safari/605.1.15",1440,900,1442,735,main,2006853,115,15,14,EM,relative_first,relative,Moderate,Easier than Reference,D,j,safeDeck,riskyDeck,-28,0,-14,left,0,0,18,present,safeDeck,605,822
oogjei95b1,13615,19/03/2022@14:13:38,"Mozilla/5.0 (Macintosh; Intel Mac OS X 10_15_7) AppleWebKit/605.1.15 (KHTML, like Gecko) Version/14.1.2 Safari/605.1.15",1440,900,1442,735,main,2006853,116,15,14,EE,relative_first,relative,Extreme,Easier than Reference,F,k,safeDeck,riskyDeck,-14,0,-7,right,1,0,32,absent,riskyDeck,758,970
oogjei95b1,13615,19/03/2022@14:13:38,"Mozilla/5.0 (Macintosh; Intel Mac OS X 10_15_7) AppleWebKit/605.1.15 (KHTML, like Gecko) Version/14.1.2 Safari/605.1.15",1440,900,1442,735,main,2006853,117,15,14,HM,relative_first,relative,Moderate,Harder than Reference,F,j,safeDeck,riskyDeck,14,0,7,right,1,0,46,present,riskyDeck,608,765
oogjei95b1,13615,19/03/2022@14:13:38,"Mozilla/5.0 (Macintosh; Intel Mac OS X 10_15_7) AppleWebKit/605.1.15 (KHTML, like Gecko) Version/14.1.2 Safari/605.1.15",1440,900,1442,735,main,2006853,118,15,14,HE,relative_first,relative,Extreme,Harder than Reference,F,k,safeDeck,riskyDeck,0,28,14,right,1,0,32,absent,riskyDeck,618,3865
oogjei95b1,13615,19/03/2022@14:13:38,"Mozilla/5.0 (Macintosh; Intel Mac OS X 10_15_7) AppleWebKit/605.1.15 (KHTML, like Gecko) Version/14.1.2 Safari/605.1.15",1440,900,1442,735,main,2006853,119,15,14,EE,relative_first,relative,Extreme,Easier than Reference,F,j,riskyDeck,safeDeck,0,-14,-7,right,0,0,25,present,safeDeck,343,947
oogjei95b1,13615,19/03/2022@14:13:38,"Mozilla/5.0 (Macintosh; Intel Mac OS X 10_15_7) AppleWebKit/605.1.15 (KHTML, like Gecko) Version/14.1.2 Safari/605.1.15",1440,900,1442,735,main,2006853,120,15,14,EM,relative_first,relative,Moderate,Easier than Reference,F,j,safeDeck,riskyDeck,-28,0,-14,right,1,0,4,present,riskyDeck,251,486
oogjei95b1,13615,19/03/2022@14:13:38,"Mozilla/5.0 (Macintosh; Intel Mac OS X 10_15_7) AppleWebKit/605.1.15 (KHTML, like Gecko) Version/14.1.2 Safari/605.1.15",1440,900,1442,735,main,2006853,121,15,14,HE,relative_first,relative,Extreme,Harder than Reference,F,j,riskyDeck,safeDeck,0,28,14,right,0,0,46,present,safeDeck,158,1949
oogjei95b1,13615,19/03/2022@14:13:38,"Mozilla/5.0 (Macintosh; Intel Mac OS X 10_15_7) AppleWebKit/605.1.15 (KHTML, like Gecko) Version/14.1.2 Safari/605.1.15",1440,900,1442,735,main,2006853,122,15,14,EE,relative_first,relative,Extreme,Easier than Reference,F,j,safeDeck,riskyDeck,-14,0,-7,right,1,0,32,present,riskyDeck,552,605
oogjei95b1,13615,19/03/2022@14:13:38,"Mozilla/5.0 (Macintosh; Intel Mac OS X 10_15_7) AppleWebKit/605.1.15 (KHTML, like Gecko) Version/14.1.2 Safari/605.1.15",1440,900,1442,735,main,2006853,123,16,14,EM,relative_first,relative,Moderate,Easier than Reference,F,k,safeDeck,riskyDeck,-28,0,-14,right,1,0,32,absent,riskyDeck,95,1375
oogjei95b1,13615,19/03/2022@14:13:38,"Mozilla/5.0 (Macintosh; Intel Mac OS X 10_15_7) AppleWebKit/605.1.15 (KHTML, like Gecko) Version/14.1.2 Safari/605.1.15",1440,900,1442,735,main,2006853,124,16,14,HM,relative_first,relative,Moderate,Harder than Reference,F,j,safeDeck,riskyDeck,0,14,7,right,1,0,46,present,riskyDeck,95,1221
oogjei95b1,13615,19/03/2022@14:13:38,"Mozilla/5.0 (Macintosh; Intel Mac OS X 10_15_7) AppleWebKit/605.1.15 (KHTML, like Gecko) Version/14.1.2 Safari/605.1.15",1440,900,1442,735,main,2006853,125,16,14,EE,relative_first,relative,Extreme,Easier than Reference,F,k,riskyDeck,safeDeck,0,-14,-7,right,0,1,25,present,safeDeck,187,758
oogjei95b1,13615,19/03/2022@14:13:38,"Mozilla/5.0 (Macintosh; Intel Mac OS X 10_15_7) AppleWebKit/605.1.15 (KHTML, like Gecko) Version/14.1.2 Safari/605.1.15",1440,900,1442,735,main,2006853,126,16,14,EM,relative_first,relative,Moderate,Easier than Reference,F,k,safeDeck,riskyDeck,0,-28,-14,right,1,0,32,absent,riskyDeck,293,2223
oogjei95b1,13615,19/03/2022@14:13:38,"Mozilla/5.0 (Macintosh; Intel Mac OS X 10_15_7) AppleWebKit/605.1.15 (KHTML, like Gecko) Version/14.1.2 Safari/605.1.15",1440,900,1442,735,main,2006853,127,16,14,HE,relative_first,relative,Extreme,Harder than Reference,F,j,safeDeck,riskyDeck,28,0,14,right,1,0,32,present,riskyDeck,135,1442
oogjei95b1,13615,19/03/2022@14:13:38,"Mozilla/5.0 (Macintosh; Intel Mac OS X 10_15_7) AppleWebKit/605.1.15 (KHTML, like Gecko) Version/14.1.2 Safari/605.1.15",1440,900,1442,735,main,2006853,128,16,15,HM,relative_first,relative,Moderate,Harder than Reference,F,k,safeDeck,riskyDeck,0,14,7,right,1,0,46,absent,riskyDeck,235,2334
oogjei95b1,13615,19/03/2022@14:13:38,"Mozilla/5.0 (Macintosh; Intel Mac OS X 10_15_7) AppleWebKit/605.1.15 (KHTML, like Gecko) Version/14.1.2 Safari/605.1.15",1440,900,1442,735,main,2006853,129,16,15,EE,relative_first,relative,Extreme,Easier than Reference,F,j,riskyDeck,safeDeck,-14,0,-7,right,0,0,25,present,safeDeck,95,1911
oogjei95b1,13615,19/03/2022@14:13:38,"Mozilla/5.0 (Macintosh; Intel Mac OS X 10_15_7) AppleWebKit/605.1.15 (KHTML, like Gecko) Version/14.1.2 Safari/605.1.15",1440,900,1442,735,main,2006853,130,16,15,HM,relative_first,relative,Moderate,Harder than Reference,F,k,safeDeck,riskyDeck,0,14,7,right,1,0,32,absent,riskyDeck,536,1614
oogjei95b1,13615,19/03/2022@14:13:38,"Mozilla/5.0 (Macintosh; Intel Mac OS X 10_15_7) AppleWebKit/605.1.15 (KHTML, like Gecko) Version/14.1.2 Safari/605.1.15",1440,900,1442,735,main,2006853,131,16,15,HE,relative_first,relative,Extreme,Harder than Reference,F,k,riskyDeck,safeDeck,28,0,14,right,0,1,46,present,safeDeck,218,2471
oogjei95b1,13615,19/03/2022@14:13:38,"Mozilla/5.0 (Macintosh; Intel Mac OS X 10_15_7) AppleWebKit/605.1.15 (KHTML, like Gecko) Version/14.1.2 Safari/605.1.15",1440,900,1442,735,main,2006853,132,16,15,EM,relative_first,relative,Moderate,Easier than Reference,D,k,riskyDeck,safeDeck,0,-28,-14,left,1,0,32,absent,riskyDeck,1005,1629
oogjei95b1,13615,19/03/2022@14:13:38,"Mozilla/5.0 (Macintosh; Intel Mac OS X 10_15_7) AppleWebKit/605.1.15 (KHTML, like Gecko) Version/14.1.2 Safari/605.1.15",1440,900,1442,735,main,2006853,133,16,15,EE,relative_first,relative,Extreme,Easier than Reference,F,k,riskyDeck,safeDeck,-14,0,-7,right,0,0,25,absent,safeDeck,2550,14190
oogjei95b1,13615,19/03/2022@14:13:38,"Mozilla/5.0 (Macintosh; Intel Mac OS X 10_15_7) AppleWebKit/605.1.15 (KHTML, like Gecko) Version/14.1.2 Safari/605.1.15",1440,900,1442,735,main,2006853,134,17,15,HE,relative_first,relative,Extreme,Harder than Reference,F,j,safeDeck,riskyDeck,0,28,14,right,1,0,32,present,riskyDeck,676,973
oogjei95b1,13615,19/03/2022@14:13:38,"Mozilla/5.0 (Macintosh; Intel Mac OS X 10_15_7) AppleWebKit/605.1.15 (KHTML, like Gecko) Version/14.1.2 Safari/605.1.15",1440,900,1442,735,main,2006853,135,17,15,EM,relative_first,relative,Moderate,Easier than Reference,F,j,safeDeck,riskyDeck,-28,0,-14,right,1,0,32,present,riskyDeck,652,826
oogjei95b1,13615,19/03/2022@14:13:38,"Mozilla/5.0 (Macintosh; Intel Mac OS X 10_15_7) AppleWebKit/605.1.15 (KHTML, like Gecko) Version/14.1.2 Safari/605.1.15",1440,900,1442,735,main,2006853,136,17,15,HM,relative_first,relative,Moderate,Harder than Reference,F,j,safeDeck,riskyDeck,0,14,7,right,1,0,32,present,riskyDeck,94,577
oogjei95b1,13615,19/03/2022@14:13:38,"Mozilla/5.0 (Macintosh; Intel Mac OS X 10_15_7) AppleWebKit/605.1.15 (KHTML, like Gecko) Version/14.1.2 Safari/605.1.15",1440,900,1442,735,main,2006853,137,17,15,HM,relative_first,relative,Moderate,Harder than Reference,F,k,riskyDeck,safeDeck,14,0,7,right,0,1,39,present,safeDeck,48,788
oogjei95b1,13615,19/03/2022@14:13:38,"Mozilla/5.0 (Macintosh; Intel Mac OS X 10_15_7) AppleWebKit/605.1.15 (KHTML, like Gecko) Version/14.1.2 Safari/605.1.15",1440,900,1442,735,main,2006853,138,17,15,HE,relative_first,relative,Extreme,Harder than Reference,F,j,riskyDeck,safeDeck,28,0,14,right,0,0,46,present,safeDeck,125,969
oogjei95b1,13615,19/03/2022@14:13:38,"Mozilla/5.0 (Macintosh; Intel Mac OS X 10_15_7) AppleWebKit/605.1.15 (KHTML, like Gecko) Version/14.1.2 Safari/605.1.15",1440,900,1442,735,main,2006853,139,17,15,EM,relative_first,relative,Moderate,Easier than Reference,F,j,safeDeck,riskyDeck,-28,0,-14,right,1,0,32,present,riskyDeck,164,1025
oogjei95b1,13615,19/03/2022@14:13:38,"Mozilla/5.0 (Macintosh; Intel Mac OS X 10_15_7) AppleWebKit/605.1.15 (KHTML, like Gecko) Version/14.1.2 Safari/605.1.15",1440,900,1442,735,main,2006853,140,17,16,EE,relative_first,relative,Extreme,Easier than Reference,F,k,riskyDeck,safeDeck,-14,0,-7,right,0,0,25,absent,safeDeck,154,745
oogjei95b1,13615,19/03/2022@14:13:38,"Mozilla/5.0 (Macintosh; Intel Mac OS X 10_15_7) AppleWebKit/605.1.15 (KHTML, like Gecko) Version/14.1.2 Safari/605.1.15",1440,900,1442,735,main,2006853,141,17,16,HE,relative_first,relative,Extreme,Harder than Reference,F,k,riskyDeck,safeDeck,28,0,14,right,0,0,46,absent,safeDeck,272,1385
oogjei95b1,13615,19/03/2022@14:13:38,"Mozilla/5.0 (Macintosh; Intel Mac OS X 10_15_7) AppleWebKit/605.1.15 (KHTML, like Gecko) Version/14.1.2 Safari/605.1.15",1440,900,1442,735,main,2006853,142,17,16,EM,relative_first,relative,Moderate,Easier than Reference,F,k,safeDeck,riskyDeck,-28,0,-14,right,1,0,4,absent,riskyDeck,71,583
oogjei95b1,13615,19/03/2022@14:13:38,"Mozilla/5.0 (Macintosh; Intel Mac OS X 10_15_7) AppleWebKit/605.1.15 (KHTML, like Gecko) Version/14.1.2 Safari/605.1.15",1440,900,1442,735,main,2006853,143,17,16,EE,relative_first,relative,Extreme,Easier than Reference,F,j,safeDeck,riskyDeck,0,-14,-7,right,1,0,32,present,riskyDeck,128,3166
oogjei95b1,13615,19/03/2022@14:13:38,"Mozilla/5.0 (Macintosh; Intel Mac OS X 10_15_7) AppleWebKit/605.1.15 (KHTML, like Gecko) Version/14.1.2 Safari/605.1.15",1440,900,1442,735,main,2006853,144,17,16,HM,relative_first,relative,Moderate,Harder than Reference,F,j,safeDeck,riskyDeck,0,14,7,right,1,0,32,present,riskyDeck,308,1014
oogjei95b1,13615,19/03/2022@14:13:38,"Mozilla/5.0 (Macintosh; Intel Mac OS X 10_15_7) AppleWebKit/605.1.15 (KHTML, like Gecko) Version/14.1.2 Safari/605.1.15",1440,900,1442,735,main,2006853,145,17,16,HM,relative_first,relative,Moderate,Harder than Reference,F,j,riskyDeck,safeDeck,0,14,7,right,0,0,39,present,safeDeck,557,1231
oogjei95b1,13615,19/03/2022@14:13:38,"Mozilla/5.0 (Macintosh; Intel Mac OS X 10_15_7) AppleWebKit/605.1.15 (KHTML, like Gecko) Version/14.1.2 Safari/605.1.15",1440,900,1442,735,main,2006853,146,17,16,EM,relative_first,relative,Moderate,Easier than Reference,F,k,safeDeck,riskyDeck,-28,0,-14,right,1,0,4,absent,riskyDeck,205,712
oogjei95b1,13615,19/03/2022@14:13:38,"Mozilla/5.0 (Macintosh; Intel Mac OS X 10_15_7) AppleWebKit/605.1.15 (KHTML, like Gecko) Version/14.1.2 Safari/605.1.15",1440,900,1442,735,main,2006853,147,17,16,HE,relative_first,relative,Extreme,Harder than Reference,F,j,riskyDeck,safeDeck,28,0,14,right,0,0,46,present,safeDeck,164,4596
oogjei95b1,13615,19/03/2022@14:13:38,"Mozilla/5.0 (Macintosh; Intel Mac OS X 10_15_7) AppleWebKit/605.1.15 (KHTML, like Gecko) Version/14.1.2 Safari/605.1.15",1440,900,1442,735,main,2006853,148,17,16,EE,relative_first,relative,Extreme,Easier than Reference,F,k,safeDeck,riskyDeck,0,-14,-7,right,1,0,32,absent,riskyDeck,46,1781
oogjei95b1,13615,19/03/2022@14:13:38,"Mozilla/5.0 (Macintosh; Intel Mac OS X 10_15_7) AppleWebKit/605.1.15 (KHTML, like Gecko) Version/14.1.2 Safari/605.1.15",1440,900,1442,735,main,2006853,149,17,16,HE,relative_first,relative,Extreme,Harder than Reference,D,j,riskyDeck,safeDeck,28,0,14,left,1,0,32,present,riskyDeck,2614,1454
oogjei95b1,13615,19/03/2022@14:13:38,"Mozilla/5.0 (Macintosh; Intel Mac OS X 10_15_7) AppleWebKit/605.1.15 (KHTML, like Gecko) Version/14.1.2 Safari/605.1.15",1440,900,1442,735,main,2006853,150,17,16,EE,relative_first,relative,Extreme,Easier than Reference,F,j,riskyDeck,safeDeck,0,-14,-7,right,0,0,25,present,safeDeck,865,1066
oogjei95b1,13615,19/03/2022@14:13:38,"Mozilla/5.0 (Macintosh; Intel Mac OS X 10_15_7) AppleWebKit/605.1.15 (KHTML, like Gecko) Version/14.1.2 Safari/605.1.15",1440,900,1442,735,main,2006853,151,17,16,EM,relative_first,relative,Moderate,Easier than Reference,D,j,safeDeck,riskyDeck,0,-28,-14,left,0,0,18,present,safeDeck,1070,987
oogjei95b1,13615,19/03/2022@14:13:38,"Mozilla/5.0 (Macintosh; Intel Mac OS X 10_15_7) AppleWebKit/605.1.15 (KHTML, like Gecko) Version/14.1.2 Safari/605.1.15",1440,900,1442,735,main,2006853,152,18,16,HM,relative_first,relative,Moderate,Harder than Reference,D,k,riskyDeck,safeDeck,14,0,7,left,1,0,32,absent,riskyDeck,707,5981
oogjei95b1,13615,19/03/2022@14:13:38,"Mozilla/5.0 (Macintosh; Intel Mac OS X 10_15_7) AppleWebKit/605.1.15 (KHTML, like Gecko) Version/14.1.2 Safari/605.1.15",1440,900,1442,735,main,2006853,153,18,16,HE,relative_first,relative,Extreme,Harder than Reference,D,k,riskyDeck,safeDeck,28,0,14,left,1,0,60,absent,riskyDeck,1336,2218
oogjei95b1,13615,19/03/2022@14:13:38,"Mozilla/5.0 (Macintosh; Intel Mac OS X 10_15_7) AppleWebKit/605.1.15 (KHTML, like Gecko) Version/14.1.2 Safari/605.1.15",1440,900,1442,735,main,2006853,154,18,16,EE,relative_first,relative,Extreme,Easier than Reference,D,j,riskyDeck,safeDeck,-14,0,-7,left,1,0,32,present,riskyDeck,1115,1356
oogjei95b1,13615,19/03/2022@14:13:38,"Mozilla/5.0 (Macintosh; Intel Mac OS X 10_15_7) AppleWebKit/605.1.15 (KHTML, like Gecko) Version/14.1.2 Safari/605.1.15",1440,900,1442,735,main,2006853,155,18,17,HM,relative_first,relative,Moderate,Harder than Reference,D,k,riskyDeck,safeDeck,14,0,7,left,1,1,32,present,riskyDeck,38980,1167
oogjei95b1,13615,19/03/2022@14:13:38,"Mozilla/5.0 (Macintosh; Intel Mac OS X 10_15_7) AppleWebKit/605.1.15 (KHTML, like Gecko) Version/14.1.2 Safari/605.1.15",1440,900,1442,735,main,2006853,156,19,17,EM,relative_first,relative,Moderate,Easier than Reference,F,j,safeDeck,riskyDeck,-28,0,-14,right,1,0,4,present,riskyDeck,14752,1177
oogjei95b1,13615,19/03/2022@14:13:38,"Mozilla/5.0 (Macintosh; Intel Mac OS X 10_15_7) AppleWebKit/605.1.15 (KHTML, like Gecko) Version/14.1.2 Safari/605.1.15",1440,900,1442,735,main,2006853,157,19,18,HM,relative_first,relative,Moderate,Harder than Reference,D,j,safeDeck,riskyDeck,14,0,7,left,0,0,39,present,safeDeck,879,1416
oogjei95b1,13615,19/03/2022@14:13:38,"Mozilla/5.0 (Macintosh; Intel Mac OS X 10_15_7) AppleWebKit/605.1.15 (KHTML, like Gecko) Version/14.1.2 Safari/605.1.15",1440,900,1442,735,main,2006853,158,20,18,HE,relative_first,relative,Extreme,Harder than Reference,D,k,safeDeck,riskyDeck,0,28,14,left,0,0,46,absent,safeDeck,30604,21494
oogjei95b1,13615,19/03/2022@14:13:38,"Mozilla/5.0 (Macintosh; Intel Mac OS X 10_15_7) AppleWebKit/605.1.15 (KHTML, like Gecko) Version/14.1.2 Safari/605.1.15",1440,900,1442,735,main,2006853,159,20,19,EM,relative_first,relative,Moderate,Easier than Reference,D,j,riskyDeck,safeDeck,0,-28,-14,left,1,0,32,present,riskyDeck,1885,1411
oogjei95b1,13615,19/03/2022@14:13:38,"Mozilla/5.0 (Macintosh; Intel Mac OS X 10_15_7) AppleWebKit/605.1.15 (KHTML, like Gecko) Version/14.1.2 Safari/605.1.15",1440,900,1442,735,main,2006853,160,20,19,EE,relative_first,relative,Extreme,Easier than Reference,D,k,safeDeck,riskyDeck,0,-14,-7,left,0,1,25,present,safeDeck,242,1159
oogjei95b1,13615,19/03/2022@14:13:38,"Mozilla/5.0 (Macintosh; Intel Mac OS X 10_15_7) AppleWebKit/605.1.15 (KHTML, like Gecko) Version/14.1.2 Safari/605.1.15",1440,900,1442,735,main,2006853,161,20,19,HM,relative_first,relative,Moderate,Harder than Reference,D,j,riskyDeck,safeDeck,0,14,7,left,1,0,32,present,riskyDeck,1320,1003
oogjei95b1,13615,19/03/2022@14:13:38,"Mozilla/5.0 (Macintosh; Intel Mac OS X 10_15_7) AppleWebKit/605.1.15 (KHTML, like Gecko) Version/14.1.2 Safari/605.1.15",1440,900,1442,735,main,2006853,162,20,19,EM,relative_first,relative,Moderate,Easier than Reference,F,k,safeDeck,riskyDeck,0,-28,-14,right,1,0,4,absent,riskyDeck,968,861
oogjei95b1,13615,19/03/2022@14:13:38,"Mozilla/5.0 (Macintosh; Intel Mac OS X 10_15_7) AppleWebKit/605.1.15 (KHTML, like Gecko) Version/14.1.2 Safari/605.1.15",1440,900,1442,735,main,2006853,163,20,19,EE,relative_first,relative,Extreme,Easier than Reference,F,j,safeDeck,riskyDeck,0,-14,-7,right,1,0,32,present,riskyDeck,209,830
oogjei95b1,13615,19/03/2022@14:13:38,"Mozilla/5.0 (Macintosh; Intel Mac OS X 10_15_7) AppleWebKit/605.1.15 (KHTML, like Gecko) Version/14.1.2 Safari/605.1.15",1440,900,1442,735,main,2006853,164,20,19,HE,relative_first,relative,Extreme,Harder than Reference,D,k,safeDeck,riskyDeck,28,0,14,left,0,0,46,absent,safeDeck,638,1760
oogjei95b1,13615,19/03/2022@14:13:38,"Mozilla/5.0 (Macintosh; Intel Mac OS X 10_15_7) AppleWebKit/605.1.15 (KHTML, like Gecko) Version/14.1.2 Safari/605.1.15",1440,900,1442,735,main,2006853,165,20,19,HE,relative_first,relative,Extreme,Harder than Reference,D,k,riskyDeck,safeDeck,28,0,14,left,1,0,32,absent,riskyDeck,804,2456
oogjei95b1,13615,19/03/2022@14:13:38,"Mozilla/5.0 (Macintosh; Intel Mac OS X 10_15_7) AppleWebKit/605.1.15 (KHTML, like Gecko) Version/14.1.2 Safari/605.1.15",1440,900,1442,735,main,2006853,166,20,19,HM,relative_first,relative,Moderate,Harder than Reference,D,j,riskyDeck,safeDeck,14,0,7,left,1,0,32,present,riskyDeck,630,900
oogjei95b1,13615,19/03/2022@14:13:38,"Mozilla/5.0 (Macintosh; Intel Mac OS X 10_15_7) AppleWebKit/605.1.15 (KHTML, like Gecko) Version/14.1.2 Safari/605.1.15",1440,900,1442,735,main,2006853,167,20,19,EM,relative_first,relative,Moderate,Easier than Reference,F,k,safeDeck,riskyDeck,0,-28,-14,right,1,0,4,absent,riskyDeck,791,891
oogjei95b1,13615,19/03/2022@14:13:38,"Mozilla/5.0 (Macintosh; Intel Mac OS X 10_15_7) AppleWebKit/605.1.15 (KHTML, like Gecko) Version/14.1.2 Safari/605.1.15",1440,900,1442,735,main,2006853,168,20,19,EE,relative_first,relative,Extreme,Easier than Reference,F,k,safeDeck,riskyDeck,-14,0,-7,right,1,0,18,absent,riskyDeck,872,1572
oogjei95b1,13615,19/03/2022@14:13:38,"Mozilla/5.0 (Macintosh; Intel Mac OS X 10_15_7) AppleWebKit/605.1.15 (KHTML, like Gecko) Version/14.1.2 Safari/605.1.15",1440,900,1442,735,main,2006853,169,20,19,HM,relative_first,relative,Moderate,Harder than Reference,D,k,riskyDeck,safeDeck,14,0,7,left,1,0,32,absent,riskyDeck,656,3217
oogjei95b1,13615,19/03/2022@14:13:38,"Mozilla/5.0 (Macintosh; Intel Mac OS X 10_15_7) AppleWebKit/605.1.15 (KHTML, like Gecko) Version/14.1.2 Safari/605.1.15",1440,900,1442,735,main,2006853,170,21,19,EM,relative_first,relative,Moderate,Easier than Reference,D,k,safeDeck,riskyDeck,0,-28,-14,left,0,0,18,absent,safeDeck,543,842
oogjei95b1,13615,19/03/2022@14:13:38,"Mozilla/5.0 (Macintosh; Intel Mac OS X 10_15_7) AppleWebKit/605.1.15 (KHTML, like Gecko) Version/14.1.2 Safari/605.1.15",1440,900,1442,735,main,2006853,171,21,19,HE,relative_first,relative,Extreme,Harder than Reference,F,k,riskyDeck,safeDeck,28,0,14,right,0,0,46,absent,safeDeck,81,1600
oogjei95b1,13615,19/03/2022@14:13:38,"Mozilla/5.0 (Macintosh; Intel Mac OS X 10_15_7) AppleWebKit/605.1.15 (KHTML, like Gecko) Version/14.1.2 Safari/605.1.15",1440,900,1442,735,main,2006853,172,21,19,EE,relative_first,relative,Extreme,Easier than Reference,D,j,riskyDeck,safeDeck,0,-14,-7,left,1,0,18,present,riskyDeck,826,3120
oogjei95b1,13615,19/03/2022@14:13:38,"Mozilla/5.0 (Macintosh; Intel Mac OS X 10_15_7) AppleWebKit/605.1.15 (KHTML, like Gecko) Version/14.1.2 Safari/605.1.15",1440,900,1442,735,main,2006853,173,21,19,HM,relative_first,relative,Moderate,Harder than Reference,D,k,safeDeck,riskyDeck,0,14,7,left,0,1,39,present,safeDeck,489,1695
oogjei95b1,13615,19/03/2022@14:13:38,"Mozilla/5.0 (Macintosh; Intel Mac OS X 10_15_7) AppleWebKit/605.1.15 (KHTML, like Gecko) Version/14.1.2 Safari/605.1.15",1440,900,1442,735,main,2006853,174,21,20,EM,relative_first,relative,Moderate,Easier than Reference,F,j,safeDeck,riskyDeck,-28,0,-14,right,1,0,4,present,riskyDeck,702,707
oogjei95b1,13615,19/03/2022@14:13:38,"Mozilla/5.0 (Macintosh; Intel Mac OS X 10_15_7) AppleWebKit/605.1.15 (KHTML, like Gecko) Version/14.1.2 Safari/605.1.15",1440,900,1442,735,main,2006853,175,21,20,HE,relative_first,relative,Extreme,Harder than Reference,F,j,safeDeck,riskyDeck,0,28,14,right,1,0,32,present,riskyDeck,837,1189
oogjei95b1,13615,19/03/2022@14:13:38,"Mozilla/5.0 (Macintosh; Intel Mac OS X 10_15_7) AppleWebKit/605.1.15 (KHTML, like Gecko) Version/14.1.2 Safari/605.1.15",1440,900,1442,735,main,2006853,176,21,20,EE,relative_first,relative,Extreme,Easier than Reference,D,k,riskyDeck,safeDeck,0,-14,-7,left,1,0,18,absent,riskyDeck,622,1747
oogjei95b1,13615,19/03/2022@14:13:38,"Mozilla/5.0 (Macintosh; Intel Mac OS X 10_15_7) AppleWebKit/605.1.15 (KHTML, like Gecko) Version/14.1.2 Safari/605.1.15",1440,900,1442,735,main,2006853,177,21,20,HE,relative_first,relative,Extreme,Harder than Reference,D,k,riskyDeck,safeDeck,28,0,14,left,1,0,60,absent,riskyDeck,1720,4523
oogjei95b1,13615,19/03/2022@14:13:38,"Mozilla/5.0 (Macintosh; Intel Mac OS X 10_15_7) AppleWebKit/605.1.15 (KHTML, like Gecko) Version/14.1.2 Safari/605.1.15",1440,900,1442,735,main,2006853,178,21,20,EM,relative_first,relative,Moderate,Easier than Reference,F,j,safeDeck,riskyDeck,-28,0,-14,right,1,0,32,present,riskyDeck,1401,723
oogjei95b1,13615,19/03/2022@14:13:38,"Mozilla/5.0 (Macintosh; Intel Mac OS X 10_15_7) AppleWebKit/605.1.15 (KHTML, like Gecko) Version/14.1.2 Safari/605.1.15",1440,900,1442,735,main,2006853,179,21,20,EE,relative_first,relative,Extreme,Easier than Reference,D,j,riskyDeck,safeDeck,-14,0,-7,left,1,0,32,present,riskyDeck,644,1242
oogjei95b1,13615,19/03/2022@14:13:38,"Mozilla/5.0 (Macintosh; Intel Mac OS X 10_15_7) AppleWebKit/605.1.15 (KHTML, like Gecko) Version/14.1.2 Safari/605.1.15",1440,900,1442,735,main,2006853,180,21,20,HM,relative_first,relative,Moderate,Harder than Reference,D,j,safeDeck,riskyDeck,0,14,7,left,0,0,39,present,safeDeck,664,1641
oogjei95b1,13615,19/03/2022@14:13:38,"Mozilla/5.0 (Macintosh; Intel Mac OS X 10_15_7) AppleWebKit/605.1.15 (KHTML, like Gecko) Version/14.1.2 Safari/605.1.15",1440,900,1442,735,main,2006853,181,21,20,HE,relative_first,relative,Extreme,Harder than Reference,D,k,riskyDeck,safeDeck,28,0,14,left,1,0,60,absent,riskyDeck,753,6798
oogjei95b1,13615,19/03/2022@14:13:38,"Mozilla/5.0 (Macintosh; Intel Mac OS X 10_15_7) AppleWebKit/605.1.15 (KHTML, like Gecko) Version/14.1.2 Safari/605.1.15",1440,900,1442,735,main,2006853,182,22,20,EE,relative_first,relative,Extreme,Easier than Reference,D,j,riskyDeck,safeDeck,0,-14,-7,left,1,0,32,present,riskyDeck,672,1176
oogjei95b1,13615,19/03/2022@14:13:38,"Mozilla/5.0 (Macintosh; Intel Mac OS X 10_15_7) AppleWebKit/605.1.15 (KHTML, like Gecko) Version/14.1.2 Safari/605.1.15",1440,900,1442,735,main,2006853,183,22,20,HM,relative_first,relative,Moderate,Harder than Reference,D,j,riskyDeck,safeDeck,0,14,7,left,1,0,32,present,riskyDeck,828,4801
oogjei95b1,13615,19/03/2022@14:13:38,"Mozilla/5.0 (Macintosh; Intel Mac OS X 10_15_7) AppleWebKit/605.1.15 (KHTML, like Gecko) Version/14.1.2 Safari/605.1.15",1440,900,1442,735,main,2006853,184,22,20,EM,relative_first,relative,Moderate,Easier than Reference,F,k,safeDeck,riskyDeck,0,-28,-14,right,1,0,32,absent,riskyDeck,1905,1653
oogjei95b1,13615,19/03/2022@14:13:38,"Mozilla/5.0 (Macintosh; Intel Mac OS X 10_15_7) AppleWebKit/605.1.15 (KHTML, like Gecko) Version/14.1.2 Safari/605.1.15",1440,900,1442,735,main,2006853,185,22,20,EM,relative_first,relative,Moderate,Easier than Reference,F,j,safeDeck,riskyDeck,-28,0,-14,right,1,0,4,present,riskyDeck,593,472
oogjei95b1,13615,19/03/2022@14:13:38,"Mozilla/5.0 (Macintosh; Intel Mac OS X 10_15_7) AppleWebKit/605.1.15 (KHTML, like Gecko) Version/14.1.2 Safari/605.1.15",1440,900,1442,735,main,2006853,186,22,20,HE,relative_first,relative,Extreme,Harder than Reference,D,k,riskyDeck,safeDeck,28,0,14,left,1,1,60,present,riskyDeck,617,1081
oogjei95b1,13615,19/03/2022@14:13:38,"Mozilla/5.0 (Macintosh; Intel Mac OS X 10_15_7) AppleWebKit/605.1.15 (KHTML, like Gecko) Version/14.1.2 Safari/605.1.15",1440,900,1442,735,main,2006853,187,22,21,EE,relative_first,relative,Extreme,Easier than Reference,D,k,riskyDeck,safeDeck,0,-14,-7,left,1,0,18,absent,riskyDeck,6,1243
oogjei95b1,13615,19/03/2022@14:13:38,"Mozilla/5.0 (Macintosh; Intel Mac OS X 10_15_7) AppleWebKit/605.1.15 (KHTML, like Gecko) Version/14.1.2 Safari/605.1.15",1440,900,1442,735,main,2006853,188,22,21,HM,relative_first,relative,Moderate,Harder than Reference,D,k,riskyDeck,safeDeck,0,14,7,left,1,0,46,absent,riskyDeck,693,3914
oogjei95b1,13615,19/03/2022@14:13:38,"Mozilla/5.0 (Macintosh; Intel Mac OS X 10_15_7) AppleWebKit/605.1.15 (KHTML, like Gecko) Version/14.1.2 Safari/605.1.15",1440,900,1442,735,main,2006853,189,22,21,HM,relative_first,relative,Moderate,Harder than Reference,F,k,safeDeck,riskyDeck,0,14,7,right,1,0,32,absent,riskyDeck,740,1912
oogjei95b1,13615,19/03/2022@14:13:38,"Mozilla/5.0 (Macintosh; Intel Mac OS X 10_15_7) AppleWebKit/605.1.15 (KHTML, like Gecko) Version/14.1.2 Safari/605.1.15",1440,900,1442,735,main,2006853,190,22,21,HE,relative_first,relative,Extreme,Harder than Reference,D,k,riskyDeck,safeDeck,0,28,14,left,1,0,32,absent,riskyDeck,545,2382
oogjei95b1,13615,19/03/2022@14:13:38,"Mozilla/5.0 (Macintosh; Intel Mac OS X 10_15_7) AppleWebKit/605.1.15 (KHTML, like Gecko) Version/14.1.2 Safari/605.1.15",1440,900,1442,735,main,2006853,191,22,21,EE,relative_first,relative,Extreme,Easier than Reference,D,j,riskyDeck,safeDeck,-14,0,-7,left,1,0,18,present,riskyDeck,550,1283
oogjei95b1,13615,19/03/2022@14:13:38,"Mozilla/5.0 (Macintosh; Intel Mac OS X 10_15_7) AppleWebKit/605.1.15 (KHTML, like Gecko) Version/14.1.2 Safari/605.1.15",1440,900,1442,735,main,2006853,192,22,21,EM,relative_first,relative,Moderate,Easier than Reference,F,k,safeDeck,riskyDeck,-28,0,-14,right,1,0,32,absent,riskyDeck,717,892
oogjei95b1,13615,19/03/2022@14:13:38,"Mozilla/5.0 (Macintosh; Intel Mac OS X 10_15_7) AppleWebKit/605.1.15 (KHTML, like Gecko) Version/14.1.2 Safari/605.1.15",1440,900,1442,735,main,2006853,193,22,21,HM,relative_first,relative,Moderate,Harder than Reference,F,j,safeDeck,riskyDeck,0,14,7,right,1,0,46,present,riskyDeck,650,852
oogjei95b1,13615,19/03/2022@14:13:38,"Mozilla/5.0 (Macintosh; Intel Mac OS X 10_15_7) AppleWebKit/605.1.15 (KHTML, like Gecko) Version/14.1.2 Safari/605.1.15",1440,900,1442,735,main,2006853,194,22,21,HE,relative_first,relative,Extreme,Harder than Reference,D,k,riskyDeck,safeDeck,0,28,14,left,1,0,32,absent,riskyDeck,729,1607
oogjei95b1,13615,19/03/2022@14:13:38,"Mozilla/5.0 (Macintosh; Intel Mac OS X 10_15_7) AppleWebKit/605.1.15 (KHTML, like Gecko) Version/14.1.2 Safari/605.1.15",1440,900,1442,735,main,2006853,195,22,21,EM,relative_first,relative,Moderate,Easier than Reference,D,k,riskyDeck,safeDeck,0,-28,-14,left,1,0,32,absent,riskyDeck,565,2502
oogjei95b1,13615,19/03/2022@14:13:38,"Mozilla/5.0 (Macintosh; Intel Mac OS X 10_15_7) AppleWebKit/605.1.15 (KHTML, like Gecko) Version/14.1.2 Safari/605.1.15",1440,900,1442,735,main,2006853,196,22,21,EE,relative_first,relative,Extreme,Easier than Reference,D,k,riskyDeck,safeDeck,-14,0,-7,left,1,0,32,absent,riskyDeck,531,1563
oogjei95b1,13615,19/03/2022@14:13:38,"Mozilla/5.0 (Macintosh; Intel Mac OS X 10_15_7) AppleWebKit/605.1.15 (KHTML, like Gecko) Version/14.1.2 Safari/605.1.15",1440,900,1442,735,main,2006853,197,23,21,EE,relative_first,relative,Extreme,Easier than Reference,D,k,safeDeck,riskyDeck,-14,0,-7,left,0,0,25,absent,safeDeck,726,833
oogjei95b1,13615,19/03/2022@14:13:38,"Mozilla/5.0 (Macintosh; Intel Mac OS X 10_15_7) AppleWebKit/605.1.15 (KHTML, like Gecko) Version/14.1.2 Safari/605.1.15",1440,900,1442,735,main,2006853,198,23,21,HE,relative_first,relative,Extreme,Harder than Reference,D,j,riskyDeck,safeDeck,0,28,14,left,1,0,32,present,riskyDeck,959,1202
oogjei95b1,13615,19/03/2022@14:13:38,"Mozilla/5.0 (Macintosh; Intel Mac OS X 10_15_7) AppleWebKit/605.1.15 (KHTML, like Gecko) Version/14.1.2 Safari/605.1.15",1440,900,1442,735,main,2006853,199,23,21,EM,relative_first,relative,Moderate,Easier than Reference,D,j,riskyDeck,safeDeck,-28,0,-14,left,1,0,4,present,riskyDeck,440,749
oogjei95b1,13615,19/03/2022@14:13:38,"Mozilla/5.0 (Macintosh; Intel Mac OS X 10_15_7) AppleWebKit/605.1.15 (KHTML, like Gecko) Version/14.1.2 Safari/605.1.15",1440,900,1442,735,main,2006853,200,23,21,HM,relative_first,relative,Moderate,Harder than Reference,F,k,safeDeck,riskyDeck,0,14,7,right,1,0,32,absent,riskyDeck,699,1389
oogjei95b1,13615,19/03/2022@14:13:38,"Mozilla/5.0 (Macintosh; Intel Mac OS X 10_15_7) AppleWebKit/605.1.15 (KHTML, like Gecko) Version/14.1.2 Safari/605.1.15",1440,900,1442,735,main,2006853,201,23,21,HE,relative_first,relative,Extreme,Harder than Reference,F,j,safeDeck,riskyDeck,0,28,14,right,1,1,32,absent,riskyDeck,581,1096
oogjei95b1,13615,19/03/2022@14:13:38,"Mozilla/5.0 (Macintosh; Intel Mac OS X 10_15_7) AppleWebKit/605.1.15 (KHTML, like Gecko) Version/14.1.2 Safari/605.1.15",1440,900,1442,735,main,2006853,202,23,22,EM,relative_first,relative,Moderate,Easier than Reference,D,j,safeDeck,riskyDeck,0,-28,-14,left,0,0,18,present,safeDeck,553,1490
oogjei95b1,13615,19/03/2022@14:13:38,"Mozilla/5.0 (Macintosh; Intel Mac OS X 10_15_7) AppleWebKit/605.1.15 (KHTML, like Gecko) Version/14.1.2 Safari/605.1.15",1440,900,1442,735,main,2006853,203,23,22,HM,relative_first,relative,Moderate,Harder than Reference,D,j,riskyDeck,safeDeck,14,0,7,left,1,0,46,present,riskyDeck,1052,2040
oogjei95b1,13615,19/03/2022@14:13:38,"Mozilla/5.0 (Macintosh; Intel Mac OS X 10_15_7) AppleWebKit/605.1.15 (KHTML, like Gecko) Version/14.1.2 Safari/605.1.15",1440,900,1442,735,main,2006853,204,23,22,EE,relative_first,relative,Extreme,Easier than Reference,D,j,safeDeck,riskyDeck,0,-14,-7,left,0,0,25,present,safeDeck,626,721
oogjei95b1,13615,19/03/2022@14:13:38,"Mozilla/5.0 (Macintosh; Intel Mac OS X 10_15_7) AppleWebKit/605.1.15 (KHTML, like Gecko) Version/14.1.2 Safari/605.1.15",1440,900,1442,735,main,2006853,205,23,22,HE,relative_first,relative,Extreme,Harder than Reference,F,k,riskyDeck,safeDeck,28,0,14,right,0,0,46,absent,safeDeck,620,2009
oogjei95b1,13615,19/03/2022@14:13:38,"Mozilla/5.0 (Macintosh; Intel Mac OS X 10_15_7) AppleWebKit/605.1.15 (KHTML, like Gecko) Version/14.1.2 Safari/605.1.15",1440,900,1442,735,main,2006853,206,23,22,HM,relative_first,relative,Moderate,Harder than Reference,D,k,safeDeck,riskyDeck,0,14,7,left,0,0,39,absent,safeDeck,448,1391
oogjei95b1,13615,19/03/2022@14:13:38,"Mozilla/5.0 (Macintosh; Intel Mac OS X 10_15_7) AppleWebKit/605.1.15 (KHTML, like Gecko) Version/14.1.2 Safari/605.1.15",1440,900,1442,735,main,2006853,207,23,22,EE,relative_first,relative,Extreme,Easier than Reference,D,j,riskyDeck,safeDeck,0,-14,-7,left,1,0,18,present,riskyDeck,660,919
oogjei95b1,13615,19/03/2022@14:13:38,"Mozilla/5.0 (Macintosh; Intel Mac OS X 10_15_7) AppleWebKit/605.1.15 (KHTML, like Gecko) Version/14.1.2 Safari/605.1.15",1440,900,1442,735,main,2006853,208,23,22,EM,relative_first,relative,Moderate,Easier than Reference,F,j,safeDeck,riskyDeck,-28,0,-14,right,1,0,4,present,riskyDeck,642,560
oogjei95b1,13615,19/03/2022@14:13:38,"Mozilla/5.0 (Macintosh; Intel Mac OS X 10_15_7) AppleWebKit/605.1.15 (KHTML, like Gecko) Version/14.1.2 Safari/605.1.15",1440,900,1442,735,main,2006853,209,23,22,HM,relative_first,relative,Moderate,Harder than Reference,D,j,safeDeck,riskyDeck,14,0,7,left,0,0,39,present,safeDeck,626,1011
oogjei95b1,13615,19/03/2022@14:13:38,"Mozilla/5.0 (Macintosh; Intel Mac OS X 10_15_7) AppleWebKit/605.1.15 (KHTML, like Gecko) Version/14.1.2 Safari/605.1.15",1440,900,1442,735,main,2006853,210,23,22,EE,relative_first,relative,Extreme,Easier than Reference,D,j,safeDeck,riskyDeck,0,-14,-7,left,0,0,25,present,safeDeck,555,1368
oogjei95b1,13615,19/03/2022@14:13:38,"Mozilla/5.0 (Macintosh; Intel Mac OS X 10_15_7) AppleWebKit/605.1.15 (KHTML, like Gecko) Version/14.1.2 Safari/605.1.15",1440,900,1442,735,main,2006853,211,23,22,HE,relative_first,relative,Extreme,Harder than Reference,F,j,riskyDeck,safeDeck,0,28,14,right,0,0,46,present,safeDeck,548,1519
oogjei95b1,13615,19/03/2022@14:13:38,"Mozilla/5.0 (Macintosh; Intel Mac OS X 10_15_7) AppleWebKit/605.1.15 (KHTML, like Gecko) Version/14.1.2 Safari/605.1.15",1440,900,1442,735,main,2006853,212,23,22,EM,relative_first,relative,Moderate,Easier than Reference,D,k,riskyDeck,safeDeck,-28,0,-14,left,1,0,4,absent,riskyDeck,620,807
oogjei95b1,13615,19/03/2022@14:13:38,"Mozilla/5.0 (Macintosh; Intel Mac OS X 10_15_7) AppleWebKit/605.1.15 (KHTML, like Gecko) Version/14.1.2 Safari/605.1.15",1440,900,1442,735,main,2006853,213,23,22,HM,relative_first,relative,Moderate,Harder than Reference,F,j,riskyDeck,safeDeck,14,0,7,right,0,0,39,present,safeDeck,479,1221
oogjei95b1,13615,19/03/2022@14:13:38,"Mozilla/5.0 (Macintosh; Intel Mac OS X 10_15_7) AppleWebKit/605.1.15 (KHTML, like Gecko) Version/14.1.2 Safari/605.1.15",1440,900,1442,735,main,2006853,214,24,22,HE,relative_first,relative,Extreme,Harder than Reference,F,j,safeDeck,riskyDeck,28,0,14,right,1,0,60,present,riskyDeck,220,1638
oogjei95b1,13615,19/03/2022@14:13:38,"Mozilla/5.0 (Macintosh; Intel Mac OS X 10_15_7) AppleWebKit/605.1.15 (KHTML, like Gecko) Version/14.1.2 Safari/605.1.15",1440,900,1442,735,main,2006853,215,24,22,EM,relative_first,relative,Moderate,Easier than Reference,D,j,riskyDeck,safeDeck,0,-28,-14,left,1,1,4,absent,riskyDeck,597,847
oogjei95b1,13615,19/03/2022@14:13:38,"Mozilla/5.0 (Macintosh; Intel Mac OS X 10_15_7) AppleWebKit/605.1.15 (KHTML, like Gecko) Version/14.1.2 Safari/605.1.15",1440,900,1442,735,main,2006853,216,24,22,EE,relative_first,relative,Extreme,Easier than Reference,D,k,riskyDeck,safeDeck,0,-14,-7,left,1,0,18,absent,riskyDeck,616,3058
oogjei95b1,13615,19/03/2022@14:13:38,"Mozilla/5.0 (Macintosh; Intel Mac OS X 10_15_7) AppleWebKit/605.1.15 (KHTML, like Gecko) Version/14.1.2 Safari/605.1.15",1440,900,1442,735,main,2006853,217,24,22,HE,relative_first,relative,Extreme,Harder than Reference,F,k,safeDeck,riskyDeck,0,28,14,right,1,0,32,absent,riskyDeck,704,1727
oogjei95b1,13615,19/03/2022@14:13:38,"Mozilla/5.0 (Macintosh; Intel Mac OS X 10_15_7) AppleWebKit/605.1.15 (KHTML, like Gecko) Version/14.1.2 Safari/605.1.15",1440,900,1442,735,main,2006853,218,24,23,HM,relative_first,relative,Moderate,Harder than Reference,F,j,riskyDeck,safeDeck,14,0,7,right,0,0,39,present,safeDeck,711,987
oogjei95b1,13615,19/03/2022@14:13:38,"Mozilla/5.0 (Macintosh; Intel Mac OS X 10_15_7) AppleWebKit/605.1.15 (KHTML, like Gecko) Version/14.1.2 Safari/605.1.15",1440,900,1442,735,main,2006853,219,24,23,EM,relative_first,relative,Moderate,Easier than Reference,D,j,riskyDeck,safeDeck,-28,0,-14,left,1,0,32,present,riskyDeck,777,1015
oogjei95b1,13615,19/03/2022@14:13:38,"Mozilla/5.0 (Macintosh; Intel Mac OS X 10_15_7) AppleWebKit/605.1.15 (KHTML, like Gecko) Version/14.1.2 Safari/605.1.15",1440,900,1442,735,main,2006853,220,24,23,EE,relative_first,relative,Extreme,Easier than Reference,D,k,riskyDeck,safeDeck,-14,0,-7,left,1,0,32,absent,riskyDeck,557,2361
oogjei95b1,13615,19/03/2022@14:13:38,"Mozilla/5.0 (Macintosh; Intel Mac OS X 10_15_7) AppleWebKit/605.1.15 (KHTML, like Gecko) Version/14.1.2 Safari/605.1.15",1440,900,1442,735,main,2006853,221,24,23,EM,relative_first,relative,Moderate,Easier than Reference,F,k,safeDeck,riskyDeck,0,-28,-14,right,1,0,32,absent,riskyDeck,993,1857
oogjei95b1,13615,19/03/2022@14:13:38,"Mozilla/5.0 (Macintosh; Intel Mac OS X 10_15_7) AppleWebKit/605.1.15 (KHTML, like Gecko) Version/14.1.2 Safari/605.1.15",1440,900,1442,735,main,2006853,222,24,23,EE,relative_first,relative,Extreme,Easier than Reference,F,k,safeDeck,riskyDeck,0,-14,-7,right,1,0,18,absent,riskyDeck,569,774
oogjei95b1,13615,19/03/2022@14:13:38,"Mozilla/5.0 (Macintosh; Intel Mac OS X 10_15_7) AppleWebKit/605.1.15 (KHTML, like Gecko) Version/14.1.2 Safari/605.1.15",1440,900,1442,735,main,2006853,223,24,23,HM,relative_first,relative,Moderate,Harder than Reference,F,j,safeDeck,riskyDeck,14,0,7,right,1,0,46,present,riskyDeck,322,2148
oogjei95b1,13615,19/03/2022@14:13:38,"Mozilla/5.0 (Macintosh; Intel Mac OS X 10_15_7) AppleWebKit/605.1.15 (KHTML, like Gecko) Version/14.1.2 Safari/605.1.15",1440,900,1442,735,main,2006853,224,24,23,HE,relative_first,relative,Extreme,Harder than Reference,D,j,riskyDeck,safeDeck,0,28,14,left,1,0,60,present,riskyDeck,747,1085
oogjei95b1,13615,19/03/2022@14:13:38,"Mozilla/5.0 (Macintosh; Intel Mac OS X 10_15_7) AppleWebKit/605.1.15 (KHTML, like Gecko) Version/14.1.2 Safari/605.1.15",1440,900,1442,735,main,2006853,225,24,23,EE,relative_first,relative,Extreme,Easier than Reference,D,j,riskyDeck,safeDeck,-14,0,-7,left,1,0,18,present,riskyDeck,1000,712
oogjei95b1,13615,19/03/2022@14:13:38,"Mozilla/5.0 (Macintosh; Intel Mac OS X 10_15_7) AppleWebKit/605.1.15 (KHTML, like Gecko) Version/14.1.2 Safari/605.1.15",1440,900,1442,735,main,2006853,226,24,23,EM,relative_first,relative,Moderate,Easier than Reference,D,k,riskyDeck,safeDeck,-28,0,-14,left,1,0,32,absent,riskyDeck,587,2725
oogjei95b1,13615,19/03/2022@14:13:38,"Mozilla/5.0 (Macintosh; Intel Mac OS X 10_15_7) AppleWebKit/605.1.15 (KHTML, like Gecko) Version/14.1.2 Safari/605.1.15",1440,900,1442,735,main,2006853,227,24,23,HM,relative_first,relative,Moderate,Harder than Reference,F,j,safeDeck,riskyDeck,14,0,7,right,1,0,46,present,riskyDeck,557,750
oogjei95b1,13615,19/03/2022@14:13:38,"Mozilla/5.0 (Macintosh; Intel Mac OS X 10_15_7) AppleWebKit/605.1.15 (KHTML, like Gecko) Version/14.1.2 Safari/605.1.15",1440,900,1442,735,main,2006853,228,25,23,HE,relative_first,relative,Extreme,Harder than Reference,D,k,riskyDeck,safeDeck,28,0,14,left,1,0,60,absent,riskyDeck,684,4021
oogjei95b1,13615,19/03/2022@14:13:38,"Mozilla/5.0 (Macintosh; Intel Mac OS X 10_15_7) AppleWebKit/605.1.15 (KHTML, like Gecko) Version/14.1.2 Safari/605.1.15",1440,900,1442,735,main,2006853,229,25,23,EE,relative_first,relative,Extreme,Easier than Reference,F,j,safeDeck,riskyDeck,0,-14,-7,right,1,0,18,present,riskyDeck,483,1158
oogjei95b1,13615,19/03/2022@14:13:38,"Mozilla/5.0 (Macintosh; Intel Mac OS X 10_15_7) AppleWebKit/605.1.15 (KHTML, like Gecko) Version/14.1.2 Safari/605.1.15",1440,900,1442,735,main,2006853,230,25,23,EM,relative_first,relative,Moderate,Easier than Reference,D,k,riskyDeck,safeDeck,0,-28,-14,left,1,0,32,absent,riskyDeck,1191,3323
oogjei95b1,13615,19/03/2022@14:13:38,"Mozilla/5.0 (Macintosh; Intel Mac OS X 10_15_7) AppleWebKit/605.1.15 (KHTML, like Gecko) Version/14.1.2 Safari/605.1.15",1440,900,1442,735,main,2006853,231,25,24,HE,relative_first,relative,Extreme,Harder than Reference,F,j,riskyDeck,safeDeck,0,28,14,right,0,0,46,present,safeDeck,495,4053
oogjei95b1,13615,19/03/2022@14:13:38,"Mozilla/5.0 (Macintosh; Intel Mac OS X 10_15_7) AppleWebKit/605.1.15 (KHTML, like Gecko) Version/14.1.2 Safari/605.1.15",1440,900,1442,735,main,2006853,232,25,24,HM,relative_first,relative,Moderate,Harder than Reference,D,j,riskyDeck,safeDeck,0,14,7,left,1,0,32,present,riskyDeck,1196,1139
oogjei95b1,13615,19/03/2022@14:13:38,"Mozilla/5.0 (Macintosh; Intel Mac OS X 10_15_7) AppleWebKit/605.1.15 (KHTML, like Gecko) Version/14.1.2 Safari/605.1.15",1440,900,1442,735,main,2006853,233,25,24,HM,relative_first,relative,Moderate,Harder than Reference,F,j,safeDeck,riskyDeck,0,14,7,right,1,0,46,present,riskyDeck,357,5934
oogjei95b1,13615,19/03/2022@14:13:38,"Mozilla/5.0 (Macintosh; Intel Mac OS X 10_15_7) AppleWebKit/605.1.15 (KHTML, like Gecko) Version/14.1.2 Safari/605.1.15",1440,900,1442,735,main,2006853,234,25,24,HE,relative_first,relative,Extreme,Harder than Reference,D,k,riskyDeck,safeDeck,0,28,14,left,1,0,60,absent,riskyDeck,710,1943
oogjei95b1,13615,19/03/2022@14:13:38,"Mozilla/5.0 (Macintosh; Intel Mac OS X 10_15_7) AppleWebKit/605.1.15 (KHTML, like Gecko) Version/14.1.2 Safari/605.1.15",1440,900,1442,735,main,2006853,235,25,24,EM,relative_first,relative,Moderate,Easier than Reference,D,j,riskyDeck,safeDeck,0,-28,-14,left,1,0,32,present,riskyDeck,705,1238
oogjei95b1,13615,19/03/2022@14:13:38,"Mozilla/5.0 (Macintosh; Intel Mac OS X 10_15_7) AppleWebKit/605.1.15 (KHTML, like Gecko) Version/14.1.2 Safari/605.1.15",1440,900,1442,735,main,2006853,236,25,24,EE,relative_first,relative,Extreme,Easier than Reference,D,k,riskyDeck,safeDeck,0,-14,-7,left,1,0,18,absent,riskyDeck,562,1734
oogjei95b1,13615,19/03/2022@14:13:38,"Mozilla/5.0 (Macintosh; Intel Mac OS X 10_15_7) AppleWebKit/605.1.15 (KHTML, like Gecko) Version/14.1.2 Safari/605.1.15",1440,900,1442,735,main,2006853,237,25,24,HE,relative_first,relative,Extreme,Harder than Reference,D,j,safeDeck,riskyDeck,0,28,14,left,0,0,46,present,safeDeck,221,1188
oogjei95b1,13615,19/03/2022@14:13:38,"Mozilla/5.0 (Macintosh; Intel Mac OS X 10_15_7) AppleWebKit/605.1.15 (KHTML, like Gecko) Version/14.1.2 Safari/605.1.15",1440,900,1442,735,main,2006853,238,25,24,HM,relative_first,relative,Moderate,Harder than Reference,F,k,safeDeck,riskyDeck,0,14,7,right,1,0,46,absent,riskyDeck,762,1569
oogjei95b1,13615,19/03/2022@14:13:38,"Mozilla/5.0 (Macintosh; Intel Mac OS X 10_15_7) AppleWebKit/605.1.15 (KHTML, like Gecko) Version/14.1.2 Safari/605.1.15",1440,900,1442,735,main,2006853,239,25,24,EM,relative_first,relative,Moderate,Easier than Reference,F,k,riskyDeck,safeDeck,-28,0,-14,right,0,0,18,absent,safeDeck,130,1527
oogjei95b1,13615,19/03/2022@14:13:38,"Mozilla/5.0 (Macintosh; Intel Mac OS X 10_15_7) AppleWebKit/605.1.15 (KHTML, like Gecko) Version/14.1.2 Safari/605.1.15",1440,900,1442,735,main,2006853,240,25,24,EE,relative_first,relative,Extreme,Easier than Reference,D,j,riskyDeck,safeDeck,-14,0,-7,left,1,0,32,present,riskyDeck,853,1497
oogjei95b1,13615,19/03/2022@14:13:38,"Mozilla/5.0 (Macintosh; Intel Mac OS X 10_15_7) AppleWebKit/605.1.15 (KHTML, like Gecko) Version/14.1.2 Safari/605.1.15",1440,900,1442,735,main,2006853,241,26,24,HE,relative_first,relative,Extreme,Harder than Reference,D,j,riskyDeck,safeDeck,28,0,14,left,1,0,32,present,riskyDeck,2404,1931
oogjei95b1,13615,19/03/2022@14:13:38,"Mozilla/5.0 (Macintosh; Intel Mac OS X 10_15_7) AppleWebKit/605.1.15 (KHTML, like Gecko) Version/14.1.2 Safari/605.1.15",1440,900,1442,735,main,2006853,242,26,24,EE,relative_first,relative,Extreme,Easier than Reference,D,k,riskyDeck,safeDeck,-14,0,-7,left,1,0,32,absent,riskyDeck,515,2767
oogjei95b1,13615,19/03/2022@14:13:38,"Mozilla/5.0 (Macintosh; Intel Mac OS X 10_15_7) AppleWebKit/605.1.15 (KHTML, like Gecko) Version/14.1.2 Safari/605.1.15",1440,900,1442,735,main,2006853,243,26,24,HM,relative_first,relative,Moderate,Harder than Reference,D,k,safeDeck,riskyDeck,0,14,7,left,0,0,39,absent,safeDeck,435,1043
oogjei95b1,13615,19/03/2022@14:13:38,"Mozilla/5.0 (Macintosh; Intel Mac OS X 10_15_7) AppleWebKit/605.1.15 (KHTML, like Gecko) Version/14.1.2 Safari/605.1.15",1440,900,1442,735,main,2006853,244,26,24,EM,relative_first,relative,Moderate,Easier than Reference,D,j,safeDeck,riskyDeck,-28,0,-14,left,0,0,18,present,safeDeck,274,1114
oogjei95b1,13615,19/03/2022@14:13:38,"Mozilla/5.0 (Macintosh; Intel Mac OS X 10_15_7) AppleWebKit/605.1.15 (KHTML, like Gecko) Version/14.1.2 Safari/605.1.15",1440,900,1442,735,main,2006853,245,26,24,HE,relative_first,relative,Extreme,Harder than Reference,D,k,riskyDeck,safeDeck,0,28,14,left,1,0,32,absent,riskyDeck,702,2297
oogjei95b1,13615,19/03/2022@14:13:38,"Mozilla/5.0 (Macintosh; Intel Mac OS X 10_15_7) AppleWebKit/605.1.15 (KHTML, like Gecko) Version/14.1.2 Safari/605.1.15",1440,900,1442,735,main,2006853,246,26,25,HM,relative_first,relative,Moderate,Harder than Reference,F,j,safeDeck,riskyDeck,14,0,7,right,1,0,46,present,riskyDeck,597,2327
oogjei95b1,13615,19/03/2022@14:13:38,"Mozilla/5.0 (Macintosh; Intel Mac OS X 10_15_7) AppleWebKit/605.1.15 (KHTML, like Gecko) Version/14.1.2 Safari/605.1.15",1440,900,1442,735,main,2006853,247,26,25,EM,relative_first,relative,Moderate,Easier than Reference,F,j,safeDeck,riskyDeck,-28,0,-14,right,1,0,4,present,riskyDeck,696,649
oogjei95b1,13615,19/03/2022@14:13:38,"Mozilla/5.0 (Macintosh; Intel Mac OS X 10_15_7) AppleWebKit/605.1.15 (KHTML, like Gecko) Version/14.1.2 Safari/605.1.15",1440,900,1442,735,main,2006853,248,26,25,EE,relative_first,relative,Extreme,Easier than Reference,D,j,riskyDeck,safeDeck,0,-14,-7,left,1,0,32,present,riskyDeck,671,701
oogjei95b1,13615,19/03/2022@14:13:38,"Mozilla/5.0 (Macintosh; Intel Mac OS X 10_15_7) AppleWebKit/605.1.15 (KHTML, like Gecko) Version/14.1.2 Safari/605.1.15",1440,900,1442,735,main,2006853,249,26,25,EM,relative_first,relative,Moderate,Easier than Reference,F,j,safeDeck,riskyDeck,0,-28,-14,right,1,0,32,present,riskyDeck,687,1301
oogjei95b1,13615,19/03/2022@14:13:38,"Mozilla/5.0 (Macintosh; Intel Mac OS X 10_15_7) AppleWebKit/605.1.15 (KHTML, like Gecko) Version/14.1.2 Safari/605.1.15",1440,900,1442,735,main,2006853,250,26,25,HE,relative_first,relative,Extreme,Harder than Reference,F,j,safeDeck,riskyDeck,28,0,14,right,1,0,60,present,riskyDeck,1921,666
oogjei95b1,13615,19/03/2022@14:13:38,"Mozilla/5.0 (Macintosh; Intel Mac OS X 10_15_7) AppleWebKit/605.1.15 (KHTML, like Gecko) Version/14.1.2 Safari/605.1.15",1440,900,1442,735,main,2006853,251,26,25,EE,relative_first,relative,Extreme,Easier than Reference,F,j,safeDeck,riskyDeck,-14,0,-7,right,1,0,18,present,riskyDeck,485,877
oogjei95b1,13615,19/03/2022@14:13:38,"Mozilla/5.0 (Macintosh; Intel Mac OS X 10_15_7) AppleWebKit/605.1.15 (KHTML, like Gecko) Version/14.1.2 Safari/605.1.15",1440,900,1442,735,main,2006853,252,26,25,HM,relative_first,relative,Moderate,Harder than Reference,F,k,riskyDeck,safeDeck,14,0,7,right,0,0,39,absent,safeDeck,126,1507
oogjei95b1,13615,19/03/2022@14:13:38,"Mozilla/5.0 (Macintosh; Intel Mac OS X 10_15_7) AppleWebKit/605.1.15 (KHTML, like Gecko) Version/14.1.2 Safari/605.1.15",1440,900,1442,735,main,2006853,253,26,25,EE,relative_first,relative,Extreme,Easier than Reference,F,k,riskyDeck,safeDeck,-14,0,-7,right,0,0,25,absent,safeDeck,281,1132
oogjei95b1,13615,19/03/2022@14:13:38,"Mozilla/5.0 (Macintosh; Intel Mac OS X 10_15_7) AppleWebKit/605.1.15 (KHTML, like Gecko) Version/14.1.2 Safari/605.1.15",1440,900,1442,735,main,2006853,254,26,25,HE,relative_first,relative,Extreme,Harder than Reference,F,j,safeDeck,riskyDeck,0,28,14,right,1,1,32,absent,riskyDeck,248,523
oogjei95b1,13615,19/03/2022@14:13:38,"Mozilla/5.0 (Macintosh; Intel Mac OS X 10_15_7) AppleWebKit/605.1.15 (KHTML, like Gecko) Version/14.1.2 Safari/605.1.15",1440,900,1442,735,main,2006853,255,26,25,EM,relative_first,relative,Moderate,Easier than Reference,F,k,safeDeck,riskyDeck,0,-28,-14,right,1,0,4,absent,riskyDeck,238,543
oogjei95b1,13615,19/03/2022@14:13:38,"Mozilla/5.0 (Macintosh; Intel Mac OS X 10_15_7) AppleWebKit/605.1.15 (KHTML, like Gecko) Version/14.1.2 Safari/605.1.15",1440,900,1442,735,main,2006853,256,26,25,HM,relative_first,relative,Moderate,Harder than Reference,F,j,riskyDeck,safeDeck,0,14,7,right,0,0,39,present,safeDeck,133,1266
oogjei95b1,13615,19/03/2022@14:13:38,"Mozilla/5.0 (Macintosh; Intel Mac OS X 10_15_7) AppleWebKit/605.1.15 (KHTML, like Gecko) Version/14.1.2 Safari/605.1.15",1440,900,1442,735,main,2006853,257,27,25,HM,relative_first,relative,Moderate,Harder than Reference,F,k,riskyDeck,safeDeck,0,14,7,right,0,0,39,absent,safeDeck,107,4082
oogjei95b1,13615,19/03/2022@14:13:38,"Mozilla/5.0 (Macintosh; Intel Mac OS X 10_15_7) AppleWebKit/605.1.15 (KHTML, like Gecko) Version/14.1.2 Safari/605.1.15",1440,900,1442,735,main,2006853,258,27,25,EM,relative_first,relative,Moderate,Easier than Reference,F,j,riskyDeck,safeDeck,-28,0,-14,right,0,0,18,present,safeDeck,239,832
oogjei95b1,13615,19/03/2022@14:13:38,"Mozilla/5.0 (Macintosh; Intel Mac OS X 10_15_7) AppleWebKit/605.1.15 (KHTML, like Gecko) Version/14.1.2 Safari/605.1.15",1440,900,1442,735,main,2006853,259,27,25,HE,relative_first,relative,Extreme,Harder than Reference,F,k,safeDeck,riskyDeck,0,28,14,right,1,0,32,absent,riskyDeck,311,6801
oogjei95b1,13615,19/03/2022@14:13:38,"Mozilla/5.0 (Macintosh; Intel Mac OS X 10_15_7) AppleWebKit/605.1.15 (KHTML, like Gecko) Version/14.1.2 Safari/605.1.15",1440,900,1442,735,main,2006853,260,27,25,EE,relative_first,relative,Extreme,Easier than Reference,F,k,safeDeck,riskyDeck,0,-14,-7,right,1,0,18,absent,riskyDeck,2180,810
oogjei95b1,13615,19/03/2022@14:13:38,"Mozilla/5.0 (Macintosh; Intel Mac OS X 10_15_7) AppleWebKit/605.1.15 (KHTML, like Gecko) Version/14.1.2 Safari/605.1.15",1440,900,1442,735,main,2006853,261,27,26,HE,relative_first,relative,Extreme,Harder than Reference,F,k,riskyDeck,safeDeck,28,0,14,right,0,0,46,absent,safeDeck,65,1524
oogjei95b1,13615,19/03/2022@14:13:38,"Mozilla/5.0 (Macintosh; Intel Mac OS X 10_15_7) AppleWebKit/605.1.15 (KHTML, like Gecko) Version/14.1.2 Safari/605.1.15",1440,900,1442,735,main,2006853,262,27,26,EE,relative_first,relative,Extreme,Easier than Reference,F,j,riskyDeck,safeDeck,0,-14,-7,right,0,0,25,present,safeDeck,119,19434
oogjei95b1,13615,19/03/2022@14:13:38,"Mozilla/5.0 (Macintosh; Intel Mac OS X 10_15_7) AppleWebKit/605.1.15 (KHTML, like Gecko) Version/14.1.2 Safari/605.1.15",1440,900,1442,735,main,2006853,263,27,26,HM,relative_first,relative,Moderate,Harder than Reference,F,j,safeDeck,riskyDeck,14,0,7,right,1,0,32,present,riskyDeck,9945,1049
oogjei95b1,13615,19/03/2022@14:13:38,"Mozilla/5.0 (Macintosh; Intel Mac OS X 10_15_7) AppleWebKit/605.1.15 (KHTML, like Gecko) Version/14.1.2 Safari/605.1.15",1440,900,1442,735,main,2006853,264,28,26,EM,relative_first,relative,Moderate,Easier than Reference,D,k,riskyDeck,safeDeck,0,-28,-14,left,1,0,32,absent,riskyDeck,8135,1881
oogjei95b1,13615,19/03/2022@14:13:38,"Mozilla/5.0 (Macintosh; Intel Mac OS X 10_15_7) AppleWebKit/605.1.15 (KHTML, like Gecko) Version/14.1.2 Safari/605.1.15",1440,900,1442,735,main,2006853,265,28,27,EM,relative_first,relative,Moderate,Easier than Reference,D,k,riskyDeck,safeDeck,-28,0,-14,left,1,0,32,absent,riskyDeck,13841,2273
oogjei95b1,13615,19/03/2022@14:13:38,"Mozilla/5.0 (Macintosh; Intel Mac OS X 10_15_7) AppleWebKit/605.1.15 (KHTML, like Gecko) Version/14.1.2 Safari/605.1.15",1440,900,1442,735,main,2006853,266,28,27,HE,relative_first,relative,Extreme,Harder than Reference,F,k,safeDeck,riskyDeck,0,28,14,right,1,0,60,absent,riskyDeck,621,1823
oogjei95b1,13615,19/03/2022@14:13:38,"Mozilla/5.0 (Macintosh; Intel Mac OS X 10_15_7) AppleWebKit/605.1.15 (KHTML, like Gecko) Version/14.1.2 Safari/605.1.15",1440,900,1442,735,main,2006853,267,28,27,EE,relative_first,relative,Extreme,Easier than Reference,F,j,safeDeck,riskyDeck,-14,0,-7,right,1,0,18,present,riskyDeck,504,944
oogjei95b1,13615,19/03/2022@14:13:38,"Mozilla/5.0 (Macintosh; Intel Mac OS X 10_15_7) AppleWebKit/605.1.15 (KHTML, like Gecko) Version/14.1.2 Safari/605.1.15",1440,900,1442,735,main,2006853,268,28,27,HM,relative_first,relative,Moderate,Harder than Reference,F,k,safeDeck,riskyDeck,0,14,7,right,1,0,46,absent,riskyDeck,617,11361
oogjei95b1,13615,19/03/2022@14:13:38,"Mozilla/5.0 (Macintosh; Intel Mac OS X 10_15_7) AppleWebKit/605.1.15 (KHTML, like Gecko) Version/14.1.2 Safari/605.1.15",1440,900,1442,735,main,2006853,269,32,31,EM,relative_first,relative,Moderate,Easier than Reference,D,j,riskyDeck,safeDeck,0,-28,-14,left,1,0,32,present,riskyDeck,227356,1041
oogjei95b1,13615,19/03/2022@14:13:38,"Mozilla/5.0 (Macintosh; Intel Mac OS X 10_15_7) AppleWebKit/605.1.15 (KHTML, like Gecko) Version/14.1.2 Safari/605.1.15",1440,900,1442,735,main,2006853,270,32,31,EE,relative_first,relative,Extreme,Easier than Reference,F,k,safeDeck,riskyDeck,0,-14,-7,right,1,0,32,absent,riskyDeck,562,3362
oogjei95b1,13615,19/03/2022@14:13:38,"Mozilla/5.0 (Macintosh; Intel Mac OS X 10_15_7) AppleWebKit/605.1.15 (KHTML, like Gecko) Version/14.1.2 Safari/605.1.15",1440,900,1442,735,main,2006853,271,32,31,HM,relative_first,relative,Moderate,Harder than Reference,F,k,safeDeck,riskyDeck,0,14,7,right,1,0,46,absent,riskyDeck,562,3075
oogjei95b1,13615,19/03/2022@14:13:38,"Mozilla/5.0 (Macintosh; Intel Mac OS X 10_15_7) AppleWebKit/605.1.15 (KHTML, like Gecko) Version/14.1.2 Safari/605.1.15",1440,900,1442,735,main,2006853,272,32,31,HE,relative_first,relative,Extreme,Harder than Reference,D,k,riskyDeck,safeDeck,28,0,14,left,1,0,60,absent,riskyDeck,767,113
oogjei95b1,13615,19/03/2022@14:13:38,"Mozilla/5.0 (Macintosh; Intel Mac OS X 10_15_7) AppleWebKit/605.1.15 (KHTML, like Gecko) Version/14.1.2 Safari/605.1.15",1440,900,1442,735,main,2006853,273,32,31,HM,relative_first,relative,Moderate,Harder than Reference,F,k,riskyDeck,safeDeck,0,14,7,right,0,0,39,absent,safeDeck,102,2586
oogjei95b1,13615,19/03/2022@14:13:38,"Mozilla/5.0 (Macintosh; Intel Mac OS X 10_15_7) AppleWebKit/605.1.15 (KHTML, like Gecko) Version/14.1.2 Safari/605.1.15",1440,900,1442,735,main,2006853,274,32,31,EE,relative_first,relative,Extreme,Easier than Reference,D,k,riskyDeck,safeDeck,0,-14,-7,left,1,0,32,absent,riskyDeck,634,874
oogjei95b1,13615,19/03/2022@14:13:38,"Mozilla/5.0 (Macintosh; Intel Mac OS X 10_15_7) AppleWebKit/605.1.15 (KHTML, like Gecko) Version/14.1.2 Safari/605.1.15",1440,900,1442,735,main,2006853,275,32,31,EM,relative_first,relative,Moderate,Easier than Reference,D,j,riskyDeck,safeDeck,0,-28,-14,left,1,0,4,present,riskyDeck,521,624
oogjei95b1,13615,19/03/2022@14:13:38,"Mozilla/5.0 (Macintosh; Intel Mac OS X 10_15_7) AppleWebKit/605.1.15 (KHTML, like Gecko) Version/14.1.2 Safari/605.1.15",1440,900,1442,735,main,2006853,276,32,31,HE,relative_first,relative,Extreme,Harder than Reference,F,k,riskyDeck,safeDeck,0,28,14,right,0,1,46,present,safeDeck,159,203
oogjei95b1,13615,19/03/2022@14:13:38,"Mozilla/5.0 (Macintosh; Intel Mac OS X 10_15_7) AppleWebKit/605.1.15 (KHTML, like Gecko) Version/14.1.2 Safari/605.1.15",1440,900,1442,735,main,2006853,277,33,31,HE,relative_first,relative,Extreme,Harder than Reference,D,k,safeDeck,riskyDeck,0,28,14,left,0,0,46,absent,safeDeck,155,3217
oogjei95b1,13615,19/03/2022@14:13:38,"Mozilla/5.0 (Macintosh; Intel Mac OS X 10_15_7) AppleWebKit/605.1.15 (KHTML, like Gecko) Version/14.1.2 Safari/605.1.15",1440,900,1442,735,main,2006853,278,33,32,HM,relative_first,relative,Moderate,Harder than Reference,F,j,safeDeck,riskyDeck,0,14,7,right,1,0,46,present,riskyDeck,552,22759
oogjei95b1,13615,19/03/2022@14:13:38,"Mozilla/5.0 (Macintosh; Intel Mac OS X 10_15_7) AppleWebKit/605.1.15 (KHTML, like Gecko) Version/14.1.2 Safari/605.1.15",1440,900,1442,735,main,2006853,279,33,32,EE,relative_first,relative,Extreme,Easier than Reference,F,k,safeDeck,riskyDeck,0,-14,-7,right,1,0,32,absent,riskyDeck,1274,2462
oogjei95b1,13615,19/03/2022@14:13:38,"Mozilla/5.0 (Macintosh; Intel Mac OS X 10_15_7) AppleWebKit/605.1.15 (KHTML, like Gecko) Version/14.1.2 Safari/605.1.15",1440,900,1442,735,main,2006853,280,33,32,EM,relative_first,relative,Moderate,Easier than Reference,D,k,safeDeck,riskyDeck,-28,0,-14,left,0,0,18,absent,safeDeck,449,1674
oogjei95b1,13615,19/03/2022@14:13:38,"Mozilla/5.0 (Macintosh; Intel Mac OS X 10_15_7) AppleWebKit/605.1.15 (KHTML, like Gecko) Version/14.1.2 Safari/605.1.15",1440,900,1442,735,main,2006853,281,33,32,HM,relative_first,relative,Moderate,Harder than Reference,D,j,riskyDeck,safeDeck,14,0,7,left,1,0,32,present,riskyDeck,534,2182
oogjei95b1,13615,19/03/2022@14:13:38,"Mozilla/5.0 (Macintosh; Intel Mac OS X 10_15_7) AppleWebKit/605.1.15 (KHTML, like Gecko) Version/14.1.2 Safari/605.1.15",1440,900,1442,735,main,2006853,282,33,32,EM,relative_first,relative,Moderate,Easier than Reference,F,j,safeDeck,riskyDeck,-28,0,-14,right,1,0,4,present,riskyDeck,616,627
oogjei95b1,13615,19/03/2022@14:13:38,"Mozilla/5.0 (Macintosh; Intel Mac OS X 10_15_7) AppleWebKit/605.1.15 (KHTML, like Gecko) Version/14.1.2 Safari/605.1.15",1440,900,1442,735,main,2006853,283,33,32,HE,relative_first,relative,Extreme,Harder than Reference,D,j,safeDeck,riskyDeck,28,0,14,left,0,0,46,present,safeDeck,760,793
oogjei95b1,13615,19/03/2022@14:13:38,"Mozilla/5.0 (Macintosh; Intel Mac OS X 10_15_7) AppleWebKit/605.1.15 (KHTML, like Gecko) Version/14.1.2 Safari/605.1.15",1440,900,1442,735,main,2006853,284,33,32,EE,relative_first,relative,Extreme,Easier than Reference,F,j,safeDeck,riskyDeck,0,-14,-7,right,1,0,18,present,riskyDeck,899,751
oogjei95b1,13615,19/03/2022@14:13:38,"Mozilla/5.0 (Macintosh; Intel Mac OS X 10_15_7) AppleWebKit/605.1.15 (KHTML, like Gecko) Version/14.1.2 Safari/605.1.15",1440,900,1442,735,main,2006853,285,33,32,EM,relative_first,relative,Moderate,Easier than Reference,D,k,riskyDeck,safeDeck,-28,0,-14,left,1,0,32,absent,riskyDeck,504,2375
oogjei95b1,13615,19/03/2022@14:13:38,"Mozilla/5.0 (Macintosh; Intel Mac OS X 10_15_7) AppleWebKit/605.1.15 (KHTML, like Gecko) Version/14.1.2 Safari/605.1.15",1440,900,1442,735,main,2006853,286,33,32,EE,relative_first,relative,Extreme,Easier than Reference,F,j,safeDeck,riskyDeck,-14,0,-7,right,1,0,32,present,riskyDeck,680,921
oogjei95b1,13615,19/03/2022@14:13:38,"Mozilla/5.0 (Macintosh; Intel Mac OS X 10_15_7) AppleWebKit/605.1.15 (KHTML, like Gecko) Version/14.1.2 Safari/605.1.15",1440,900,1442,735,main,2006853,287,34,32,HM,relative_first,relative,Moderate,Harder than Reference,F,k,safeDeck,riskyDeck,0,14,7,right,1,0,46,absent,riskyDeck,543,988
oogjei95b1,13615,19/03/2022@14:13:38,"Mozilla/5.0 (Macintosh; Intel Mac OS X 10_15_7) AppleWebKit/605.1.15 (KHTML, like Gecko) Version/14.1.2 Safari/605.1.15",1440,900,1442,735,main,2006853,288,34,32,HE,relative_first,relative,Extreme,Harder than Reference,D,j,riskyDeck,safeDeck,28,0,14,left,1,0,60,present,riskyDeck,573,1060
oogjei95b1,13615,19/03/2022@14:13:38,"Mozilla/5.0 (Macintosh; Intel Mac OS X 10_15_7) AppleWebKit/605.1.15 (KHTML, like Gecko) Version/14.1.2 Safari/605.1.15",1440,900,1442,735,main,2006853,289,34,32,EE,relative_first,relative,Extreme,Easier than Reference,D,j,riskyDeck,safeDeck,0,-14,-7,left,1,0,18,present,riskyDeck,535,1138
oogjei95b1,13615,19/03/2022@14:13:38,"Mozilla/5.0 (Macintosh; Intel Mac OS X 10_15_7) AppleWebKit/605.1.15 (KHTML, like Gecko) Version/14.1.2 Safari/605.1.15",1440,900,1442,735,main,2006853,290,34,32,HM,relative_first,relative,Moderate,Harder than Reference,F,k,safeDeck,riskyDeck,14,0,7,right,1,0,46,absent,riskyDeck,675,2151
oogjei95b1,13615,19/03/2022@14:13:38,"Mozilla/5.0 (Macintosh; Intel Mac OS X 10_15_7) AppleWebKit/605.1.15 (KHTML, like Gecko) Version/14.1.2 Safari/605.1.15",1440,900,1442,735,main,2006853,291,34,32,EM,relative_first,relative,Moderate,Easier than Reference,F,j,safeDeck,riskyDeck,-28,0,-14,right,1,0,32,present,riskyDeck,556,638
oogjei95b1,13615,19/03/2022@14:13:38,"Mozilla/5.0 (Macintosh; Intel Mac OS X 10_15_7) AppleWebKit/605.1.15 (KHTML, like Gecko) Version/14.1.2 Safari/605.1.15",1440,900,1442,735,main,2006853,292,34,33,HE,relative_first,relative,Extreme,Harder than Reference,F,k,safeDeck,riskyDeck,28,0,14,right,1,0,60,absent,riskyDeck,337,2565
oogjei95b1,13615,19/03/2022@14:13:38,"Mozilla/5.0 (Macintosh; Intel Mac OS X 10_15_7) AppleWebKit/605.1.15 (KHTML, like Gecko) Version/14.1.2 Safari/605.1.15",1440,900,1442,735,main,2006853,293,34,33,EM,relative_first,relative,Moderate,Easier than Reference,D,k,riskyDeck,safeDeck,-28,0,-14,left,1,0,32,absent,riskyDeck,560,870
oogjei95b1,13615,19/03/2022@14:13:38,"Mozilla/5.0 (Macintosh; Intel Mac OS X 10_15_7) AppleWebKit/605.1.15 (KHTML, like Gecko) Version/14.1.2 Safari/605.1.15",1440,900,1442,735,main,2006853,294,34,33,EE,relative_first,relative,Extreme,Easier than Reference,D,k,riskyDeck,safeDeck,-14,0,-7,left,1,0,32,absent,riskyDeck,324,1566
oogjei95b1,13615,19/03/2022@14:13:38,"Mozilla/5.0 (Macintosh; Intel Mac OS X 10_15_7) AppleWebKit/605.1.15 (KHTML, like Gecko) Version/14.1.2 Safari/605.1.15",1440,900,1442,735,main,2006853,295,34,33,HE,relative_first,relative,Extreme,Harder than Reference,D,j,riskyDeck,safeDeck,28,0,14,left,1,0,32,present,riskyDeck,673,3598
oogjei95b1,13615,19/03/2022@14:13:38,"Mozilla/5.0 (Macintosh; Intel Mac OS X 10_15_7) AppleWebKit/605.1.15 (KHTML, like Gecko) Version/14.1.2 Safari/605.1.15",1440,900,1442,735,main,2006853,296,34,33,HM,relative_first,relative,Moderate,Harder than Reference,D,k,riskyDeck,safeDeck,0,14,7,left,1,0,46,absent,riskyDeck,583,1749
oogjei95b1,13615,19/03/2022@14:13:38,"Mozilla/5.0 (Macintosh; Intel Mac OS X 10_15_7) AppleWebKit/605.1.15 (KHTML, like Gecko) Version/14.1.2 Safari/605.1.15",1440,900,1442,735,main,2006853,297,34,33,EE,relative_first,relative,Extreme,Easier than Reference,D,k,riskyDeck,safeDeck,0,-14,-7,left,1,0,32,absent,riskyDeck,427,2286
oogjei95b1,13615,19/03/2022@14:13:38,"Mozilla/5.0 (Macintosh; Intel Mac OS X 10_15_7) AppleWebKit/605.1.15 (KHTML, like Gecko) Version/14.1.2 Safari/605.1.15",1440,900,1442,735,main,2006853,298,34,33,EM,relative_first,relative,Moderate,Easier than Reference,F,j,riskyDeck,safeDeck,0,-28,-14,right,0,0,18,present,safeDeck,450,715
oogjei95b1,13615,19/03/2022@14:13:38,"Mozilla/5.0 (Macintosh; Intel Mac OS X 10_15_7) AppleWebKit/605.1.15 (KHTML, like Gecko) Version/14.1.2 Safari/605.1.15",1440,900,1442,735,main,2006853,299,34,33,HE,relative_first,relative,Extreme,Harder than Reference,D,k,riskyDeck,safeDeck,28,0,14,left,1,0,60,absent,riskyDeck,631,992
oogjei95b1,13615,19/03/2022@14:13:38,"Mozilla/5.0 (Macintosh; Intel Mac OS X 10_15_7) AppleWebKit/605.1.15 (KHTML, like Gecko) Version/14.1.2 Safari/605.1.15",1440,900,1442,735,main,2006853,300,34,33,HM,relative_first,relative,Moderate,Harder than Reference,F,j,safeDeck,riskyDeck,0,14,7,right,1,0,46,present,riskyDeck,631,1400
oogjei95b1,13615,19/03/2022@14:13:38,"Mozilla/5.0 (Macintosh; Intel Mac OS X 10_15_7) AppleWebKit/605.1.15 (KHTML, like Gecko) Version/14.1.2 Safari/605.1.15",1440,900,1442,735,main,2006853,301,34,33,HE,relative_first,relative,Extreme,Harder than Reference,D,j,safeDeck,riskyDeck,0,28,14,left,0,0,46,present,safeDeck,410,152
oogjei95b1,13615,19/03/2022@14:13:38,"Mozilla/5.0 (Macintosh; Intel Mac OS X 10_15_7) AppleWebKit/605.1.15 (KHTML, like Gecko) Version/14.1.2 Safari/605.1.15",1440,900,1442,735,main,2006853,302,34,33,EE,relative_first,relative,Extreme,Easier than Reference,F,j,safeDeck,riskyDeck,0,-14,-7,right,1,0,18,present,riskyDeck,578,878
oogjei95b1,13615,19/03/2022@14:13:38,"Mozilla/5.0 (Macintosh; Intel Mac OS X 10_15_7) AppleWebKit/605.1.15 (KHTML, like Gecko) Version/14.1.2 Safari/605.1.15",1440,900,1442,735,main,2006853,303,34,33,EM,relative_first,relative,Moderate,Easier than Reference,F,k,riskyDeck,safeDeck,0,-28,-14,right,0,0,18,absent,safeDeck,558,198
oogjei95b1,13615,19/03/2022@14:13:38,"Mozilla/5.0 (Macintosh; Intel Mac OS X 10_15_7) AppleWebKit/605.1.15 (KHTML, like Gecko) Version/14.1.2 Safari/605.1.15",1440,900,1442,735,main,2006853,304,34,33,HM,relative_first,relative,Moderate,Harder than Reference,D,k,safeDeck,riskyDeck,14,0,7,left,0,1,39,present,safeDeck,300,40
