subject,sona_id,curTime,userAgent,screenWidth,screenHeight,windowWidth,windowHeight,phase,phase_run_time,trial,exp_runtime_mins,phase_runtime_mins,condition,counterbalance_condition,current_counterbalance_condition,magnitude,direction,choice_response_key,search_response_key,left_deck_id,right_deck_id,risky_deck_outcome_top,risky_deck_outcome_bottom,safe_deck_outcome,selected_deck_location,selectedRiskyDeck,error,n_stimuli,present_or_absent,chosenDeckId,choice_rt,search_rt
rlgp1o8wbuq,13383,21/03/2022@20:14:21,"Mozilla/5.0 (Windows NT 10.0; Win64; x64) AppleWebKit/537.36 (KHTML, like Gecko) Chrome/99.0.4844.74 Safari/537.36",1536,864,1536,714,main,1484376,1,5,1,EE,relative_first,relative,Extreme,Easier than Reference,F,j,riskyDeck,safeDeck,-14,0,-7,right,0,1,25,absent,safeDeck,11191,2978
rlgp1o8wbuq,13383,21/03/2022@20:14:21,"Mozilla/5.0 (Windows NT 10.0; Win64; x64) AppleWebKit/537.36 (KHTML, like Gecko) Chrome/99.0.4844.74 Safari/537.36",1536,864,1536,714,main,1484376,2,5,1,EM,relative_first,relative,Moderate,Easier than Reference,D,j,riskyDeck,safeDeck,-28,0,-14,left,1,1,32,absent,riskyDeck,2906,2269
rlgp1o8wbuq,13383,21/03/2022@20:14:21,"Mozilla/5.0 (Windows NT 10.0; Win64; x64) AppleWebKit/537.36 (KHTML, like Gecko) Chrome/99.0.4844.74 Safari/537.36",1536,864,1536,714,main,1484376,3,6,1,HE,relative_first,relative,Extreme,Harder than Reference,D,k,safeDeck,riskyDeck,28,0,14,left,0,0,46,absent,safeDeck,19418,5976
rlgp1o8wbuq,13383,21/03/2022@20:14:21,"Mozilla/5.0 (Windows NT 10.0; Win64; x64) AppleWebKit/537.36 (KHTML, like Gecko) Chrome/99.0.4844.74 Safari/537.36",1536,864,1536,714,main,1484376,4,6,1,HM,relative_first,relative,Moderate,Harder than Reference,D,j,safeDeck,riskyDeck,14,0,7,left,0,0,39,present,safeDeck,5470,2322
rlgp1o8wbuq,13383,21/03/2022@20:14:21,"Mozilla/5.0 (Windows NT 10.0; Win64; x64) AppleWebKit/537.36 (KHTML, like Gecko) Chrome/99.0.4844.74 Safari/537.36",1536,864,1536,714,main,1484376,5,6,2,EM,relative_first,relative,Moderate,Easier than Reference,F,j,safeDeck,riskyDeck,0,-28,-14,right,1,0,32,present,riskyDeck,4483,1772
rlgp1o8wbuq,13383,21/03/2022@20:14:21,"Mozilla/5.0 (Windows NT 10.0; Win64; x64) AppleWebKit/537.36 (KHTML, like Gecko) Chrome/99.0.4844.74 Safari/537.36",1536,864,1536,714,main,1484376,6,6,2,HE,relative_first,relative,Extreme,Harder than Reference,D,j,riskyDeck,safeDeck,28,0,14,left,1,0,60,present,riskyDeck,4416,3813
rlgp1o8wbuq,13383,21/03/2022@20:14:21,"Mozilla/5.0 (Windows NT 10.0; Win64; x64) AppleWebKit/537.36 (KHTML, like Gecko) Chrome/99.0.4844.74 Safari/537.36",1536,864,1536,714,main,1484376,7,6,2,HM,relative_first,relative,Moderate,Harder than Reference,D,k,riskyDeck,safeDeck,0,14,7,left,1,1,46,present,riskyDeck,3038,2819
rlgp1o8wbuq,13383,21/03/2022@20:14:21,"Mozilla/5.0 (Windows NT 10.0; Win64; x64) AppleWebKit/537.36 (KHTML, like Gecko) Chrome/99.0.4844.74 Safari/537.36",1536,864,1536,714,main,1484376,8,6,2,EE,relative_first,relative,Extreme,Easier than Reference,F,j,safeDeck,riskyDeck,-14,0,-7,right,1,0,18,present,riskyDeck,2893,3522
rlgp1o8wbuq,13383,21/03/2022@20:14:21,"Mozilla/5.0 (Windows NT 10.0; Win64; x64) AppleWebKit/537.36 (KHTML, like Gecko) Chrome/99.0.4844.74 Safari/537.36",1536,864,1536,714,main,1484376,9,7,2,EE,relative_first,relative,Extreme,Easier than Reference,D,k,safeDeck,riskyDeck,-14,0,-7,left,0,0,25,absent,safeDeck,1879,7018
rlgp1o8wbuq,13383,21/03/2022@20:14:21,"Mozilla/5.0 (Windows NT 10.0; Win64; x64) AppleWebKit/537.36 (KHTML, like Gecko) Chrome/99.0.4844.74 Safari/537.36",1536,864,1536,714,main,1484376,10,7,2,HM,relative_first,relative,Moderate,Harder than Reference,D,k,safeDeck,riskyDeck,14,0,7,left,0,1,39,present,safeDeck,1392,5309
rlgp1o8wbuq,13383,21/03/2022@20:14:21,"Mozilla/5.0 (Windows NT 10.0; Win64; x64) AppleWebKit/537.36 (KHTML, like Gecko) Chrome/99.0.4844.74 Safari/537.36",1536,864,1536,714,main,1484376,11,7,2,EM,relative_first,relative,Moderate,Easier than Reference,D,k,riskyDeck,safeDeck,-28,0,-14,left,1,0,32,absent,riskyDeck,1105,4096
rlgp1o8wbuq,13383,21/03/2022@20:14:21,"Mozilla/5.0 (Windows NT 10.0; Win64; x64) AppleWebKit/537.36 (KHTML, like Gecko) Chrome/99.0.4844.74 Safari/537.36",1536,864,1536,714,main,1484376,12,7,3,HE,relative_first,relative,Extreme,Harder than Reference,F,k,safeDeck,riskyDeck,28,0,14,right,1,1,60,present,riskyDeck,3455,6479
rlgp1o8wbuq,13383,21/03/2022@20:14:21,"Mozilla/5.0 (Windows NT 10.0; Win64; x64) AppleWebKit/537.36 (KHTML, like Gecko) Chrome/99.0.4844.74 Safari/537.36",1536,864,1536,714,main,1484376,13,7,3,HE,relative_first,relative,Extreme,Harder than Reference,D,j,safeDeck,riskyDeck,0,28,14,left,0,0,46,present,safeDeck,1531,1784
rlgp1o8wbuq,13383,21/03/2022@20:14:21,"Mozilla/5.0 (Windows NT 10.0; Win64; x64) AppleWebKit/537.36 (KHTML, like Gecko) Chrome/99.0.4844.74 Safari/537.36",1536,864,1536,714,main,1484376,14,7,3,HM,relative_first,relative,Moderate,Harder than Reference,D,k,safeDeck,riskyDeck,14,0,7,left,0,0,39,absent,safeDeck,1788,8248
rlgp1o8wbuq,13383,21/03/2022@20:14:21,"Mozilla/5.0 (Windows NT 10.0; Win64; x64) AppleWebKit/537.36 (KHTML, like Gecko) Chrome/99.0.4844.74 Safari/537.36",1536,864,1536,714,main,1484376,15,8,3,EM,relative_first,relative,Moderate,Easier than Reference,F,k,safeDeck,riskyDeck,-28,0,-14,right,1,0,32,absent,riskyDeck,1460,5106
rlgp1o8wbuq,13383,21/03/2022@20:14:21,"Mozilla/5.0 (Windows NT 10.0; Win64; x64) AppleWebKit/537.36 (KHTML, like Gecko) Chrome/99.0.4844.74 Safari/537.36",1536,864,1536,714,main,1484376,16,8,3,EE,relative_first,relative,Extreme,Easier than Reference,D,j,riskyDeck,safeDeck,-14,0,-7,left,1,0,32,present,riskyDeck,1320,2703
rlgp1o8wbuq,13383,21/03/2022@20:14:21,"Mozilla/5.0 (Windows NT 10.0; Win64; x64) AppleWebKit/537.36 (KHTML, like Gecko) Chrome/99.0.4844.74 Safari/537.36",1536,864,1536,714,main,1484376,17,8,3,HE,relative_first,relative,Extreme,Harder than Reference,F,j,riskyDeck,safeDeck,0,28,14,right,0,0,46,present,safeDeck,1853,8420
rlgp1o8wbuq,13383,21/03/2022@20:14:21,"Mozilla/5.0 (Windows NT 10.0; Win64; x64) AppleWebKit/537.36 (KHTML, like Gecko) Chrome/99.0.4844.74 Safari/537.36",1536,864,1536,714,main,1484376,18,8,3,HM,relative_first,relative,Moderate,Harder than Reference,D,j,riskyDeck,safeDeck,14,0,7,left,1,0,32,present,riskyDeck,2685,1560
rlgp1o8wbuq,13383,21/03/2022@20:14:21,"Mozilla/5.0 (Windows NT 10.0; Win64; x64) AppleWebKit/537.36 (KHTML, like Gecko) Chrome/99.0.4844.74 Safari/537.36",1536,864,1536,714,main,1484376,19,8,4,EE,relative_first,relative,Extreme,Easier than Reference,D,k,safeDeck,riskyDeck,-14,0,-7,left,0,0,25,absent,safeDeck,1298,4484
rlgp1o8wbuq,13383,21/03/2022@20:14:21,"Mozilla/5.0 (Windows NT 10.0; Win64; x64) AppleWebKit/537.36 (KHTML, like Gecko) Chrome/99.0.4844.74 Safari/537.36",1536,864,1536,714,main,1484376,20,8,4,EM,relative_first,relative,Moderate,Easier than Reference,D,j,riskyDeck,safeDeck,-28,0,-14,left,1,0,32,present,riskyDeck,1102,5780
rlgp1o8wbuq,13383,21/03/2022@20:14:21,"Mozilla/5.0 (Windows NT 10.0; Win64; x64) AppleWebKit/537.36 (KHTML, like Gecko) Chrome/99.0.4844.74 Safari/537.36",1536,864,1536,714,main,1484376,21,8,4,HM,relative_first,relative,Moderate,Harder than Reference,F,k,safeDeck,riskyDeck,0,14,7,right,1,0,46,absent,riskyDeck,3999,3856
rlgp1o8wbuq,13383,21/03/2022@20:14:21,"Mozilla/5.0 (Windows NT 10.0; Win64; x64) AppleWebKit/537.36 (KHTML, like Gecko) Chrome/99.0.4844.74 Safari/537.36",1536,864,1536,714,main,1484376,22,9,4,HE,relative_first,relative,Extreme,Harder than Reference,D,k,riskyDeck,safeDeck,28,0,14,left,1,0,32,absent,riskyDeck,1982,7072
rlgp1o8wbuq,13383,21/03/2022@20:14:21,"Mozilla/5.0 (Windows NT 10.0; Win64; x64) AppleWebKit/537.36 (KHTML, like Gecko) Chrome/99.0.4844.74 Safari/537.36",1536,864,1536,714,main,1484376,23,9,4,EM,relative_first,relative,Moderate,Easier than Reference,D,j,safeDeck,riskyDeck,-28,0,-14,left,0,0,18,present,safeDeck,1265,2746
rlgp1o8wbuq,13383,21/03/2022@20:14:21,"Mozilla/5.0 (Windows NT 10.0; Win64; x64) AppleWebKit/537.36 (KHTML, like Gecko) Chrome/99.0.4844.74 Safari/537.36",1536,864,1536,714,main,1484376,24,9,4,EE,relative_first,relative,Extreme,Easier than Reference,D,k,riskyDeck,safeDeck,0,-14,-7,left,1,0,18,absent,riskyDeck,1738,2416
rlgp1o8wbuq,13383,21/03/2022@20:14:21,"Mozilla/5.0 (Windows NT 10.0; Win64; x64) AppleWebKit/537.36 (KHTML, like Gecko) Chrome/99.0.4844.74 Safari/537.36",1536,864,1536,714,main,1484376,25,9,4,HE,relative_first,relative,Extreme,Harder than Reference,F,j,safeDeck,riskyDeck,0,28,14,right,1,1,32,absent,riskyDeck,1173,4873
rlgp1o8wbuq,13383,21/03/2022@20:14:21,"Mozilla/5.0 (Windows NT 10.0; Win64; x64) AppleWebKit/537.36 (KHTML, like Gecko) Chrome/99.0.4844.74 Safari/537.36",1536,864,1536,714,main,1484376,26,9,4,EE,relative_first,relative,Extreme,Easier than Reference,D,j,riskyDeck,safeDeck,0,-14,-7,left,1,0,18,present,riskyDeck,1032,1360
rlgp1o8wbuq,13383,21/03/2022@20:14:21,"Mozilla/5.0 (Windows NT 10.0; Win64; x64) AppleWebKit/537.36 (KHTML, like Gecko) Chrome/99.0.4844.74 Safari/537.36",1536,864,1536,714,main,1484376,27,9,5,HM,relative_first,relative,Moderate,Harder than Reference,F,k,riskyDeck,safeDeck,14,0,7,right,0,0,39,absent,safeDeck,977,6306
rlgp1o8wbuq,13383,21/03/2022@20:14:21,"Mozilla/5.0 (Windows NT 10.0; Win64; x64) AppleWebKit/537.36 (KHTML, like Gecko) Chrome/99.0.4844.74 Safari/537.36",1536,864,1536,714,main,1484376,28,9,5,EM,relative_first,relative,Moderate,Easier than Reference,D,j,riskyDeck,safeDeck,-28,0,-14,left,1,0,32,present,riskyDeck,817,2192
rlgp1o8wbuq,13383,21/03/2022@20:14:21,"Mozilla/5.0 (Windows NT 10.0; Win64; x64) AppleWebKit/537.36 (KHTML, like Gecko) Chrome/99.0.4844.74 Safari/537.36",1536,864,1536,714,main,1484376,29,9,5,HM,relative_first,relative,Moderate,Harder than Reference,F,k,safeDeck,riskyDeck,14,0,7,right,1,0,46,absent,riskyDeck,1200,13918
rlgp1o8wbuq,13383,21/03/2022@20:14:21,"Mozilla/5.0 (Windows NT 10.0; Win64; x64) AppleWebKit/537.36 (KHTML, like Gecko) Chrome/99.0.4844.74 Safari/537.36",1536,864,1536,714,main,1484376,30,10,5,EE,relative_first,relative,Extreme,Easier than Reference,F,j,safeDeck,riskyDeck,-14,0,-7,right,1,0,32,present,riskyDeck,1299,3497
rlgp1o8wbuq,13383,21/03/2022@20:14:21,"Mozilla/5.0 (Windows NT 10.0; Win64; x64) AppleWebKit/537.36 (KHTML, like Gecko) Chrome/99.0.4844.74 Safari/537.36",1536,864,1536,714,main,1484376,31,10,5,HE,relative_first,relative,Extreme,Harder than Reference,D,j,riskyDeck,safeDeck,28,0,14,left,1,0,60,present,riskyDeck,1452,1960
rlgp1o8wbuq,13383,21/03/2022@20:14:21,"Mozilla/5.0 (Windows NT 10.0; Win64; x64) AppleWebKit/537.36 (KHTML, like Gecko) Chrome/99.0.4844.74 Safari/537.36",1536,864,1536,714,main,1484376,32,10,5,EM,relative_first,relative,Moderate,Easier than Reference,D,j,safeDeck,riskyDeck,0,-28,-14,left,0,0,18,present,safeDeck,849,2199
rlgp1o8wbuq,13383,21/03/2022@20:14:21,"Mozilla/5.0 (Windows NT 10.0; Win64; x64) AppleWebKit/537.36 (KHTML, like Gecko) Chrome/99.0.4844.74 Safari/537.36",1536,864,1536,714,main,1484376,33,10,5,HM,relative_first,relative,Moderate,Harder than Reference,D,j,safeDeck,riskyDeck,0,14,7,left,0,0,39,present,safeDeck,1126,2018
rlgp1o8wbuq,13383,21/03/2022@20:14:21,"Mozilla/5.0 (Windows NT 10.0; Win64; x64) AppleWebKit/537.36 (KHTML, like Gecko) Chrome/99.0.4844.74 Safari/537.36",1536,864,1536,714,main,1484376,34,10,5,EM,relative_first,relative,Moderate,Easier than Reference,D,k,riskyDeck,safeDeck,-28,0,-14,left,1,0,4,absent,riskyDeck,840,1416
rlgp1o8wbuq,13383,21/03/2022@20:14:21,"Mozilla/5.0 (Windows NT 10.0; Win64; x64) AppleWebKit/537.36 (KHTML, like Gecko) Chrome/99.0.4844.74 Safari/537.36",1536,864,1536,714,main,1484376,35,10,5,EE,relative_first,relative,Extreme,Easier than Reference,D,j,safeDeck,riskyDeck,0,-14,-7,left,0,0,25,present,safeDeck,1020,1863
rlgp1o8wbuq,13383,21/03/2022@20:14:21,"Mozilla/5.0 (Windows NT 10.0; Win64; x64) AppleWebKit/537.36 (KHTML, like Gecko) Chrome/99.0.4844.74 Safari/537.36",1536,864,1536,714,main,1484376,36,10,6,HE,relative_first,relative,Extreme,Harder than Reference,F,k,safeDeck,riskyDeck,0,28,14,right,1,0,60,absent,riskyDeck,815,5244
rlgp1o8wbuq,13383,21/03/2022@20:14:21,"Mozilla/5.0 (Windows NT 10.0; Win64; x64) AppleWebKit/537.36 (KHTML, like Gecko) Chrome/99.0.4844.74 Safari/537.36",1536,864,1536,714,main,1484376,37,10,6,EE,relative_first,relative,Extreme,Easier than Reference,F,k,safeDeck,riskyDeck,0,-14,-7,right,1,0,18,absent,riskyDeck,1070,3471
rlgp1o8wbuq,13383,21/03/2022@20:14:21,"Mozilla/5.0 (Windows NT 10.0; Win64; x64) AppleWebKit/537.36 (KHTML, like Gecko) Chrome/99.0.4844.74 Safari/537.36",1536,864,1536,714,main,1484376,38,10,6,HE,relative_first,relative,Extreme,Harder than Reference,F,j,safeDeck,riskyDeck,0,28,14,right,1,0,60,present,riskyDeck,904,3384
rlgp1o8wbuq,13383,21/03/2022@20:14:21,"Mozilla/5.0 (Windows NT 10.0; Win64; x64) AppleWebKit/537.36 (KHTML, like Gecko) Chrome/99.0.4844.74 Safari/537.36",1536,864,1536,714,main,1484376,39,10,6,HM,relative_first,relative,Moderate,Harder than Reference,F,k,riskyDeck,safeDeck,0,14,7,right,0,1,39,present,safeDeck,1131,1992
rlgp1o8wbuq,13383,21/03/2022@20:14:21,"Mozilla/5.0 (Windows NT 10.0; Win64; x64) AppleWebKit/537.36 (KHTML, like Gecko) Chrome/99.0.4844.74 Safari/537.36",1536,864,1536,714,main,1484376,40,10,6,EM,relative_first,relative,Moderate,Easier than Reference,D,k,safeDeck,riskyDeck,0,-28,-14,left,0,0,18,absent,safeDeck,514,2681
rlgp1o8wbuq,13383,21/03/2022@20:14:21,"Mozilla/5.0 (Windows NT 10.0; Win64; x64) AppleWebKit/537.36 (KHTML, like Gecko) Chrome/99.0.4844.74 Safari/537.36",1536,864,1536,714,main,1484376,41,10,6,EM,relative_first,relative,Moderate,Easier than Reference,D,j,safeDeck,riskyDeck,-28,0,-14,left,0,0,18,present,safeDeck,635,1175
rlgp1o8wbuq,13383,21/03/2022@20:14:21,"Mozilla/5.0 (Windows NT 10.0; Win64; x64) AppleWebKit/537.36 (KHTML, like Gecko) Chrome/99.0.4844.74 Safari/537.36",1536,864,1536,714,main,1484376,42,11,6,HM,relative_first,relative,Moderate,Harder than Reference,D,j,safeDeck,riskyDeck,0,14,7,left,0,0,39,present,safeDeck,975,6491
rlgp1o8wbuq,13383,21/03/2022@20:14:21,"Mozilla/5.0 (Windows NT 10.0; Win64; x64) AppleWebKit/537.36 (KHTML, like Gecko) Chrome/99.0.4844.74 Safari/537.36",1536,864,1536,714,main,1484376,43,11,6,EE,relative_first,relative,Extreme,Easier than Reference,F,j,safeDeck,riskyDeck,0,-14,-7,right,1,0,18,present,riskyDeck,869,1088
rlgp1o8wbuq,13383,21/03/2022@20:14:21,"Mozilla/5.0 (Windows NT 10.0; Win64; x64) AppleWebKit/537.36 (KHTML, like Gecko) Chrome/99.0.4844.74 Safari/537.36",1536,864,1536,714,main,1484376,44,11,6,HE,relative_first,relative,Extreme,Harder than Reference,F,k,riskyDeck,safeDeck,0,28,14,right,0,0,46,absent,safeDeck,941,12939
rlgp1o8wbuq,13383,21/03/2022@20:14:21,"Mozilla/5.0 (Windows NT 10.0; Win64; x64) AppleWebKit/537.36 (KHTML, like Gecko) Chrome/99.0.4844.74 Safari/537.36",1536,864,1536,714,main,1484376,45,11,7,HM,relative_first,relative,Moderate,Harder than Reference,D,k,safeDeck,riskyDeck,14,0,7,left,0,0,39,absent,safeDeck,3008,3140
rlgp1o8wbuq,13383,21/03/2022@20:14:21,"Mozilla/5.0 (Windows NT 10.0; Win64; x64) AppleWebKit/537.36 (KHTML, like Gecko) Chrome/99.0.4844.74 Safari/537.36",1536,864,1536,714,main,1484376,46,11,7,HE,relative_first,relative,Extreme,Harder than Reference,D,k,safeDeck,riskyDeck,28,0,14,left,0,0,46,absent,safeDeck,1268,3825
rlgp1o8wbuq,13383,21/03/2022@20:14:21,"Mozilla/5.0 (Windows NT 10.0; Win64; x64) AppleWebKit/537.36 (KHTML, like Gecko) Chrome/99.0.4844.74 Safari/537.36",1536,864,1536,714,main,1484376,47,11,7,EM,relative_first,relative,Moderate,Easier than Reference,D,j,riskyDeck,safeDeck,0,-28,-14,left,1,0,4,present,riskyDeck,927,1509
rlgp1o8wbuq,13383,21/03/2022@20:14:21,"Mozilla/5.0 (Windows NT 10.0; Win64; x64) AppleWebKit/537.36 (KHTML, like Gecko) Chrome/99.0.4844.74 Safari/537.36",1536,864,1536,714,main,1484376,48,11,7,EE,relative_first,relative,Extreme,Easier than Reference,D,k,safeDeck,riskyDeck,0,-14,-7,left,0,0,25,absent,safeDeck,1490,2922
rlgp1o8wbuq,13383,21/03/2022@20:14:21,"Mozilla/5.0 (Windows NT 10.0; Win64; x64) AppleWebKit/537.36 (KHTML, like Gecko) Chrome/99.0.4844.74 Safari/537.36",1536,864,1536,714,main,1484376,49,12,7,HE,relative_first,relative,Extreme,Harder than Reference,F,k,riskyDeck,safeDeck,28,0,14,right,0,1,46,present,safeDeck,4754,1957
rlgp1o8wbuq,13383,21/03/2022@20:14:21,"Mozilla/5.0 (Windows NT 10.0; Win64; x64) AppleWebKit/537.36 (KHTML, like Gecko) Chrome/99.0.4844.74 Safari/537.36",1536,864,1536,714,main,1484376,50,12,7,EE,relative_first,relative,Extreme,Easier than Reference,D,k,riskyDeck,safeDeck,-14,0,-7,left,1,0,32,absent,riskyDeck,697,5186
rlgp1o8wbuq,13383,21/03/2022@20:14:21,"Mozilla/5.0 (Windows NT 10.0; Win64; x64) AppleWebKit/537.36 (KHTML, like Gecko) Chrome/99.0.4844.74 Safari/537.36",1536,864,1536,714,main,1484376,51,12,7,EM,relative_first,relative,Moderate,Easier than Reference,D,j,riskyDeck,safeDeck,-28,0,-14,left,1,0,32,present,riskyDeck,574,1740
rlgp1o8wbuq,13383,21/03/2022@20:14:21,"Mozilla/5.0 (Windows NT 10.0; Win64; x64) AppleWebKit/537.36 (KHTML, like Gecko) Chrome/99.0.4844.74 Safari/537.36",1536,864,1536,714,main,1484376,52,12,7,HM,relative_first,relative,Moderate,Harder than Reference,F,j,safeDeck,riskyDeck,0,14,7,right,1,0,46,present,riskyDeck,1064,3285
rlgp1o8wbuq,13383,21/03/2022@20:14:21,"Mozilla/5.0 (Windows NT 10.0; Win64; x64) AppleWebKit/537.36 (KHTML, like Gecko) Chrome/99.0.4844.74 Safari/537.36",1536,864,1536,714,main,1484376,53,12,8,HM,relative_first,relative,Moderate,Harder than Reference,F,j,riskyDeck,safeDeck,14,0,7,right,0,0,39,present,safeDeck,1000,1783
rlgp1o8wbuq,13383,21/03/2022@20:14:21,"Mozilla/5.0 (Windows NT 10.0; Win64; x64) AppleWebKit/537.36 (KHTML, like Gecko) Chrome/99.0.4844.74 Safari/537.36",1536,864,1536,714,main,1484376,54,12,8,EM,relative_first,relative,Moderate,Easier than Reference,D,j,safeDeck,riskyDeck,-28,0,-14,left,0,0,18,present,safeDeck,561,1607
rlgp1o8wbuq,13383,21/03/2022@20:14:21,"Mozilla/5.0 (Windows NT 10.0; Win64; x64) AppleWebKit/537.36 (KHTML, like Gecko) Chrome/99.0.4844.74 Safari/537.36",1536,864,1536,714,main,1484376,55,12,8,HE,relative_first,relative,Extreme,Harder than Reference,F,k,riskyDeck,safeDeck,0,28,14,right,0,0,46,absent,safeDeck,999,3582
rlgp1o8wbuq,13383,21/03/2022@20:14:21,"Mozilla/5.0 (Windows NT 10.0; Win64; x64) AppleWebKit/537.36 (KHTML, like Gecko) Chrome/99.0.4844.74 Safari/537.36",1536,864,1536,714,main,1484376,56,12,8,EE,relative_first,relative,Extreme,Easier than Reference,F,j,safeDeck,riskyDeck,0,-14,-7,right,1,0,32,present,riskyDeck,868,1562
rlgp1o8wbuq,13383,21/03/2022@20:14:21,"Mozilla/5.0 (Windows NT 10.0; Win64; x64) AppleWebKit/537.36 (KHTML, like Gecko) Chrome/99.0.4844.74 Safari/537.36",1536,864,1536,714,main,1484376,57,12,8,EM,relative_first,relative,Moderate,Easier than Reference,D,k,riskyDeck,safeDeck,-28,0,-14,left,1,1,32,present,riskyDeck,813,1619
rlgp1o8wbuq,13383,21/03/2022@20:14:21,"Mozilla/5.0 (Windows NT 10.0; Win64; x64) AppleWebKit/537.36 (KHTML, like Gecko) Chrome/99.0.4844.74 Safari/537.36",1536,864,1536,714,main,1484376,58,12,8,EE,relative_first,relative,Extreme,Easier than Reference,D,j,riskyDeck,safeDeck,0,-14,-7,left,1,0,18,present,riskyDeck,627,878
rlgp1o8wbuq,13383,21/03/2022@20:14:21,"Mozilla/5.0 (Windows NT 10.0; Win64; x64) AppleWebKit/537.36 (KHTML, like Gecko) Chrome/99.0.4844.74 Safari/537.36",1536,864,1536,714,main,1484376,59,12,8,HE,relative_first,relative,Extreme,Harder than Reference,F,j,riskyDeck,safeDeck,28,0,14,right,0,0,46,present,safeDeck,826,1280
rlgp1o8wbuq,13383,21/03/2022@20:14:21,"Mozilla/5.0 (Windows NT 10.0; Win64; x64) AppleWebKit/537.36 (KHTML, like Gecko) Chrome/99.0.4844.74 Safari/537.36",1536,864,1536,714,main,1484376,60,13,8,HM,relative_first,relative,Moderate,Harder than Reference,F,j,riskyDeck,safeDeck,14,0,7,right,0,0,39,present,safeDeck,1436,1757
rlgp1o8wbuq,13383,21/03/2022@20:14:21,"Mozilla/5.0 (Windows NT 10.0; Win64; x64) AppleWebKit/537.36 (KHTML, like Gecko) Chrome/99.0.4844.74 Safari/537.36",1536,864,1536,714,main,1484376,61,13,8,HM,relative_first,relative,Moderate,Harder than Reference,D,j,riskyDeck,safeDeck,0,14,7,left,1,0,32,present,riskyDeck,1185,875
rlgp1o8wbuq,13383,21/03/2022@20:14:21,"Mozilla/5.0 (Windows NT 10.0; Win64; x64) AppleWebKit/537.36 (KHTML, like Gecko) Chrome/99.0.4844.74 Safari/537.36",1536,864,1536,714,main,1484376,62,13,8,HE,relative_first,relative,Extreme,Harder than Reference,D,j,safeDeck,riskyDeck,28,0,14,left,0,0,46,present,safeDeck,1570,1743
rlgp1o8wbuq,13383,21/03/2022@20:14:21,"Mozilla/5.0 (Windows NT 10.0; Win64; x64) AppleWebKit/537.36 (KHTML, like Gecko) Chrome/99.0.4844.74 Safari/537.36",1536,864,1536,714,main,1484376,63,13,8,EM,relative_first,relative,Moderate,Easier than Reference,D,k,riskyDeck,safeDeck,-28,0,-14,left,1,0,32,absent,riskyDeck,862,3988
rlgp1o8wbuq,13383,21/03/2022@20:14:21,"Mozilla/5.0 (Windows NT 10.0; Win64; x64) AppleWebKit/537.36 (KHTML, like Gecko) Chrome/99.0.4844.74 Safari/537.36",1536,864,1536,714,main,1484376,64,13,8,EE,relative_first,relative,Extreme,Easier than Reference,F,k,safeDeck,riskyDeck,-14,0,-7,right,1,0,18,absent,riskyDeck,1239,2310
rlgp1o8wbuq,13383,21/03/2022@20:14:21,"Mozilla/5.0 (Windows NT 10.0; Win64; x64) AppleWebKit/537.36 (KHTML, like Gecko) Chrome/99.0.4844.74 Safari/537.36",1536,864,1536,714,main,1484376,65,13,8,HM,relative_first,relative,Moderate,Harder than Reference,F,j,safeDeck,riskyDeck,14,0,7,right,1,0,32,present,riskyDeck,1498,2771
rlgp1o8wbuq,13383,21/03/2022@20:14:21,"Mozilla/5.0 (Windows NT 10.0; Win64; x64) AppleWebKit/537.36 (KHTML, like Gecko) Chrome/99.0.4844.74 Safari/537.36",1536,864,1536,714,main,1484376,66,13,9,EM,relative_first,relative,Moderate,Easier than Reference,F,k,safeDeck,riskyDeck,-28,0,-14,right,1,0,4,absent,riskyDeck,1195,1411
rlgp1o8wbuq,13383,21/03/2022@20:14:21,"Mozilla/5.0 (Windows NT 10.0; Win64; x64) AppleWebKit/537.36 (KHTML, like Gecko) Chrome/99.0.4844.74 Safari/537.36",1536,864,1536,714,main,1484376,67,13,9,HE,relative_first,relative,Extreme,Harder than Reference,D,k,safeDeck,riskyDeck,0,28,14,left,0,0,46,absent,safeDeck,971,4372
rlgp1o8wbuq,13383,21/03/2022@20:14:21,"Mozilla/5.0 (Windows NT 10.0; Win64; x64) AppleWebKit/537.36 (KHTML, like Gecko) Chrome/99.0.4844.74 Safari/537.36",1536,864,1536,714,main,1484376,68,13,9,EE,relative_first,relative,Extreme,Easier than Reference,D,k,safeDeck,riskyDeck,0,-14,-7,left,0,0,25,absent,safeDeck,799,2737
rlgp1o8wbuq,13383,21/03/2022@20:14:21,"Mozilla/5.0 (Windows NT 10.0; Win64; x64) AppleWebKit/537.36 (KHTML, like Gecko) Chrome/99.0.4844.74 Safari/537.36",1536,864,1536,714,main,1484376,69,13,9,EE,relative_first,relative,Extreme,Easier than Reference,F,k,safeDeck,riskyDeck,-14,0,-7,right,1,0,32,absent,riskyDeck,866,6898
rlgp1o8wbuq,13383,21/03/2022@20:14:21,"Mozilla/5.0 (Windows NT 10.0; Win64; x64) AppleWebKit/537.36 (KHTML, like Gecko) Chrome/99.0.4844.74 Safari/537.36",1536,864,1536,714,main,1484376,70,13,9,EM,relative_first,relative,Moderate,Easier than Reference,F,k,safeDeck,riskyDeck,0,-28,-14,right,1,0,4,absent,riskyDeck,727,1263
rlgp1o8wbuq,13383,21/03/2022@20:14:21,"Mozilla/5.0 (Windows NT 10.0; Win64; x64) AppleWebKit/537.36 (KHTML, like Gecko) Chrome/99.0.4844.74 Safari/537.36",1536,864,1536,714,main,1484376,71,14,9,HM,relative_first,relative,Moderate,Harder than Reference,D,k,safeDeck,riskyDeck,0,14,7,left,0,0,39,absent,safeDeck,710,5220
rlgp1o8wbuq,13383,21/03/2022@20:14:21,"Mozilla/5.0 (Windows NT 10.0; Win64; x64) AppleWebKit/537.36 (KHTML, like Gecko) Chrome/99.0.4844.74 Safari/537.36",1536,864,1536,714,main,1484376,72,14,9,HE,relative_first,relative,Extreme,Harder than Reference,F,k,safeDeck,riskyDeck,28,0,14,right,1,0,60,absent,riskyDeck,1494,1164
rlgp1o8wbuq,13383,21/03/2022@20:14:21,"Mozilla/5.0 (Windows NT 10.0; Win64; x64) AppleWebKit/537.36 (KHTML, like Gecko) Chrome/99.0.4844.74 Safari/537.36",1536,864,1536,714,main,1484376,73,14,9,EM,relative_first,relative,Moderate,Easier than Reference,D,j,safeDeck,riskyDeck,0,-28,-14,left,0,0,18,present,safeDeck,1725,1078
rlgp1o8wbuq,13383,21/03/2022@20:14:21,"Mozilla/5.0 (Windows NT 10.0; Win64; x64) AppleWebKit/537.36 (KHTML, like Gecko) Chrome/99.0.4844.74 Safari/537.36",1536,864,1536,714,main,1484376,74,14,9,EE,relative_first,relative,Extreme,Easier than Reference,D,k,riskyDeck,safeDeck,0,-14,-7,left,1,0,32,absent,riskyDeck,744,3568
rlgp1o8wbuq,13383,21/03/2022@20:14:21,"Mozilla/5.0 (Windows NT 10.0; Win64; x64) AppleWebKit/537.36 (KHTML, like Gecko) Chrome/99.0.4844.74 Safari/537.36",1536,864,1536,714,main,1484376,75,14,9,HE,relative_first,relative,Extreme,Harder than Reference,F,j,safeDeck,riskyDeck,28,0,14,right,1,0,32,present,riskyDeck,1187,1000
rlgp1o8wbuq,13383,21/03/2022@20:14:21,"Mozilla/5.0 (Windows NT 10.0; Win64; x64) AppleWebKit/537.36 (KHTML, like Gecko) Chrome/99.0.4844.74 Safari/537.36",1536,864,1536,714,main,1484376,76,14,9,HM,relative_first,relative,Moderate,Harder than Reference,D,k,safeDeck,riskyDeck,0,14,7,left,0,0,39,absent,safeDeck,734,3073
rlgp1o8wbuq,13383,21/03/2022@20:14:21,"Mozilla/5.0 (Windows NT 10.0; Win64; x64) AppleWebKit/537.36 (KHTML, like Gecko) Chrome/99.0.4844.74 Safari/537.36",1536,864,1536,714,main,1484376,77,14,10,EM,relative_first,relative,Moderate,Easier than Reference,D,k,riskyDeck,safeDeck,-28,0,-14,left,1,0,4,absent,riskyDeck,581,1162
rlgp1o8wbuq,13383,21/03/2022@20:14:21,"Mozilla/5.0 (Windows NT 10.0; Win64; x64) AppleWebKit/537.36 (KHTML, like Gecko) Chrome/99.0.4844.74 Safari/537.36",1536,864,1536,714,main,1484376,78,14,10,HE,relative_first,relative,Extreme,Harder than Reference,F,k,riskyDeck,safeDeck,0,28,14,right,0,0,46,absent,safeDeck,1452,3834
rlgp1o8wbuq,13383,21/03/2022@20:14:21,"Mozilla/5.0 (Windows NT 10.0; Win64; x64) AppleWebKit/537.36 (KHTML, like Gecko) Chrome/99.0.4844.74 Safari/537.36",1536,864,1536,714,main,1484376,79,14,10,EE,relative_first,relative,Extreme,Easier than Reference,D,j,safeDeck,riskyDeck,0,-14,-7,left,0,0,25,present,safeDeck,1479,3035
rlgp1o8wbuq,13383,21/03/2022@20:14:21,"Mozilla/5.0 (Windows NT 10.0; Win64; x64) AppleWebKit/537.36 (KHTML, like Gecko) Chrome/99.0.4844.74 Safari/537.36",1536,864,1536,714,main,1484376,80,14,10,HM,relative_first,relative,Moderate,Harder than Reference,F,k,safeDeck,riskyDeck,14,0,7,right,1,0,32,absent,riskyDeck,862,3958
rlgp1o8wbuq,13383,21/03/2022@20:14:21,"Mozilla/5.0 (Windows NT 10.0; Win64; x64) AppleWebKit/537.36 (KHTML, like Gecko) Chrome/99.0.4844.74 Safari/537.36",1536,864,1536,714,main,1484376,81,14,10,HM,relative_first,relative,Moderate,Harder than Reference,D,k,safeDeck,riskyDeck,0,14,7,left,0,1,39,present,safeDeck,1097,2104
rlgp1o8wbuq,13383,21/03/2022@20:14:21,"Mozilla/5.0 (Windows NT 10.0; Win64; x64) AppleWebKit/537.36 (KHTML, like Gecko) Chrome/99.0.4844.74 Safari/537.36",1536,864,1536,714,main,1484376,82,14,10,EE,relative_first,relative,Extreme,Easier than Reference,F,j,safeDeck,riskyDeck,-14,0,-7,right,1,0,18,present,riskyDeck,900,1611
rlgp1o8wbuq,13383,21/03/2022@20:14:21,"Mozilla/5.0 (Windows NT 10.0; Win64; x64) AppleWebKit/537.36 (KHTML, like Gecko) Chrome/99.0.4844.74 Safari/537.36",1536,864,1536,714,main,1484376,83,15,10,EM,relative_first,relative,Moderate,Easier than Reference,D,j,riskyDeck,safeDeck,0,-28,-14,left,1,0,4,present,riskyDeck,1121,704
rlgp1o8wbuq,13383,21/03/2022@20:14:21,"Mozilla/5.0 (Windows NT 10.0; Win64; x64) AppleWebKit/537.36 (KHTML, like Gecko) Chrome/99.0.4844.74 Safari/537.36",1536,864,1536,714,main,1484376,84,15,10,HE,relative_first,relative,Extreme,Harder than Reference,F,j,riskyDeck,safeDeck,28,0,14,right,0,0,46,present,safeDeck,952,2061
rlgp1o8wbuq,13383,21/03/2022@20:14:21,"Mozilla/5.0 (Windows NT 10.0; Win64; x64) AppleWebKit/537.36 (KHTML, like Gecko) Chrome/99.0.4844.74 Safari/537.36",1536,864,1536,714,main,1484376,85,15,10,HE,relative_first,relative,Extreme,Harder than Reference,F,j,safeDeck,riskyDeck,0,28,14,right,1,0,32,present,riskyDeck,942,1035
rlgp1o8wbuq,13383,21/03/2022@20:14:21,"Mozilla/5.0 (Windows NT 10.0; Win64; x64) AppleWebKit/537.36 (KHTML, like Gecko) Chrome/99.0.4844.74 Safari/537.36",1536,864,1536,714,main,1484376,86,15,10,HM,relative_first,relative,Moderate,Harder than Reference,D,j,safeDeck,riskyDeck,14,0,7,left,0,0,39,present,safeDeck,680,1772
rlgp1o8wbuq,13383,21/03/2022@20:14:21,"Mozilla/5.0 (Windows NT 10.0; Win64; x64) AppleWebKit/537.36 (KHTML, like Gecko) Chrome/99.0.4844.74 Safari/537.36",1536,864,1536,714,main,1484376,87,15,10,EE,relative_first,relative,Extreme,Easier than Reference,F,j,safeDeck,riskyDeck,0,-14,-7,right,1,0,18,present,riskyDeck,7578,1455
rlgp1o8wbuq,13383,21/03/2022@20:14:21,"Mozilla/5.0 (Windows NT 10.0; Win64; x64) AppleWebKit/537.36 (KHTML, like Gecko) Chrome/99.0.4844.74 Safari/537.36",1536,864,1536,714,main,1484376,88,15,11,EM,relative_first,relative,Moderate,Easier than Reference,F,j,safeDeck,riskyDeck,-28,0,-14,right,1,0,4,present,riskyDeck,2219,1161
rlgp1o8wbuq,13383,21/03/2022@20:14:21,"Mozilla/5.0 (Windows NT 10.0; Win64; x64) AppleWebKit/537.36 (KHTML, like Gecko) Chrome/99.0.4844.74 Safari/537.36",1536,864,1536,714,main,1484376,89,15,11,HE,relative_first,relative,Extreme,Harder than Reference,F,j,safeDeck,riskyDeck,0,28,14,right,1,0,32,present,riskyDeck,1070,1034
rlgp1o8wbuq,13383,21/03/2022@20:14:21,"Mozilla/5.0 (Windows NT 10.0; Win64; x64) AppleWebKit/537.36 (KHTML, like Gecko) Chrome/99.0.4844.74 Safari/537.36",1536,864,1536,714,main,1484376,90,15,11,EM,relative_first,relative,Moderate,Easier than Reference,D,j,safeDeck,riskyDeck,0,-28,-14,left,0,0,18,present,safeDeck,421,1093
rlgp1o8wbuq,13383,21/03/2022@20:14:21,"Mozilla/5.0 (Windows NT 10.0; Win64; x64) AppleWebKit/537.36 (KHTML, like Gecko) Chrome/99.0.4844.74 Safari/537.36",1536,864,1536,714,main,1484376,91,15,11,EE,relative_first,relative,Extreme,Easier than Reference,F,j,safeDeck,riskyDeck,0,-14,-7,right,1,0,18,present,riskyDeck,644,1134
rlgp1o8wbuq,13383,21/03/2022@20:14:21,"Mozilla/5.0 (Windows NT 10.0; Win64; x64) AppleWebKit/537.36 (KHTML, like Gecko) Chrome/99.0.4844.74 Safari/537.36",1536,864,1536,714,main,1484376,92,15,11,HM,relative_first,relative,Moderate,Harder than Reference,F,k,riskyDeck,safeDeck,0,14,7,right,0,0,39,absent,safeDeck,1195,1803
rlgp1o8wbuq,13383,21/03/2022@20:14:21,"Mozilla/5.0 (Windows NT 10.0; Win64; x64) AppleWebKit/537.36 (KHTML, like Gecko) Chrome/99.0.4844.74 Safari/537.36",1536,864,1536,714,main,1484376,93,15,11,HM,relative_first,relative,Moderate,Harder than Reference,D,k,safeDeck,riskyDeck,0,14,7,left,0,0,39,absent,safeDeck,875,2992
rlgp1o8wbuq,13383,21/03/2022@20:14:21,"Mozilla/5.0 (Windows NT 10.0; Win64; x64) AppleWebKit/537.36 (KHTML, like Gecko) Chrome/99.0.4844.74 Safari/537.36",1536,864,1536,714,main,1484376,94,15,11,EM,relative_first,relative,Moderate,Easier than Reference,F,j,riskyDeck,safeDeck,-28,0,-14,right,0,0,18,present,safeDeck,1092,1042
rlgp1o8wbuq,13383,21/03/2022@20:14:21,"Mozilla/5.0 (Windows NT 10.0; Win64; x64) AppleWebKit/537.36 (KHTML, like Gecko) Chrome/99.0.4844.74 Safari/537.36",1536,864,1536,714,main,1484376,95,16,11,HE,relative_first,relative,Extreme,Harder than Reference,F,k,riskyDeck,safeDeck,0,28,14,right,0,1,46,present,safeDeck,1464,1414
rlgp1o8wbuq,13383,21/03/2022@20:14:21,"Mozilla/5.0 (Windows NT 10.0; Win64; x64) AppleWebKit/537.36 (KHTML, like Gecko) Chrome/99.0.4844.74 Safari/537.36",1536,864,1536,714,main,1484376,96,16,11,EE,relative_first,relative,Extreme,Easier than Reference,F,k,safeDeck,riskyDeck,-14,0,-7,right,1,0,18,absent,riskyDeck,738,2273
rlgp1o8wbuq,13383,21/03/2022@20:14:21,"Mozilla/5.0 (Windows NT 10.0; Win64; x64) AppleWebKit/537.36 (KHTML, like Gecko) Chrome/99.0.4844.74 Safari/537.36",1536,864,1536,714,main,1484376,97,16,11,EE,relative_first,relative,Extreme,Easier than Reference,D,k,riskyDeck,safeDeck,-14,0,-7,left,1,0,32,absent,riskyDeck,633,3273
rlgp1o8wbuq,13383,21/03/2022@20:14:21,"Mozilla/5.0 (Windows NT 10.0; Win64; x64) AppleWebKit/537.36 (KHTML, like Gecko) Chrome/99.0.4844.74 Safari/537.36",1536,864,1536,714,main,1484376,98,16,11,EM,relative_first,relative,Moderate,Easier than Reference,D,k,riskyDeck,safeDeck,0,-28,-14,left,1,0,4,absent,riskyDeck,960,1004
rlgp1o8wbuq,13383,21/03/2022@20:14:21,"Mozilla/5.0 (Windows NT 10.0; Win64; x64) AppleWebKit/537.36 (KHTML, like Gecko) Chrome/99.0.4844.74 Safari/537.36",1536,864,1536,714,main,1484376,99,16,11,HE,relative_first,relative,Extreme,Harder than Reference,F,k,safeDeck,riskyDeck,28,0,14,right,1,0,32,absent,riskyDeck,917,3022
rlgp1o8wbuq,13383,21/03/2022@20:14:21,"Mozilla/5.0 (Windows NT 10.0; Win64; x64) AppleWebKit/537.36 (KHTML, like Gecko) Chrome/99.0.4844.74 Safari/537.36",1536,864,1536,714,main,1484376,100,16,11,HM,relative_first,relative,Moderate,Harder than Reference,F,j,riskyDeck,safeDeck,14,0,7,right,0,0,39,present,safeDeck,1133,1229
rlgp1o8wbuq,13383,21/03/2022@20:14:21,"Mozilla/5.0 (Windows NT 10.0; Win64; x64) AppleWebKit/537.36 (KHTML, like Gecko) Chrome/99.0.4844.74 Safari/537.36",1536,864,1536,714,main,1484376,101,16,12,EM,relative_first,relative,Moderate,Easier than Reference,D,k,riskyDeck,safeDeck,0,-28,-14,left,1,0,32,absent,riskyDeck,885,2413
rlgp1o8wbuq,13383,21/03/2022@20:14:21,"Mozilla/5.0 (Windows NT 10.0; Win64; x64) AppleWebKit/537.36 (KHTML, like Gecko) Chrome/99.0.4844.74 Safari/537.36",1536,864,1536,714,main,1484376,102,16,12,EE,relative_first,relative,Extreme,Easier than Reference,F,k,safeDeck,riskyDeck,-14,0,-7,right,1,0,32,absent,riskyDeck,624,1875
rlgp1o8wbuq,13383,21/03/2022@20:14:21,"Mozilla/5.0 (Windows NT 10.0; Win64; x64) AppleWebKit/537.36 (KHTML, like Gecko) Chrome/99.0.4844.74 Safari/537.36",1536,864,1536,714,main,1484376,103,16,12,HE,relative_first,relative,Extreme,Harder than Reference,F,j,riskyDeck,safeDeck,0,28,14,right,0,0,46,present,safeDeck,765,2855
rlgp1o8wbuq,13383,21/03/2022@20:14:21,"Mozilla/5.0 (Windows NT 10.0; Win64; x64) AppleWebKit/537.36 (KHTML, like Gecko) Chrome/99.0.4844.74 Safari/537.36",1536,864,1536,714,main,1484376,104,16,12,HM,relative_first,relative,Moderate,Harder than Reference,F,k,safeDeck,riskyDeck,14,0,7,right,1,0,32,absent,riskyDeck,778,1711
rlgp1o8wbuq,13383,21/03/2022@20:14:21,"Mozilla/5.0 (Windows NT 10.0; Win64; x64) AppleWebKit/537.36 (KHTML, like Gecko) Chrome/99.0.4844.74 Safari/537.36",1536,864,1536,714,main,1484376,105,16,12,HM,relative_first,relative,Moderate,Harder than Reference,D,j,safeDeck,riskyDeck,0,14,7,left,0,0,39,present,safeDeck,829,1784
rlgp1o8wbuq,13383,21/03/2022@20:14:21,"Mozilla/5.0 (Windows NT 10.0; Win64; x64) AppleWebKit/537.36 (KHTML, like Gecko) Chrome/99.0.4844.74 Safari/537.36",1536,864,1536,714,main,1484376,106,16,12,EM,relative_first,relative,Moderate,Easier than Reference,F,k,safeDeck,riskyDeck,0,-28,-14,right,1,0,32,absent,riskyDeck,981,1744
rlgp1o8wbuq,13383,21/03/2022@20:14:21,"Mozilla/5.0 (Windows NT 10.0; Win64; x64) AppleWebKit/537.36 (KHTML, like Gecko) Chrome/99.0.4844.74 Safari/537.36",1536,864,1536,714,main,1484376,107,16,12,EE,relative_first,relative,Extreme,Easier than Reference,D,j,riskyDeck,safeDeck,-14,0,-7,left,1,0,18,present,riskyDeck,588,750
rlgp1o8wbuq,13383,21/03/2022@20:14:21,"Mozilla/5.0 (Windows NT 10.0; Win64; x64) AppleWebKit/537.36 (KHTML, like Gecko) Chrome/99.0.4844.74 Safari/537.36",1536,864,1536,714,main,1484376,108,16,12,HE,relative_first,relative,Extreme,Harder than Reference,F,j,safeDeck,riskyDeck,28,0,14,right,1,0,60,present,riskyDeck,1214,1038
rlgp1o8wbuq,13383,21/03/2022@20:14:21,"Mozilla/5.0 (Windows NT 10.0; Win64; x64) AppleWebKit/537.36 (KHTML, like Gecko) Chrome/99.0.4844.74 Safari/537.36",1536,864,1536,714,main,1484376,109,17,12,HM,relative_first,relative,Moderate,Harder than Reference,D,j,riskyDeck,safeDeck,14,0,7,left,1,0,46,present,riskyDeck,925,1170
rlgp1o8wbuq,13383,21/03/2022@20:14:21,"Mozilla/5.0 (Windows NT 10.0; Win64; x64) AppleWebKit/537.36 (KHTML, like Gecko) Chrome/99.0.4844.74 Safari/537.36",1536,864,1536,714,main,1484376,110,17,12,HE,relative_first,relative,Extreme,Harder than Reference,F,j,safeDeck,riskyDeck,28,0,14,right,1,0,60,present,riskyDeck,1198,1280
rlgp1o8wbuq,13383,21/03/2022@20:14:21,"Mozilla/5.0 (Windows NT 10.0; Win64; x64) AppleWebKit/537.36 (KHTML, like Gecko) Chrome/99.0.4844.74 Safari/537.36",1536,864,1536,714,main,1484376,111,17,12,EE,relative_first,relative,Extreme,Easier than Reference,D,j,safeDeck,riskyDeck,0,-14,-7,left,0,0,25,present,safeDeck,622,1090
rlgp1o8wbuq,13383,21/03/2022@20:14:21,"Mozilla/5.0 (Windows NT 10.0; Win64; x64) AppleWebKit/537.36 (KHTML, like Gecko) Chrome/99.0.4844.74 Safari/537.36",1536,864,1536,714,main,1484376,112,17,12,EM,relative_first,relative,Moderate,Easier than Reference,D,j,safeDeck,riskyDeck,-28,0,-14,left,0,0,18,present,safeDeck,616,838
rlgp1o8wbuq,13383,21/03/2022@20:14:21,"Mozilla/5.0 (Windows NT 10.0; Win64; x64) AppleWebKit/537.36 (KHTML, like Gecko) Chrome/99.0.4844.74 Safari/537.36",1536,864,1536,714,main,1484376,113,17,12,EM,relative_first,relative,Moderate,Easier than Reference,D,j,riskyDeck,safeDeck,0,-28,-14,left,1,0,4,present,riskyDeck,540,575
rlgp1o8wbuq,13383,21/03/2022@20:14:21,"Mozilla/5.0 (Windows NT 10.0; Win64; x64) AppleWebKit/537.36 (KHTML, like Gecko) Chrome/99.0.4844.74 Safari/537.36",1536,864,1536,714,main,1484376,114,17,12,HM,relative_first,relative,Moderate,Harder than Reference,D,j,riskyDeck,safeDeck,14,0,7,left,1,0,32,present,riskyDeck,556,1097
rlgp1o8wbuq,13383,21/03/2022@20:14:21,"Mozilla/5.0 (Windows NT 10.0; Win64; x64) AppleWebKit/537.36 (KHTML, like Gecko) Chrome/99.0.4844.74 Safari/537.36",1536,864,1536,714,main,1484376,115,17,12,EE,relative_first,relative,Extreme,Easier than Reference,D,j,safeDeck,riskyDeck,0,-14,-7,left,0,0,25,present,safeDeck,409,974
rlgp1o8wbuq,13383,21/03/2022@20:14:21,"Mozilla/5.0 (Windows NT 10.0; Win64; x64) AppleWebKit/537.36 (KHTML, like Gecko) Chrome/99.0.4844.74 Safari/537.36",1536,864,1536,714,main,1484376,116,17,12,HE,relative_first,relative,Extreme,Harder than Reference,F,k,riskyDeck,safeDeck,0,28,14,right,0,1,46,present,safeDeck,639,2157
rlgp1o8wbuq,13383,21/03/2022@20:14:21,"Mozilla/5.0 (Windows NT 10.0; Win64; x64) AppleWebKit/537.36 (KHTML, like Gecko) Chrome/99.0.4844.74 Safari/537.36",1536,864,1536,714,main,1484376,117,17,13,EE,relative_first,relative,Extreme,Easier than Reference,F,j,safeDeck,riskyDeck,-14,0,-7,right,1,0,32,present,riskyDeck,699,1103
rlgp1o8wbuq,13383,21/03/2022@20:14:21,"Mozilla/5.0 (Windows NT 10.0; Win64; x64) AppleWebKit/537.36 (KHTML, like Gecko) Chrome/99.0.4844.74 Safari/537.36",1536,864,1536,714,main,1484376,118,17,13,HM,relative_first,relative,Moderate,Harder than Reference,F,k,safeDeck,riskyDeck,0,14,7,right,1,0,46,absent,riskyDeck,596,3868
rlgp1o8wbuq,13383,21/03/2022@20:14:21,"Mozilla/5.0 (Windows NT 10.0; Win64; x64) AppleWebKit/537.36 (KHTML, like Gecko) Chrome/99.0.4844.74 Safari/537.36",1536,864,1536,714,main,1484376,119,17,13,EM,relative_first,relative,Moderate,Easier than Reference,D,j,safeDeck,riskyDeck,-28,0,-14,left,0,0,18,present,safeDeck,501,1558
rlgp1o8wbuq,13383,21/03/2022@20:14:21,"Mozilla/5.0 (Windows NT 10.0; Win64; x64) AppleWebKit/537.36 (KHTML, like Gecko) Chrome/99.0.4844.74 Safari/537.36",1536,864,1536,714,main,1484376,120,17,13,HE,relative_first,relative,Extreme,Harder than Reference,F,j,riskyDeck,safeDeck,28,0,14,right,0,0,46,present,safeDeck,657,1370
rlgp1o8wbuq,13383,21/03/2022@20:14:21,"Mozilla/5.0 (Windows NT 10.0; Win64; x64) AppleWebKit/537.36 (KHTML, like Gecko) Chrome/99.0.4844.74 Safari/537.36",1536,864,1536,714,main,1484376,121,17,13,HE,relative_first,relative,Extreme,Harder than Reference,F,k,riskyDeck,safeDeck,28,0,14,right,0,0,46,absent,safeDeck,906,4934
rlgp1o8wbuq,13383,21/03/2022@20:14:21,"Mozilla/5.0 (Windows NT 10.0; Win64; x64) AppleWebKit/537.36 (KHTML, like Gecko) Chrome/99.0.4844.74 Safari/537.36",1536,864,1536,714,main,1484376,122,17,13,EM,relative_first,relative,Moderate,Easier than Reference,D,k,safeDeck,riskyDeck,-28,0,-14,left,0,0,18,absent,safeDeck,635,1831
rlgp1o8wbuq,13383,21/03/2022@20:14:21,"Mozilla/5.0 (Windows NT 10.0; Win64; x64) AppleWebKit/537.36 (KHTML, like Gecko) Chrome/99.0.4844.74 Safari/537.36",1536,864,1536,714,main,1484376,123,17,13,EE,relative_first,relative,Extreme,Easier than Reference,D,j,riskyDeck,safeDeck,0,-14,-7,left,1,0,32,present,riskyDeck,440,1458
rlgp1o8wbuq,13383,21/03/2022@20:14:21,"Mozilla/5.0 (Windows NT 10.0; Win64; x64) AppleWebKit/537.36 (KHTML, like Gecko) Chrome/99.0.4844.74 Safari/537.36",1536,864,1536,714,main,1484376,124,18,13,HM,relative_first,relative,Moderate,Harder than Reference,F,j,riskyDeck,safeDeck,14,0,7,right,0,0,39,present,safeDeck,564,2237
rlgp1o8wbuq,13383,21/03/2022@20:14:21,"Mozilla/5.0 (Windows NT 10.0; Win64; x64) AppleWebKit/537.36 (KHTML, like Gecko) Chrome/99.0.4844.74 Safari/537.36",1536,864,1536,714,main,1484376,125,18,13,HE,relative_first,relative,Extreme,Harder than Reference,D,k,safeDeck,riskyDeck,28,0,14,left,0,0,46,absent,safeDeck,740,1244
rlgp1o8wbuq,13383,21/03/2022@20:14:21,"Mozilla/5.0 (Windows NT 10.0; Win64; x64) AppleWebKit/537.36 (KHTML, like Gecko) Chrome/99.0.4844.74 Safari/537.36",1536,864,1536,714,main,1484376,126,18,13,EE,relative_first,relative,Extreme,Easier than Reference,D,j,riskyDeck,safeDeck,0,-14,-7,left,1,0,18,present,riskyDeck,648,1197
rlgp1o8wbuq,13383,21/03/2022@20:14:21,"Mozilla/5.0 (Windows NT 10.0; Win64; x64) AppleWebKit/537.36 (KHTML, like Gecko) Chrome/99.0.4844.74 Safari/537.36",1536,864,1536,714,main,1484376,127,18,13,EM,relative_first,relative,Moderate,Easier than Reference,D,k,safeDeck,riskyDeck,-28,0,-14,left,0,0,18,absent,safeDeck,350,1601
rlgp1o8wbuq,13383,21/03/2022@20:14:21,"Mozilla/5.0 (Windows NT 10.0; Win64; x64) AppleWebKit/537.36 (KHTML, like Gecko) Chrome/99.0.4844.74 Safari/537.36",1536,864,1536,714,main,1484376,128,18,13,HM,relative_first,relative,Moderate,Harder than Reference,F,j,safeDeck,riskyDeck,14,0,7,right,1,0,46,present,riskyDeck,622,1500
rlgp1o8wbuq,13383,21/03/2022@20:14:21,"Mozilla/5.0 (Windows NT 10.0; Win64; x64) AppleWebKit/537.36 (KHTML, like Gecko) Chrome/99.0.4844.74 Safari/537.36",1536,864,1536,714,main,1484376,129,18,13,HM,relative_first,relative,Moderate,Harder than Reference,D,k,riskyDeck,safeDeck,0,14,7,left,1,1,46,present,riskyDeck,337,1286
rlgp1o8wbuq,13383,21/03/2022@20:14:21,"Mozilla/5.0 (Windows NT 10.0; Win64; x64) AppleWebKit/537.36 (KHTML, like Gecko) Chrome/99.0.4844.74 Safari/537.36",1536,864,1536,714,main,1484376,130,18,13,EM,relative_first,relative,Moderate,Easier than Reference,F,k,safeDeck,riskyDeck,-28,0,-14,right,1,1,32,present,riskyDeck,723,1443
rlgp1o8wbuq,13383,21/03/2022@20:14:21,"Mozilla/5.0 (Windows NT 10.0; Win64; x64) AppleWebKit/537.36 (KHTML, like Gecko) Chrome/99.0.4844.74 Safari/537.36",1536,864,1536,714,main,1484376,131,18,14,EE,relative_first,relative,Extreme,Easier than Reference,D,k,riskyDeck,safeDeck,-14,0,-7,left,1,0,32,absent,riskyDeck,664,1661
rlgp1o8wbuq,13383,21/03/2022@20:14:21,"Mozilla/5.0 (Windows NT 10.0; Win64; x64) AppleWebKit/537.36 (KHTML, like Gecko) Chrome/99.0.4844.74 Safari/537.36",1536,864,1536,714,main,1484376,132,18,14,HE,relative_first,relative,Extreme,Harder than Reference,F,k,riskyDeck,safeDeck,28,0,14,right,0,0,46,absent,safeDeck,3697,4142
rlgp1o8wbuq,13383,21/03/2022@20:14:21,"Mozilla/5.0 (Windows NT 10.0; Win64; x64) AppleWebKit/537.36 (KHTML, like Gecko) Chrome/99.0.4844.74 Safari/537.36",1536,864,1536,714,main,1484376,133,18,14,HE,relative_first,relative,Extreme,Harder than Reference,F,j,riskyDeck,safeDeck,0,28,14,right,0,0,46,present,safeDeck,2193,1236
rlgp1o8wbuq,13383,21/03/2022@20:14:21,"Mozilla/5.0 (Windows NT 10.0; Win64; x64) AppleWebKit/537.36 (KHTML, like Gecko) Chrome/99.0.4844.74 Safari/537.36",1536,864,1536,714,main,1484376,134,18,14,EM,relative_first,relative,Moderate,Easier than Reference,D,j,safeDeck,riskyDeck,-28,0,-14,left,0,0,18,present,safeDeck,708,1637
rlgp1o8wbuq,13383,21/03/2022@20:14:21,"Mozilla/5.0 (Windows NT 10.0; Win64; x64) AppleWebKit/537.36 (KHTML, like Gecko) Chrome/99.0.4844.74 Safari/537.36",1536,864,1536,714,main,1484376,135,18,14,EE,relative_first,relative,Extreme,Easier than Reference,D,j,riskyDeck,safeDeck,-14,0,-7,left,1,0,18,present,riskyDeck,1221,1324
rlgp1o8wbuq,13383,21/03/2022@20:14:21,"Mozilla/5.0 (Windows NT 10.0; Win64; x64) AppleWebKit/537.36 (KHTML, like Gecko) Chrome/99.0.4844.74 Safari/537.36",1536,864,1536,714,main,1484376,136,18,14,HM,relative_first,relative,Moderate,Harder than Reference,F,k,riskyDeck,safeDeck,14,0,7,right,0,1,39,present,safeDeck,595,1876
rlgp1o8wbuq,13383,21/03/2022@20:14:21,"Mozilla/5.0 (Windows NT 10.0; Win64; x64) AppleWebKit/537.36 (KHTML, like Gecko) Chrome/99.0.4844.74 Safari/537.36",1536,864,1536,714,main,1484376,137,19,14,EM,relative_first,relative,Moderate,Easier than Reference,F,k,safeDeck,riskyDeck,0,-28,-14,right,1,0,4,absent,riskyDeck,1228,849
rlgp1o8wbuq,13383,21/03/2022@20:14:21,"Mozilla/5.0 (Windows NT 10.0; Win64; x64) AppleWebKit/537.36 (KHTML, like Gecko) Chrome/99.0.4844.74 Safari/537.36",1536,864,1536,714,main,1484376,138,19,14,EE,relative_first,relative,Extreme,Easier than Reference,F,j,safeDeck,riskyDeck,-14,0,-7,right,1,0,18,present,riskyDeck,622,1053
rlgp1o8wbuq,13383,21/03/2022@20:14:21,"Mozilla/5.0 (Windows NT 10.0; Win64; x64) AppleWebKit/537.36 (KHTML, like Gecko) Chrome/99.0.4844.74 Safari/537.36",1536,864,1536,714,main,1484376,139,19,14,HM,relative_first,relative,Moderate,Harder than Reference,F,j,safeDeck,riskyDeck,0,14,7,right,1,0,32,present,riskyDeck,737,2222
rlgp1o8wbuq,13383,21/03/2022@20:14:21,"Mozilla/5.0 (Windows NT 10.0; Win64; x64) AppleWebKit/537.36 (KHTML, like Gecko) Chrome/99.0.4844.74 Safari/537.36",1536,864,1536,714,main,1484376,140,19,14,HE,relative_first,relative,Extreme,Harder than Reference,D,k,safeDeck,riskyDeck,28,0,14,left,0,0,46,absent,safeDeck,695,4511
rlgp1o8wbuq,13383,21/03/2022@20:14:21,"Mozilla/5.0 (Windows NT 10.0; Win64; x64) AppleWebKit/537.36 (KHTML, like Gecko) Chrome/99.0.4844.74 Safari/537.36",1536,864,1536,714,main,1484376,141,19,14,HM,relative_first,relative,Moderate,Harder than Reference,D,k,safeDeck,riskyDeck,0,14,7,left,0,0,39,absent,safeDeck,601,2282
rlgp1o8wbuq,13383,21/03/2022@20:14:21,"Mozilla/5.0 (Windows NT 10.0; Win64; x64) AppleWebKit/537.36 (KHTML, like Gecko) Chrome/99.0.4844.74 Safari/537.36",1536,864,1536,714,main,1484376,142,19,15,EM,relative_first,relative,Moderate,Easier than Reference,F,k,safeDeck,riskyDeck,0,-28,-14,right,1,1,32,present,riskyDeck,820,2528
rlgp1o8wbuq,13383,21/03/2022@20:14:21,"Mozilla/5.0 (Windows NT 10.0; Win64; x64) AppleWebKit/537.36 (KHTML, like Gecko) Chrome/99.0.4844.74 Safari/537.36",1536,864,1536,714,main,1484376,143,19,15,HE,relative_first,relative,Extreme,Harder than Reference,D,j,safeDeck,riskyDeck,0,28,14,left,0,0,46,present,safeDeck,2026,1135
rlgp1o8wbuq,13383,21/03/2022@20:14:21,"Mozilla/5.0 (Windows NT 10.0; Win64; x64) AppleWebKit/537.36 (KHTML, like Gecko) Chrome/99.0.4844.74 Safari/537.36",1536,864,1536,714,main,1484376,144,19,15,EE,relative_first,relative,Extreme,Easier than Reference,D,k,safeDeck,riskyDeck,0,-14,-7,left,0,0,25,absent,safeDeck,780,1684
rlgp1o8wbuq,13383,21/03/2022@20:14:21,"Mozilla/5.0 (Windows NT 10.0; Win64; x64) AppleWebKit/537.36 (KHTML, like Gecko) Chrome/99.0.4844.74 Safari/537.36",1536,864,1536,714,main,1484376,145,19,15,HM,relative_first,relative,Moderate,Harder than Reference,F,k,riskyDeck,safeDeck,0,14,7,right,0,1,39,present,safeDeck,576,1908
rlgp1o8wbuq,13383,21/03/2022@20:14:21,"Mozilla/5.0 (Windows NT 10.0; Win64; x64) AppleWebKit/537.36 (KHTML, like Gecko) Chrome/99.0.4844.74 Safari/537.36",1536,864,1536,714,main,1484376,146,19,15,EE,relative_first,relative,Extreme,Easier than Reference,D,j,riskyDeck,safeDeck,0,-14,-7,left,1,0,32,present,riskyDeck,1397,1663
rlgp1o8wbuq,13383,21/03/2022@20:14:21,"Mozilla/5.0 (Windows NT 10.0; Win64; x64) AppleWebKit/537.36 (KHTML, like Gecko) Chrome/99.0.4844.74 Safari/537.36",1536,864,1536,714,main,1484376,147,19,15,HE,relative_first,relative,Extreme,Harder than Reference,F,k,riskyDeck,safeDeck,0,28,14,right,0,1,46,present,safeDeck,683,3076
rlgp1o8wbuq,13383,21/03/2022@20:14:21,"Mozilla/5.0 (Windows NT 10.0; Win64; x64) AppleWebKit/537.36 (KHTML, like Gecko) Chrome/99.0.4844.74 Safari/537.36",1536,864,1536,714,main,1484376,148,20,15,EM,relative_first,relative,Moderate,Easier than Reference,D,k,safeDeck,riskyDeck,-28,0,-14,left,0,0,18,absent,safeDeck,1382,1456
rlgp1o8wbuq,13383,21/03/2022@20:14:21,"Mozilla/5.0 (Windows NT 10.0; Win64; x64) AppleWebKit/537.36 (KHTML, like Gecko) Chrome/99.0.4844.74 Safari/537.36",1536,864,1536,714,main,1484376,149,20,15,HM,relative_first,relative,Moderate,Harder than Reference,D,k,safeDeck,riskyDeck,0,14,7,left,0,0,39,absent,safeDeck,843,1847
rlgp1o8wbuq,13383,21/03/2022@20:14:21,"Mozilla/5.0 (Windows NT 10.0; Win64; x64) AppleWebKit/537.36 (KHTML, like Gecko) Chrome/99.0.4844.74 Safari/537.36",1536,864,1536,714,main,1484376,150,20,15,EE,relative_first,relative,Extreme,Easier than Reference,F,k,safeDeck,riskyDeck,0,-14,-7,right,1,0,18,absent,riskyDeck,650,2123
rlgp1o8wbuq,13383,21/03/2022@20:14:21,"Mozilla/5.0 (Windows NT 10.0; Win64; x64) AppleWebKit/537.36 (KHTML, like Gecko) Chrome/99.0.4844.74 Safari/537.36",1536,864,1536,714,main,1484376,151,20,15,HE,relative_first,relative,Extreme,Harder than Reference,F,j,riskyDeck,safeDeck,0,28,14,right,0,0,46,present,safeDeck,649,1659
rlgp1o8wbuq,13383,21/03/2022@20:14:21,"Mozilla/5.0 (Windows NT 10.0; Win64; x64) AppleWebKit/537.36 (KHTML, like Gecko) Chrome/99.0.4844.74 Safari/537.36",1536,864,1536,714,main,1484376,152,20,15,EM,relative_first,relative,Moderate,Easier than Reference,D,k,riskyDeck,safeDeck,-28,0,-14,left,1,0,4,absent,riskyDeck,588,883
rlgp1o8wbuq,13383,21/03/2022@20:14:21,"Mozilla/5.0 (Windows NT 10.0; Win64; x64) AppleWebKit/537.36 (KHTML, like Gecko) Chrome/99.0.4844.74 Safari/537.36",1536,864,1536,714,main,1484376,153,20,15,EM,relative_first,relative,Moderate,Easier than Reference,D,j,safeDeck,riskyDeck,-28,0,-14,left,0,0,18,present,safeDeck,525,1504
rlgp1o8wbuq,13383,21/03/2022@20:14:21,"Mozilla/5.0 (Windows NT 10.0; Win64; x64) AppleWebKit/537.36 (KHTML, like Gecko) Chrome/99.0.4844.74 Safari/537.36",1536,864,1536,714,main,1484376,154,20,15,HM,relative_first,relative,Moderate,Harder than Reference,D,k,safeDeck,riskyDeck,14,0,7,left,0,0,39,absent,safeDeck,615,3450
rlgp1o8wbuq,13383,21/03/2022@20:14:21,"Mozilla/5.0 (Windows NT 10.0; Win64; x64) AppleWebKit/537.36 (KHTML, like Gecko) Chrome/99.0.4844.74 Safari/537.36",1536,864,1536,714,main,1484376,155,20,16,EE,relative_first,relative,Extreme,Easier than Reference,D,k,riskyDeck,safeDeck,-14,0,-7,left,1,0,32,absent,riskyDeck,2369,2864
rlgp1o8wbuq,13383,21/03/2022@20:14:21,"Mozilla/5.0 (Windows NT 10.0; Win64; x64) AppleWebKit/537.36 (KHTML, like Gecko) Chrome/99.0.4844.74 Safari/537.36",1536,864,1536,714,main,1484376,156,20,16,HE,relative_first,relative,Extreme,Harder than Reference,F,j,safeDeck,riskyDeck,28,0,14,right,1,0,32,present,riskyDeck,996,2013
rlgp1o8wbuq,13383,21/03/2022@20:14:21,"Mozilla/5.0 (Windows NT 10.0; Win64; x64) AppleWebKit/537.36 (KHTML, like Gecko) Chrome/99.0.4844.74 Safari/537.36",1536,864,1536,714,main,1484376,157,20,16,EM,relative_first,relative,Moderate,Easier than Reference,F,j,riskyDeck,safeDeck,0,-28,-14,right,0,0,18,present,safeDeck,1058,946
rlgp1o8wbuq,13383,21/03/2022@20:14:21,"Mozilla/5.0 (Windows NT 10.0; Win64; x64) AppleWebKit/537.36 (KHTML, like Gecko) Chrome/99.0.4844.74 Safari/537.36",1536,864,1536,714,main,1484376,158,20,16,HM,relative_first,relative,Moderate,Harder than Reference,F,k,safeDeck,riskyDeck,14,0,7,right,1,0,46,absent,riskyDeck,1250,3559
rlgp1o8wbuq,13383,21/03/2022@20:14:21,"Mozilla/5.0 (Windows NT 10.0; Win64; x64) AppleWebKit/537.36 (KHTML, like Gecko) Chrome/99.0.4844.74 Safari/537.36",1536,864,1536,714,main,1484376,159,20,16,EE,relative_first,relative,Extreme,Easier than Reference,D,j,riskyDeck,safeDeck,-14,0,-7,left,1,0,32,present,riskyDeck,1331,901
rlgp1o8wbuq,13383,21/03/2022@20:14:21,"Mozilla/5.0 (Windows NT 10.0; Win64; x64) AppleWebKit/537.36 (KHTML, like Gecko) Chrome/99.0.4844.74 Safari/537.36",1536,864,1536,714,main,1484376,160,20,16,HE,relative_first,relative,Extreme,Harder than Reference,F,k,riskyDeck,safeDeck,0,28,14,right,0,0,46,absent,safeDeck,642,2729
rlgp1o8wbuq,13383,21/03/2022@20:14:21,"Mozilla/5.0 (Windows NT 10.0; Win64; x64) AppleWebKit/537.36 (KHTML, like Gecko) Chrome/99.0.4844.74 Safari/537.36",1536,864,1536,714,main,1484376,161,20,16,EE,relative_first,relative,Extreme,Easier than Reference,D,j,riskyDeck,safeDeck,0,-14,-7,left,1,0,32,present,riskyDeck,580,1084
rlgp1o8wbuq,13383,21/03/2022@20:14:21,"Mozilla/5.0 (Windows NT 10.0; Win64; x64) AppleWebKit/537.36 (KHTML, like Gecko) Chrome/99.0.4844.74 Safari/537.36",1536,864,1536,714,main,1484376,162,21,16,HM,relative_first,relative,Moderate,Harder than Reference,D,j,riskyDeck,safeDeck,14,0,7,left,1,0,46,present,riskyDeck,355,789
rlgp1o8wbuq,13383,21/03/2022@20:14:21,"Mozilla/5.0 (Windows NT 10.0; Win64; x64) AppleWebKit/537.36 (KHTML, like Gecko) Chrome/99.0.4844.74 Safari/537.36",1536,864,1536,714,main,1484376,163,21,16,EM,relative_first,relative,Moderate,Easier than Reference,D,k,riskyDeck,safeDeck,0,-28,-14,left,1,0,32,absent,riskyDeck,641,2117
rlgp1o8wbuq,13383,21/03/2022@20:14:21,"Mozilla/5.0 (Windows NT 10.0; Win64; x64) AppleWebKit/537.36 (KHTML, like Gecko) Chrome/99.0.4844.74 Safari/537.36",1536,864,1536,714,main,1484376,164,21,16,HE,relative_first,relative,Extreme,Harder than Reference,F,j,riskyDeck,safeDeck,28,0,14,right,0,0,46,present,safeDeck,466,2487
rlgp1o8wbuq,13383,21/03/2022@20:14:21,"Mozilla/5.0 (Windows NT 10.0; Win64; x64) AppleWebKit/537.36 (KHTML, like Gecko) Chrome/99.0.4844.74 Safari/537.36",1536,864,1536,714,main,1484376,165,21,16,HE,relative_first,relative,Extreme,Harder than Reference,D,k,safeDeck,riskyDeck,0,28,14,left,0,1,46,present,safeDeck,1118,2407
rlgp1o8wbuq,13383,21/03/2022@20:14:21,"Mozilla/5.0 (Windows NT 10.0; Win64; x64) AppleWebKit/537.36 (KHTML, like Gecko) Chrome/99.0.4844.74 Safari/537.36",1536,864,1536,714,main,1484376,166,21,16,EM,relative_first,relative,Moderate,Easier than Reference,D,j,riskyDeck,safeDeck,-28,0,-14,left,1,0,4,present,riskyDeck,606,803
rlgp1o8wbuq,13383,21/03/2022@20:14:21,"Mozilla/5.0 (Windows NT 10.0; Win64; x64) AppleWebKit/537.36 (KHTML, like Gecko) Chrome/99.0.4844.74 Safari/537.36",1536,864,1536,714,main,1484376,167,21,16,HM,relative_first,relative,Moderate,Harder than Reference,F,k,safeDeck,riskyDeck,14,0,7,right,1,0,46,absent,riskyDeck,699,2617
rlgp1o8wbuq,13383,21/03/2022@20:14:21,"Mozilla/5.0 (Windows NT 10.0; Win64; x64) AppleWebKit/537.36 (KHTML, like Gecko) Chrome/99.0.4844.74 Safari/537.36",1536,864,1536,714,main,1484376,168,21,16,EE,relative_first,relative,Extreme,Easier than Reference,D,j,riskyDeck,safeDeck,-14,0,-7,left,1,0,18,present,riskyDeck,536,859
rlgp1o8wbuq,13383,21/03/2022@20:14:21,"Mozilla/5.0 (Windows NT 10.0; Win64; x64) AppleWebKit/537.36 (KHTML, like Gecko) Chrome/99.0.4844.74 Safari/537.36",1536,864,1536,714,main,1484376,169,21,17,EE,relative_first,relative,Extreme,Easier than Reference,D,k,riskyDeck,safeDeck,-14,0,-7,left,1,0,18,absent,riskyDeck,876,1595
rlgp1o8wbuq,13383,21/03/2022@20:14:21,"Mozilla/5.0 (Windows NT 10.0; Win64; x64) AppleWebKit/537.36 (KHTML, like Gecko) Chrome/99.0.4844.74 Safari/537.36",1536,864,1536,714,main,1484376,170,21,17,HE,relative_first,relative,Extreme,Harder than Reference,F,k,safeDeck,riskyDeck,28,0,14,right,1,0,60,absent,riskyDeck,508,1658
rlgp1o8wbuq,13383,21/03/2022@20:14:21,"Mozilla/5.0 (Windows NT 10.0; Win64; x64) AppleWebKit/537.36 (KHTML, like Gecko) Chrome/99.0.4844.74 Safari/537.36",1536,864,1536,714,main,1484376,171,21,17,HM,relative_first,relative,Moderate,Harder than Reference,D,k,safeDeck,riskyDeck,0,14,7,left,0,0,39,absent,safeDeck,618,1101
rlgp1o8wbuq,13383,21/03/2022@20:14:21,"Mozilla/5.0 (Windows NT 10.0; Win64; x64) AppleWebKit/537.36 (KHTML, like Gecko) Chrome/99.0.4844.74 Safari/537.36",1536,864,1536,714,main,1484376,172,21,17,EM,relative_first,relative,Moderate,Easier than Reference,F,j,safeDeck,riskyDeck,-28,0,-14,right,1,0,4,present,riskyDeck,323,580
rlgp1o8wbuq,13383,21/03/2022@20:14:21,"Mozilla/5.0 (Windows NT 10.0; Win64; x64) AppleWebKit/537.36 (KHTML, like Gecko) Chrome/99.0.4844.74 Safari/537.36",1536,864,1536,714,main,1484376,173,21,17,HM,relative_first,relative,Moderate,Harder than Reference,F,j,riskyDeck,safeDeck,0,14,7,right,0,0,39,present,safeDeck,767,694
rlgp1o8wbuq,13383,21/03/2022@20:14:21,"Mozilla/5.0 (Windows NT 10.0; Win64; x64) AppleWebKit/537.36 (KHTML, like Gecko) Chrome/99.0.4844.74 Safari/537.36",1536,864,1536,714,main,1484376,174,21,17,HE,relative_first,relative,Extreme,Harder than Reference,F,k,riskyDeck,safeDeck,0,28,14,right,0,0,46,absent,safeDeck,818,8276
rlgp1o8wbuq,13383,21/03/2022@20:14:21,"Mozilla/5.0 (Windows NT 10.0; Win64; x64) AppleWebKit/537.36 (KHTML, like Gecko) Chrome/99.0.4844.74 Safari/537.36",1536,864,1536,714,main,1484376,175,21,17,EE,relative_first,relative,Extreme,Easier than Reference,D,k,safeDeck,riskyDeck,-14,0,-7,left,0,0,25,absent,safeDeck,622,2089
rlgp1o8wbuq,13383,21/03/2022@20:14:21,"Mozilla/5.0 (Windows NT 10.0; Win64; x64) AppleWebKit/537.36 (KHTML, like Gecko) Chrome/99.0.4844.74 Safari/537.36",1536,864,1536,714,main,1484376,176,22,17,EM,relative_first,relative,Moderate,Easier than Reference,F,j,safeDeck,riskyDeck,-28,0,-14,right,1,0,32,present,riskyDeck,667,2462
rlgp1o8wbuq,13383,21/03/2022@20:14:21,"Mozilla/5.0 (Windows NT 10.0; Win64; x64) AppleWebKit/537.36 (KHTML, like Gecko) Chrome/99.0.4844.74 Safari/537.36",1536,864,1536,714,main,1484376,177,22,17,EE,relative_first,relative,Extreme,Easier than Reference,D,k,riskyDeck,safeDeck,-14,0,-7,left,1,0,18,absent,riskyDeck,1500,1283
rlgp1o8wbuq,13383,21/03/2022@20:14:21,"Mozilla/5.0 (Windows NT 10.0; Win64; x64) AppleWebKit/537.36 (KHTML, like Gecko) Chrome/99.0.4844.74 Safari/537.36",1536,864,1536,714,main,1484376,178,22,17,HM,relative_first,relative,Moderate,Harder than Reference,F,k,safeDeck,riskyDeck,0,14,7,right,1,0,46,absent,riskyDeck,576,3574
rlgp1o8wbuq,13383,21/03/2022@20:14:21,"Mozilla/5.0 (Windows NT 10.0; Win64; x64) AppleWebKit/537.36 (KHTML, like Gecko) Chrome/99.0.4844.74 Safari/537.36",1536,864,1536,714,main,1484376,179,22,17,EM,relative_first,relative,Moderate,Easier than Reference,D,j,riskyDeck,safeDeck,0,-28,-14,left,1,0,32,present,riskyDeck,306,1638
rlgp1o8wbuq,13383,21/03/2022@20:14:21,"Mozilla/5.0 (Windows NT 10.0; Win64; x64) AppleWebKit/537.36 (KHTML, like Gecko) Chrome/99.0.4844.74 Safari/537.36",1536,864,1536,714,main,1484376,180,22,17,HE,relative_first,relative,Extreme,Harder than Reference,D,k,riskyDeck,safeDeck,0,28,14,left,1,0,32,absent,riskyDeck,359,2773
rlgp1o8wbuq,13383,21/03/2022@20:14:21,"Mozilla/5.0 (Windows NT 10.0; Win64; x64) AppleWebKit/537.36 (KHTML, like Gecko) Chrome/99.0.4844.74 Safari/537.36",1536,864,1536,714,main,1484376,181,22,17,EM,relative_first,relative,Moderate,Easier than Reference,F,j,riskyDeck,safeDeck,-28,0,-14,right,0,0,18,present,safeDeck,266,764
rlgp1o8wbuq,13383,21/03/2022@20:14:21,"Mozilla/5.0 (Windows NT 10.0; Win64; x64) AppleWebKit/537.36 (KHTML, like Gecko) Chrome/99.0.4844.74 Safari/537.36",1536,864,1536,714,main,1484376,182,22,18,EE,relative_first,relative,Extreme,Easier than Reference,D,j,riskyDeck,safeDeck,-14,0,-7,left,1,0,32,present,riskyDeck,303,1805
rlgp1o8wbuq,13383,21/03/2022@20:14:21,"Mozilla/5.0 (Windows NT 10.0; Win64; x64) AppleWebKit/537.36 (KHTML, like Gecko) Chrome/99.0.4844.74 Safari/537.36",1536,864,1536,714,main,1484376,183,22,18,HM,relative_first,relative,Moderate,Harder than Reference,F,k,safeDeck,riskyDeck,14,0,7,right,1,0,32,absent,riskyDeck,200,1585
rlgp1o8wbuq,13383,21/03/2022@20:14:21,"Mozilla/5.0 (Windows NT 10.0; Win64; x64) AppleWebKit/537.36 (KHTML, like Gecko) Chrome/99.0.4844.74 Safari/537.36",1536,864,1536,714,main,1484376,184,22,18,HE,relative_first,relative,Extreme,Harder than Reference,F,k,safeDeck,riskyDeck,28,0,14,right,1,0,60,absent,riskyDeck,529,2682
rlgp1o8wbuq,13383,21/03/2022@20:14:21,"Mozilla/5.0 (Windows NT 10.0; Win64; x64) AppleWebKit/537.36 (KHTML, like Gecko) Chrome/99.0.4844.74 Safari/537.36",1536,864,1536,714,main,1484376,185,22,18,HE,relative_first,relative,Extreme,Harder than Reference,F,j,safeDeck,riskyDeck,28,0,14,right,1,0,32,present,riskyDeck,284,774
rlgp1o8wbuq,13383,21/03/2022@20:14:21,"Mozilla/5.0 (Windows NT 10.0; Win64; x64) AppleWebKit/537.36 (KHTML, like Gecko) Chrome/99.0.4844.74 Safari/537.36",1536,864,1536,714,main,1484376,186,22,18,HM,relative_first,relative,Moderate,Harder than Reference,F,j,safeDeck,riskyDeck,0,14,7,right,1,0,32,present,riskyDeck,279,1019
rlgp1o8wbuq,13383,21/03/2022@20:14:21,"Mozilla/5.0 (Windows NT 10.0; Win64; x64) AppleWebKit/537.36 (KHTML, like Gecko) Chrome/99.0.4844.74 Safari/537.36",1536,864,1536,714,main,1484376,187,22,18,EE,relative_first,relative,Extreme,Easier than Reference,F,k,riskyDeck,safeDeck,0,-14,-7,right,0,0,25,absent,safeDeck,201,1244
rlgp1o8wbuq,13383,21/03/2022@20:14:21,"Mozilla/5.0 (Windows NT 10.0; Win64; x64) AppleWebKit/537.36 (KHTML, like Gecko) Chrome/99.0.4844.74 Safari/537.36",1536,864,1536,714,main,1484376,188,22,18,EM,relative_first,relative,Moderate,Easier than Reference,D,j,safeDeck,riskyDeck,-28,0,-14,left,0,0,18,present,safeDeck,417,1539
rlgp1o8wbuq,13383,21/03/2022@20:14:21,"Mozilla/5.0 (Windows NT 10.0; Win64; x64) AppleWebKit/537.36 (KHTML, like Gecko) Chrome/99.0.4844.74 Safari/537.36",1536,864,1536,714,main,1484376,189,22,18,HM,relative_first,relative,Moderate,Harder than Reference,F,j,riskyDeck,safeDeck,0,14,7,right,0,0,39,present,safeDeck,669,687
rlgp1o8wbuq,13383,21/03/2022@20:14:21,"Mozilla/5.0 (Windows NT 10.0; Win64; x64) AppleWebKit/537.36 (KHTML, like Gecko) Chrome/99.0.4844.74 Safari/537.36",1536,864,1536,714,main,1484376,190,22,18,EM,relative_first,relative,Moderate,Easier than Reference,F,k,riskyDeck,safeDeck,0,-28,-14,right,0,0,18,absent,safeDeck,276,1798
rlgp1o8wbuq,13383,21/03/2022@20:14:21,"Mozilla/5.0 (Windows NT 10.0; Win64; x64) AppleWebKit/537.36 (KHTML, like Gecko) Chrome/99.0.4844.74 Safari/537.36",1536,864,1536,714,main,1484376,191,23,18,HE,relative_first,relative,Extreme,Harder than Reference,F,k,riskyDeck,safeDeck,28,0,14,right,0,0,46,absent,safeDeck,493,2307
rlgp1o8wbuq,13383,21/03/2022@20:14:21,"Mozilla/5.0 (Windows NT 10.0; Win64; x64) AppleWebKit/537.36 (KHTML, like Gecko) Chrome/99.0.4844.74 Safari/537.36",1536,864,1536,714,main,1484376,192,23,18,EE,relative_first,relative,Extreme,Easier than Reference,F,k,riskyDeck,safeDeck,0,-14,-7,right,0,0,25,absent,safeDeck,246,1219
rlgp1o8wbuq,13383,21/03/2022@20:14:21,"Mozilla/5.0 (Windows NT 10.0; Win64; x64) AppleWebKit/537.36 (KHTML, like Gecko) Chrome/99.0.4844.74 Safari/537.36",1536,864,1536,714,main,1484376,193,23,18,HE,relative_first,relative,Extreme,Harder than Reference,D,k,safeDeck,riskyDeck,28,0,14,left,0,0,46,absent,safeDeck,263,3030
rlgp1o8wbuq,13383,21/03/2022@20:14:21,"Mozilla/5.0 (Windows NT 10.0; Win64; x64) AppleWebKit/537.36 (KHTML, like Gecko) Chrome/99.0.4844.74 Safari/537.36",1536,864,1536,714,main,1484376,194,23,18,EM,relative_first,relative,Moderate,Easier than Reference,F,j,safeDeck,riskyDeck,-28,0,-14,right,1,0,32,present,riskyDeck,428,1147
rlgp1o8wbuq,13383,21/03/2022@20:14:21,"Mozilla/5.0 (Windows NT 10.0; Win64; x64) AppleWebKit/537.36 (KHTML, like Gecko) Chrome/99.0.4844.74 Safari/537.36",1536,864,1536,714,main,1484376,195,23,18,HM,relative_first,relative,Moderate,Harder than Reference,D,j,riskyDeck,safeDeck,14,0,7,left,1,0,32,present,riskyDeck,173,691
rlgp1o8wbuq,13383,21/03/2022@20:14:21,"Mozilla/5.0 (Windows NT 10.0; Win64; x64) AppleWebKit/537.36 (KHTML, like Gecko) Chrome/99.0.4844.74 Safari/537.36",1536,864,1536,714,main,1484376,196,23,18,EE,relative_first,relative,Extreme,Easier than Reference,F,j,riskyDeck,safeDeck,-14,0,-7,right,0,0,25,present,safeDeck,158,694
rlgp1o8wbuq,13383,21/03/2022@20:14:21,"Mozilla/5.0 (Windows NT 10.0; Win64; x64) AppleWebKit/537.36 (KHTML, like Gecko) Chrome/99.0.4844.74 Safari/537.36",1536,864,1536,714,main,1484376,197,23,18,HE,relative_first,relative,Extreme,Harder than Reference,D,j,riskyDeck,safeDeck,28,0,14,left,1,0,60,present,riskyDeck,259,938
rlgp1o8wbuq,13383,21/03/2022@20:14:21,"Mozilla/5.0 (Windows NT 10.0; Win64; x64) AppleWebKit/537.36 (KHTML, like Gecko) Chrome/99.0.4844.74 Safari/537.36",1536,864,1536,714,main,1484376,198,23,18,EE,relative_first,relative,Extreme,Easier than Reference,F,j,riskyDeck,safeDeck,0,-14,-7,right,0,0,25,present,safeDeck,106,1118
rlgp1o8wbuq,13383,21/03/2022@20:14:21,"Mozilla/5.0 (Windows NT 10.0; Win64; x64) AppleWebKit/537.36 (KHTML, like Gecko) Chrome/99.0.4844.74 Safari/537.36",1536,864,1536,714,main,1484376,199,23,18,EM,relative_first,relative,Moderate,Easier than Reference,D,k,riskyDeck,safeDeck,-28,0,-14,left,1,0,32,absent,riskyDeck,595,1566
rlgp1o8wbuq,13383,21/03/2022@20:14:21,"Mozilla/5.0 (Windows NT 10.0; Win64; x64) AppleWebKit/537.36 (KHTML, like Gecko) Chrome/99.0.4844.74 Safari/537.36",1536,864,1536,714,main,1484376,200,23,19,HM,relative_first,relative,Moderate,Harder than Reference,F,k,riskyDeck,safeDeck,0,14,7,right,0,0,39,absent,safeDeck,87,2065
rlgp1o8wbuq,13383,21/03/2022@20:14:21,"Mozilla/5.0 (Windows NT 10.0; Win64; x64) AppleWebKit/537.36 (KHTML, like Gecko) Chrome/99.0.4844.74 Safari/537.36",1536,864,1536,714,main,1484376,201,23,19,HM,relative_first,relative,Moderate,Harder than Reference,F,j,riskyDeck,safeDeck,14,0,7,right,0,0,39,present,safeDeck,282,1696
rlgp1o8wbuq,13383,21/03/2022@20:14:21,"Mozilla/5.0 (Windows NT 10.0; Win64; x64) AppleWebKit/537.36 (KHTML, like Gecko) Chrome/99.0.4844.74 Safari/537.36",1536,864,1536,714,main,1484376,202,23,19,HE,relative_first,relative,Extreme,Harder than Reference,D,k,safeDeck,riskyDeck,28,0,14,left,0,0,46,absent,safeDeck,243,1345
rlgp1o8wbuq,13383,21/03/2022@20:14:21,"Mozilla/5.0 (Windows NT 10.0; Win64; x64) AppleWebKit/537.36 (KHTML, like Gecko) Chrome/99.0.4844.74 Safari/537.36",1536,864,1536,714,main,1484376,203,23,19,EM,relative_first,relative,Moderate,Easier than Reference,F,k,riskyDeck,safeDeck,0,-28,-14,right,0,0,18,absent,safeDeck,180,1231
rlgp1o8wbuq,13383,21/03/2022@20:14:21,"Mozilla/5.0 (Windows NT 10.0; Win64; x64) AppleWebKit/537.36 (KHTML, like Gecko) Chrome/99.0.4844.74 Safari/537.36",1536,864,1536,714,main,1484376,204,23,19,EE,relative_first,relative,Extreme,Easier than Reference,D,k,safeDeck,riskyDeck,-14,0,-7,left,0,0,25,absent,safeDeck,312,1110
rlgp1o8wbuq,13383,21/03/2022@20:14:21,"Mozilla/5.0 (Windows NT 10.0; Win64; x64) AppleWebKit/537.36 (KHTML, like Gecko) Chrome/99.0.4844.74 Safari/537.36",1536,864,1536,714,main,1484376,205,23,19,EE,relative_first,relative,Extreme,Easier than Reference,F,k,safeDeck,riskyDeck,0,-14,-7,right,1,0,18,absent,riskyDeck,186,1141
rlgp1o8wbuq,13383,21/03/2022@20:14:21,"Mozilla/5.0 (Windows NT 10.0; Win64; x64) AppleWebKit/537.36 (KHTML, like Gecko) Chrome/99.0.4844.74 Safari/537.36",1536,864,1536,714,main,1484376,206,23,19,HM,relative_first,relative,Moderate,Harder than Reference,F,k,safeDeck,riskyDeck,14,0,7,right,1,1,32,present,riskyDeck,230,1130
rlgp1o8wbuq,13383,21/03/2022@20:14:21,"Mozilla/5.0 (Windows NT 10.0; Win64; x64) AppleWebKit/537.36 (KHTML, like Gecko) Chrome/99.0.4844.74 Safari/537.36",1536,864,1536,714,main,1484376,207,23,19,HE,relative_first,relative,Extreme,Harder than Reference,F,k,safeDeck,riskyDeck,0,28,14,right,1,0,60,absent,riskyDeck,755,1546
rlgp1o8wbuq,13383,21/03/2022@20:14:21,"Mozilla/5.0 (Windows NT 10.0; Win64; x64) AppleWebKit/537.36 (KHTML, like Gecko) Chrome/99.0.4844.74 Safari/537.36",1536,864,1536,714,main,1484376,208,23,19,EM,relative_first,relative,Moderate,Easier than Reference,F,j,riskyDeck,safeDeck,0,-28,-14,right,0,0,18,present,safeDeck,263,882
rlgp1o8wbuq,13383,21/03/2022@20:14:21,"Mozilla/5.0 (Windows NT 10.0; Win64; x64) AppleWebKit/537.36 (KHTML, like Gecko) Chrome/99.0.4844.74 Safari/537.36",1536,864,1536,714,main,1484376,209,23,19,EE,relative_first,relative,Extreme,Easier than Reference,D,j,safeDeck,riskyDeck,0,-14,-7,left,0,0,25,present,safeDeck,227,724
rlgp1o8wbuq,13383,21/03/2022@20:14:21,"Mozilla/5.0 (Windows NT 10.0; Win64; x64) AppleWebKit/537.36 (KHTML, like Gecko) Chrome/99.0.4844.74 Safari/537.36",1536,864,1536,714,main,1484376,210,24,19,HE,relative_first,relative,Extreme,Harder than Reference,F,k,safeDeck,riskyDeck,0,28,14,right,1,0,60,absent,riskyDeck,239,3112
rlgp1o8wbuq,13383,21/03/2022@20:14:21,"Mozilla/5.0 (Windows NT 10.0; Win64; x64) AppleWebKit/537.36 (KHTML, like Gecko) Chrome/99.0.4844.74 Safari/537.36",1536,864,1536,714,main,1484376,211,24,19,HM,relative_first,relative,Moderate,Harder than Reference,F,k,riskyDeck,safeDeck,0,14,7,right,0,1,39,present,safeDeck,140,2294
rlgp1o8wbuq,13383,21/03/2022@20:14:21,"Mozilla/5.0 (Windows NT 10.0; Win64; x64) AppleWebKit/537.36 (KHTML, like Gecko) Chrome/99.0.4844.74 Safari/537.36",1536,864,1536,714,main,1484376,212,24,19,EM,relative_first,relative,Moderate,Easier than Reference,F,k,riskyDeck,safeDeck,0,-28,-14,right,0,0,18,absent,safeDeck,430,1749
rlgp1o8wbuq,13383,21/03/2022@20:14:21,"Mozilla/5.0 (Windows NT 10.0; Win64; x64) AppleWebKit/537.36 (KHTML, like Gecko) Chrome/99.0.4844.74 Safari/537.36",1536,864,1536,714,main,1484376,213,24,19,HM,relative_first,relative,Moderate,Harder than Reference,F,k,safeDeck,riskyDeck,14,0,7,right,1,0,46,absent,riskyDeck,698,3383
rlgp1o8wbuq,13383,21/03/2022@20:14:21,"Mozilla/5.0 (Windows NT 10.0; Win64; x64) AppleWebKit/537.36 (KHTML, like Gecko) Chrome/99.0.4844.74 Safari/537.36",1536,864,1536,714,main,1484376,214,24,19,EM,relative_first,relative,Moderate,Easier than Reference,F,j,safeDeck,riskyDeck,-28,0,-14,right,1,0,32,present,riskyDeck,244,1020
rlgp1o8wbuq,13383,21/03/2022@20:14:21,"Mozilla/5.0 (Windows NT 10.0; Win64; x64) AppleWebKit/537.36 (KHTML, like Gecko) Chrome/99.0.4844.74 Safari/537.36",1536,864,1536,714,main,1484376,215,24,19,EE,relative_first,relative,Extreme,Easier than Reference,F,j,riskyDeck,safeDeck,0,-14,-7,right,0,0,25,present,safeDeck,377,658
rlgp1o8wbuq,13383,21/03/2022@20:14:21,"Mozilla/5.0 (Windows NT 10.0; Win64; x64) AppleWebKit/537.36 (KHTML, like Gecko) Chrome/99.0.4844.74 Safari/537.36",1536,864,1536,714,main,1484376,216,24,19,HE,relative_first,relative,Extreme,Harder than Reference,F,j,riskyDeck,safeDeck,28,0,14,right,0,0,46,present,safeDeck,587,1443
rlgp1o8wbuq,13383,21/03/2022@20:14:21,"Mozilla/5.0 (Windows NT 10.0; Win64; x64) AppleWebKit/537.36 (KHTML, like Gecko) Chrome/99.0.4844.74 Safari/537.36",1536,864,1536,714,main,1484376,217,24,20,EM,relative_first,relative,Moderate,Easier than Reference,F,j,safeDeck,riskyDeck,0,-28,-14,right,1,0,32,present,riskyDeck,209,868
rlgp1o8wbuq,13383,21/03/2022@20:14:21,"Mozilla/5.0 (Windows NT 10.0; Win64; x64) AppleWebKit/537.36 (KHTML, like Gecko) Chrome/99.0.4844.74 Safari/537.36",1536,864,1536,714,main,1484376,218,24,20,EE,relative_first,relative,Extreme,Easier than Reference,F,j,riskyDeck,safeDeck,0,-14,-7,right,0,0,25,present,safeDeck,188,1164
rlgp1o8wbuq,13383,21/03/2022@20:14:21,"Mozilla/5.0 (Windows NT 10.0; Win64; x64) AppleWebKit/537.36 (KHTML, like Gecko) Chrome/99.0.4844.74 Safari/537.36",1536,864,1536,714,main,1484376,219,24,20,HM,relative_first,relative,Moderate,Harder than Reference,F,j,riskyDeck,safeDeck,14,0,7,right,0,0,39,present,safeDeck,260,1761
rlgp1o8wbuq,13383,21/03/2022@20:14:21,"Mozilla/5.0 (Windows NT 10.0; Win64; x64) AppleWebKit/537.36 (KHTML, like Gecko) Chrome/99.0.4844.74 Safari/537.36",1536,864,1536,714,main,1484376,220,24,20,HE,relative_first,relative,Extreme,Harder than Reference,F,j,safeDeck,riskyDeck,28,0,14,right,1,0,60,present,riskyDeck,124,1453
rlgp1o8wbuq,13383,21/03/2022@20:14:21,"Mozilla/5.0 (Windows NT 10.0; Win64; x64) AppleWebKit/537.36 (KHTML, like Gecko) Chrome/99.0.4844.74 Safari/537.36",1536,864,1536,714,main,1484376,221,24,20,HE,relative_first,relative,Extreme,Harder than Reference,F,j,safeDeck,riskyDeck,28,0,14,right,1,0,60,present,riskyDeck,1273,168
rlgp1o8wbuq,13383,21/03/2022@20:14:21,"Mozilla/5.0 (Windows NT 10.0; Win64; x64) AppleWebKit/537.36 (KHTML, like Gecko) Chrome/99.0.4844.74 Safari/537.36",1536,864,1536,714,main,1484376,222,24,20,EM,relative_first,relative,Moderate,Easier than Reference,F,k,riskyDeck,safeDeck,0,-28,-14,right,0,0,18,absent,safeDeck,1175,1299
rlgp1o8wbuq,13383,21/03/2022@20:14:21,"Mozilla/5.0 (Windows NT 10.0; Win64; x64) AppleWebKit/537.36 (KHTML, like Gecko) Chrome/99.0.4844.74 Safari/537.36",1536,864,1536,714,main,1484376,223,24,20,EE,relative_first,relative,Extreme,Easier than Reference,F,k,riskyDeck,safeDeck,0,-14,-7,right,0,0,25,absent,safeDeck,111,1049
rlgp1o8wbuq,13383,21/03/2022@20:14:21,"Mozilla/5.0 (Windows NT 10.0; Win64; x64) AppleWebKit/537.36 (KHTML, like Gecko) Chrome/99.0.4844.74 Safari/537.36",1536,864,1536,714,main,1484376,224,24,20,HM,relative_first,relative,Moderate,Harder than Reference,F,j,riskyDeck,safeDeck,14,0,7,right,0,0,39,present,safeDeck,234,895
rlgp1o8wbuq,13383,21/03/2022@20:14:21,"Mozilla/5.0 (Windows NT 10.0; Win64; x64) AppleWebKit/537.36 (KHTML, like Gecko) Chrome/99.0.4844.74 Safari/537.36",1536,864,1536,714,main,1484376,225,24,20,HM,relative_first,relative,Moderate,Harder than Reference,F,k,riskyDeck,safeDeck,14,0,7,right,0,0,39,absent,safeDeck,157,1191
rlgp1o8wbuq,13383,21/03/2022@20:14:21,"Mozilla/5.0 (Windows NT 10.0; Win64; x64) AppleWebKit/537.36 (KHTML, like Gecko) Chrome/99.0.4844.74 Safari/537.36",1536,864,1536,714,main,1484376,226,24,20,EM,relative_first,relative,Moderate,Easier than Reference,F,j,riskyDeck,safeDeck,-28,0,-14,right,0,0,18,present,safeDeck,480,677
rlgp1o8wbuq,13383,21/03/2022@20:14:21,"Mozilla/5.0 (Windows NT 10.0; Win64; x64) AppleWebKit/537.36 (KHTML, like Gecko) Chrome/99.0.4844.74 Safari/537.36",1536,864,1536,714,main,1484376,227,25,20,HE,relative_first,relative,Extreme,Harder than Reference,F,j,riskyDeck,safeDeck,28,0,14,right,0,0,46,present,safeDeck,4524,800
rlgp1o8wbuq,13383,21/03/2022@20:14:21,"Mozilla/5.0 (Windows NT 10.0; Win64; x64) AppleWebKit/537.36 (KHTML, like Gecko) Chrome/99.0.4844.74 Safari/537.36",1536,864,1536,714,main,1484376,228,25,20,EE,relative_first,relative,Extreme,Easier than Reference,F,k,safeDeck,riskyDeck,0,-14,-7,right,1,0,32,absent,riskyDeck,172,1266
rlgp1o8wbuq,13383,21/03/2022@20:14:21,"Mozilla/5.0 (Windows NT 10.0; Win64; x64) AppleWebKit/537.36 (KHTML, like Gecko) Chrome/99.0.4844.74 Safari/537.36",1536,864,1536,714,main,1484376,229,25,20,EE,relative_first,relative,Extreme,Easier than Reference,F,j,riskyDeck,safeDeck,0,-14,-7,right,0,0,25,present,safeDeck,213,1823
rlgp1o8wbuq,13383,21/03/2022@20:14:21,"Mozilla/5.0 (Windows NT 10.0; Win64; x64) AppleWebKit/537.36 (KHTML, like Gecko) Chrome/99.0.4844.74 Safari/537.36",1536,864,1536,714,main,1484376,230,25,20,HE,relative_first,relative,Extreme,Harder than Reference,D,j,safeDeck,riskyDeck,28,0,14,left,0,0,46,present,safeDeck,223,1090
rlgp1o8wbuq,13383,21/03/2022@20:14:21,"Mozilla/5.0 (Windows NT 10.0; Win64; x64) AppleWebKit/537.36 (KHTML, like Gecko) Chrome/99.0.4844.74 Safari/537.36",1536,864,1536,714,main,1484376,231,25,20,EM,relative_first,relative,Moderate,Easier than Reference,D,j,riskyDeck,safeDeck,-28,0,-14,left,1,0,4,present,riskyDeck,48,609
rlgp1o8wbuq,13383,21/03/2022@20:14:21,"Mozilla/5.0 (Windows NT 10.0; Win64; x64) AppleWebKit/537.36 (KHTML, like Gecko) Chrome/99.0.4844.74 Safari/537.36",1536,864,1536,714,main,1484376,232,25,20,HM,relative_first,relative,Moderate,Harder than Reference,D,j,riskyDeck,safeDeck,0,14,7,left,1,1,32,absent,riskyDeck,171,1909
rlgp1o8wbuq,13383,21/03/2022@20:14:21,"Mozilla/5.0 (Windows NT 10.0; Win64; x64) AppleWebKit/537.36 (KHTML, like Gecko) Chrome/99.0.4844.74 Safari/537.36",1536,864,1536,714,main,1484376,233,25,20,HM,relative_first,relative,Moderate,Harder than Reference,D,j,riskyDeck,safeDeck,14,0,7,left,1,0,32,present,riskyDeck,307,1222
rlgp1o8wbuq,13383,21/03/2022@20:14:21,"Mozilla/5.0 (Windows NT 10.0; Win64; x64) AppleWebKit/537.36 (KHTML, like Gecko) Chrome/99.0.4844.74 Safari/537.36",1536,864,1536,714,main,1484376,234,25,21,EE,relative_first,relative,Extreme,Easier than Reference,F,j,safeDeck,riskyDeck,-14,0,-7,right,1,0,18,present,riskyDeck,255,1455
rlgp1o8wbuq,13383,21/03/2022@20:14:21,"Mozilla/5.0 (Windows NT 10.0; Win64; x64) AppleWebKit/537.36 (KHTML, like Gecko) Chrome/99.0.4844.74 Safari/537.36",1536,864,1536,714,main,1484376,235,25,21,HE,relative_first,relative,Extreme,Harder than Reference,D,k,riskyDeck,safeDeck,28,0,14,left,1,0,32,absent,riskyDeck,184,1648
rlgp1o8wbuq,13383,21/03/2022@20:14:21,"Mozilla/5.0 (Windows NT 10.0; Win64; x64) AppleWebKit/537.36 (KHTML, like Gecko) Chrome/99.0.4844.74 Safari/537.36",1536,864,1536,714,main,1484376,236,25,21,EM,relative_first,relative,Moderate,Easier than Reference,F,k,riskyDeck,safeDeck,0,-28,-14,right,0,0,18,absent,safeDeck,165,2507
rlgp1o8wbuq,13383,21/03/2022@20:14:21,"Mozilla/5.0 (Windows NT 10.0; Win64; x64) AppleWebKit/537.36 (KHTML, like Gecko) Chrome/99.0.4844.74 Safari/537.36",1536,864,1536,714,main,1484376,237,25,21,EM,relative_first,relative,Moderate,Easier than Reference,D,k,safeDeck,riskyDeck,0,-28,-14,left,0,0,18,absent,safeDeck,447,1224
rlgp1o8wbuq,13383,21/03/2022@20:14:21,"Mozilla/5.0 (Windows NT 10.0; Win64; x64) AppleWebKit/537.36 (KHTML, like Gecko) Chrome/99.0.4844.74 Safari/537.36",1536,864,1536,714,main,1484376,238,25,21,EE,relative_first,relative,Extreme,Easier than Reference,D,k,riskyDeck,safeDeck,0,-14,-7,left,1,0,18,absent,riskyDeck,254,1356
rlgp1o8wbuq,13383,21/03/2022@20:14:21,"Mozilla/5.0 (Windows NT 10.0; Win64; x64) AppleWebKit/537.36 (KHTML, like Gecko) Chrome/99.0.4844.74 Safari/537.36",1536,864,1536,714,main,1484376,239,25,21,HE,relative_first,relative,Extreme,Harder than Reference,F,k,riskyDeck,safeDeck,28,0,14,right,0,0,46,absent,safeDeck,186,1250
rlgp1o8wbuq,13383,21/03/2022@20:14:21,"Mozilla/5.0 (Windows NT 10.0; Win64; x64) AppleWebKit/537.36 (KHTML, like Gecko) Chrome/99.0.4844.74 Safari/537.36",1536,864,1536,714,main,1484376,240,25,21,HM,relative_first,relative,Moderate,Harder than Reference,F,k,riskyDeck,safeDeck,14,0,7,right,0,0,39,absent,safeDeck,259,1170
rlgp1o8wbuq,13383,21/03/2022@20:14:21,"Mozilla/5.0 (Windows NT 10.0; Win64; x64) AppleWebKit/537.36 (KHTML, like Gecko) Chrome/99.0.4844.74 Safari/537.36",1536,864,1536,714,main,1484376,241,25,21,EM,relative_first,relative,Moderate,Easier than Reference,F,k,safeDeck,riskyDeck,0,-28,-14,right,1,0,32,absent,riskyDeck,206,1447
rlgp1o8wbuq,13383,21/03/2022@20:14:21,"Mozilla/5.0 (Windows NT 10.0; Win64; x64) AppleWebKit/537.36 (KHTML, like Gecko) Chrome/99.0.4844.74 Safari/537.36",1536,864,1536,714,main,1484376,242,25,21,EE,relative_first,relative,Extreme,Easier than Reference,D,j,riskyDeck,safeDeck,-14,0,-7,left,1,0,32,present,riskyDeck,330,1112
rlgp1o8wbuq,13383,21/03/2022@20:14:21,"Mozilla/5.0 (Windows NT 10.0; Win64; x64) AppleWebKit/537.36 (KHTML, like Gecko) Chrome/99.0.4844.74 Safari/537.36",1536,864,1536,714,main,1484376,243,25,21,HE,relative_first,relative,Extreme,Harder than Reference,F,k,riskyDeck,safeDeck,0,28,14,right,0,0,46,absent,safeDeck,267,1542
rlgp1o8wbuq,13383,21/03/2022@20:14:21,"Mozilla/5.0 (Windows NT 10.0; Win64; x64) AppleWebKit/537.36 (KHTML, like Gecko) Chrome/99.0.4844.74 Safari/537.36",1536,864,1536,714,main,1484376,244,26,21,HM,relative_first,relative,Moderate,Harder than Reference,D,k,safeDeck,riskyDeck,0,14,7,left,0,1,39,present,safeDeck,290,1105
rlgp1o8wbuq,13383,21/03/2022@20:14:21,"Mozilla/5.0 (Windows NT 10.0; Win64; x64) AppleWebKit/537.36 (KHTML, like Gecko) Chrome/99.0.4844.74 Safari/537.36",1536,864,1536,714,main,1484376,245,26,21,HE,relative_first,relative,Extreme,Harder than Reference,F,k,riskyDeck,safeDeck,28,0,14,right,0,0,46,absent,safeDeck,258,1508
rlgp1o8wbuq,13383,21/03/2022@20:14:21,"Mozilla/5.0 (Windows NT 10.0; Win64; x64) AppleWebKit/537.36 (KHTML, like Gecko) Chrome/99.0.4844.74 Safari/537.36",1536,864,1536,714,main,1484376,246,26,21,HM,relative_first,relative,Moderate,Harder than Reference,F,k,riskyDeck,safeDeck,14,0,7,right,0,0,39,absent,safeDeck,323,1542
rlgp1o8wbuq,13383,21/03/2022@20:14:21,"Mozilla/5.0 (Windows NT 10.0; Win64; x64) AppleWebKit/537.36 (KHTML, like Gecko) Chrome/99.0.4844.74 Safari/537.36",1536,864,1536,714,main,1484376,247,26,21,EE,relative_first,relative,Extreme,Easier than Reference,D,k,safeDeck,riskyDeck,0,-14,-7,left,0,1,25,present,safeDeck,231,1102
rlgp1o8wbuq,13383,21/03/2022@20:14:21,"Mozilla/5.0 (Windows NT 10.0; Win64; x64) AppleWebKit/537.36 (KHTML, like Gecko) Chrome/99.0.4844.74 Safari/537.36",1536,864,1536,714,main,1484376,248,26,21,EM,relative_first,relative,Moderate,Easier than Reference,F,k,riskyDeck,safeDeck,-28,0,-14,right,0,0,18,absent,safeDeck,313,1147
rlgp1o8wbuq,13383,21/03/2022@20:14:21,"Mozilla/5.0 (Windows NT 10.0; Win64; x64) AppleWebKit/537.36 (KHTML, like Gecko) Chrome/99.0.4844.74 Safari/537.36",1536,864,1536,714,main,1484376,249,26,21,HM,relative_first,relative,Moderate,Harder than Reference,D,j,safeDeck,riskyDeck,14,0,7,left,0,0,39,present,safeDeck,223,1421
rlgp1o8wbuq,13383,21/03/2022@20:14:21,"Mozilla/5.0 (Windows NT 10.0; Win64; x64) AppleWebKit/537.36 (KHTML, like Gecko) Chrome/99.0.4844.74 Safari/537.36",1536,864,1536,714,main,1484376,250,26,21,HE,relative_first,relative,Extreme,Harder than Reference,D,k,safeDeck,riskyDeck,0,28,14,left,0,0,46,absent,safeDeck,167,1851
rlgp1o8wbuq,13383,21/03/2022@20:14:21,"Mozilla/5.0 (Windows NT 10.0; Win64; x64) AppleWebKit/537.36 (KHTML, like Gecko) Chrome/99.0.4844.74 Safari/537.36",1536,864,1536,714,main,1484376,251,26,21,EE,relative_first,relative,Extreme,Easier than Reference,F,k,riskyDeck,safeDeck,0,-14,-7,right,0,1,25,present,safeDeck,251,1148
rlgp1o8wbuq,13383,21/03/2022@20:14:21,"Mozilla/5.0 (Windows NT 10.0; Win64; x64) AppleWebKit/537.36 (KHTML, like Gecko) Chrome/99.0.4844.74 Safari/537.36",1536,864,1536,714,main,1484376,252,26,22,EM,relative_first,relative,Moderate,Easier than Reference,D,j,riskyDeck,safeDeck,-28,0,-14,left,1,0,4,present,riskyDeck,376,551
rlgp1o8wbuq,13383,21/03/2022@20:14:21,"Mozilla/5.0 (Windows NT 10.0; Win64; x64) AppleWebKit/537.36 (KHTML, like Gecko) Chrome/99.0.4844.74 Safari/537.36",1536,864,1536,714,main,1484376,253,26,22,HE,relative_first,relative,Extreme,Harder than Reference,F,k,riskyDeck,safeDeck,0,28,14,right,0,1,46,present,safeDeck,158,2309
rlgp1o8wbuq,13383,21/03/2022@20:14:21,"Mozilla/5.0 (Windows NT 10.0; Win64; x64) AppleWebKit/537.36 (KHTML, like Gecko) Chrome/99.0.4844.74 Safari/537.36",1536,864,1536,714,main,1484376,254,26,22,EM,relative_first,relative,Moderate,Easier than Reference,F,j,safeDeck,riskyDeck,-28,0,-14,right,1,0,4,present,riskyDeck,181,613
rlgp1o8wbuq,13383,21/03/2022@20:14:21,"Mozilla/5.0 (Windows NT 10.0; Win64; x64) AppleWebKit/537.36 (KHTML, like Gecko) Chrome/99.0.4844.74 Safari/537.36",1536,864,1536,714,main,1484376,255,26,22,HM,relative_first,relative,Moderate,Harder than Reference,F,k,riskyDeck,safeDeck,14,0,7,right,0,0,39,absent,safeDeck,189,1796
rlgp1o8wbuq,13383,21/03/2022@20:14:21,"Mozilla/5.0 (Windows NT 10.0; Win64; x64) AppleWebKit/537.36 (KHTML, like Gecko) Chrome/99.0.4844.74 Safari/537.36",1536,864,1536,714,main,1484376,256,26,22,EE,relative_first,relative,Extreme,Easier than Reference,F,j,safeDeck,riskyDeck,0,-14,-7,right,1,0,32,present,riskyDeck,232,1277
rlgp1o8wbuq,13383,21/03/2022@20:14:21,"Mozilla/5.0 (Windows NT 10.0; Win64; x64) AppleWebKit/537.36 (KHTML, like Gecko) Chrome/99.0.4844.74 Safari/537.36",1536,864,1536,714,main,1484376,257,26,22,HE,relative_first,relative,Extreme,Harder than Reference,F,k,riskyDeck,safeDeck,28,0,14,right,0,0,46,absent,safeDeck,134,2706
rlgp1o8wbuq,13383,21/03/2022@20:14:21,"Mozilla/5.0 (Windows NT 10.0; Win64; x64) AppleWebKit/537.36 (KHTML, like Gecko) Chrome/99.0.4844.74 Safari/537.36",1536,864,1536,714,main,1484376,258,26,22,EE,relative_first,relative,Extreme,Easier than Reference,F,k,safeDeck,riskyDeck,-14,0,-7,right,1,0,18,absent,riskyDeck,171,1372
rlgp1o8wbuq,13383,21/03/2022@20:14:21,"Mozilla/5.0 (Windows NT 10.0; Win64; x64) AppleWebKit/537.36 (KHTML, like Gecko) Chrome/99.0.4844.74 Safari/537.36",1536,864,1536,714,main,1484376,259,26,22,EM,relative_first,relative,Moderate,Easier than Reference,F,j,safeDeck,riskyDeck,-28,0,-14,right,1,0,32,present,riskyDeck,138,1218
rlgp1o8wbuq,13383,21/03/2022@20:14:21,"Mozilla/5.0 (Windows NT 10.0; Win64; x64) AppleWebKit/537.36 (KHTML, like Gecko) Chrome/99.0.4844.74 Safari/537.36",1536,864,1536,714,main,1484376,260,27,22,HM,relative_first,relative,Moderate,Harder than Reference,F,j,riskyDeck,safeDeck,14,0,7,right,0,0,39,present,safeDeck,118,1410
rlgp1o8wbuq,13383,21/03/2022@20:14:21,"Mozilla/5.0 (Windows NT 10.0; Win64; x64) AppleWebKit/537.36 (KHTML, like Gecko) Chrome/99.0.4844.74 Safari/537.36",1536,864,1536,714,main,1484376,261,27,22,EM,relative_first,relative,Moderate,Easier than Reference,F,k,safeDeck,riskyDeck,0,-28,-14,right,1,0,4,absent,riskyDeck,85,1263
rlgp1o8wbuq,13383,21/03/2022@20:14:21,"Mozilla/5.0 (Windows NT 10.0; Win64; x64) AppleWebKit/537.36 (KHTML, like Gecko) Chrome/99.0.4844.74 Safari/537.36",1536,864,1536,714,main,1484376,262,27,22,HM,relative_first,relative,Moderate,Harder than Reference,F,j,riskyDeck,safeDeck,14,0,7,right,0,0,39,present,safeDeck,469,1387
rlgp1o8wbuq,13383,21/03/2022@20:14:21,"Mozilla/5.0 (Windows NT 10.0; Win64; x64) AppleWebKit/537.36 (KHTML, like Gecko) Chrome/99.0.4844.74 Safari/537.36",1536,864,1536,714,main,1484376,263,27,22,EE,relative_first,relative,Extreme,Easier than Reference,F,j,safeDeck,riskyDeck,-14,0,-7,right,1,0,32,present,riskyDeck,139,1372
rlgp1o8wbuq,13383,21/03/2022@20:14:21,"Mozilla/5.0 (Windows NT 10.0; Win64; x64) AppleWebKit/537.36 (KHTML, like Gecko) Chrome/99.0.4844.74 Safari/537.36",1536,864,1536,714,main,1484376,264,27,22,HE,relative_first,relative,Extreme,Harder than Reference,F,k,safeDeck,riskyDeck,0,28,14,right,1,0,60,absent,riskyDeck,113,4599
rlgp1o8wbuq,13383,21/03/2022@20:14:21,"Mozilla/5.0 (Windows NT 10.0; Win64; x64) AppleWebKit/537.36 (KHTML, like Gecko) Chrome/99.0.4844.74 Safari/537.36",1536,864,1536,714,main,1484376,265,27,22,EE,relative_first,relative,Extreme,Easier than Reference,D,k,safeDeck,riskyDeck,-14,0,-7,left,0,0,25,absent,safeDeck,991,2050
rlgp1o8wbuq,13383,21/03/2022@20:14:21,"Mozilla/5.0 (Windows NT 10.0; Win64; x64) AppleWebKit/537.36 (KHTML, like Gecko) Chrome/99.0.4844.74 Safari/537.36",1536,864,1536,714,main,1484376,266,27,22,HE,relative_first,relative,Extreme,Harder than Reference,F,j,riskyDeck,safeDeck,0,28,14,right,0,0,46,present,safeDeck,433,2714
rlgp1o8wbuq,13383,21/03/2022@20:14:21,"Mozilla/5.0 (Windows NT 10.0; Win64; x64) AppleWebKit/537.36 (KHTML, like Gecko) Chrome/99.0.4844.74 Safari/537.36",1536,864,1536,714,main,1484376,267,27,23,HM,relative_first,relative,Moderate,Harder than Reference,D,j,riskyDeck,safeDeck,14,0,7,left,1,0,46,present,riskyDeck,136,1332
rlgp1o8wbuq,13383,21/03/2022@20:14:21,"Mozilla/5.0 (Windows NT 10.0; Win64; x64) AppleWebKit/537.36 (KHTML, like Gecko) Chrome/99.0.4844.74 Safari/537.36",1536,864,1536,714,main,1484376,268,27,23,EM,relative_first,relative,Moderate,Easier than Reference,F,k,safeDeck,riskyDeck,-28,0,-14,right,1,0,32,absent,riskyDeck,164,1725
rlgp1o8wbuq,13383,21/03/2022@20:14:21,"Mozilla/5.0 (Windows NT 10.0; Win64; x64) AppleWebKit/537.36 (KHTML, like Gecko) Chrome/99.0.4844.74 Safari/537.36",1536,864,1536,714,main,1484376,269,27,23,HM,relative_first,relative,Moderate,Harder than Reference,F,j,riskyDeck,safeDeck,0,14,7,right,0,0,39,present,safeDeck,119,1680
rlgp1o8wbuq,13383,21/03/2022@20:14:21,"Mozilla/5.0 (Windows NT 10.0; Win64; x64) AppleWebKit/537.36 (KHTML, like Gecko) Chrome/99.0.4844.74 Safari/537.36",1536,864,1536,714,main,1484376,270,27,23,EE,relative_first,relative,Extreme,Easier than Reference,F,j,riskyDeck,safeDeck,-14,0,-7,right,0,0,25,present,safeDeck,203,888
rlgp1o8wbuq,13383,21/03/2022@20:14:21,"Mozilla/5.0 (Windows NT 10.0; Win64; x64) AppleWebKit/537.36 (KHTML, like Gecko) Chrome/99.0.4844.74 Safari/537.36",1536,864,1536,714,main,1484376,271,27,23,HE,relative_first,relative,Extreme,Harder than Reference,D,j,riskyDeck,safeDeck,0,28,14,left,1,0,32,present,riskyDeck,366,6294
rlgp1o8wbuq,13383,21/03/2022@20:14:21,"Mozilla/5.0 (Windows NT 10.0; Win64; x64) AppleWebKit/537.36 (KHTML, like Gecko) Chrome/99.0.4844.74 Safari/537.36",1536,864,1536,714,main,1484376,272,27,23,EM,relative_first,relative,Moderate,Easier than Reference,F,j,safeDeck,riskyDeck,-28,0,-14,right,1,0,4,present,riskyDeck,517,619
rlgp1o8wbuq,13383,21/03/2022@20:14:21,"Mozilla/5.0 (Windows NT 10.0; Win64; x64) AppleWebKit/537.36 (KHTML, like Gecko) Chrome/99.0.4844.74 Safari/537.36",1536,864,1536,714,main,1484376,273,27,23,HM,relative_first,relative,Moderate,Harder than Reference,D,k,riskyDeck,safeDeck,14,0,7,left,1,0,46,absent,riskyDeck,136,1957
rlgp1o8wbuq,13383,21/03/2022@20:14:21,"Mozilla/5.0 (Windows NT 10.0; Win64; x64) AppleWebKit/537.36 (KHTML, like Gecko) Chrome/99.0.4844.74 Safari/537.36",1536,864,1536,714,main,1484376,274,27,23,HE,relative_first,relative,Extreme,Harder than Reference,F,j,riskyDeck,safeDeck,28,0,14,right,0,1,46,absent,safeDeck,328,3486
rlgp1o8wbuq,13383,21/03/2022@20:14:21,"Mozilla/5.0 (Windows NT 10.0; Win64; x64) AppleWebKit/537.36 (KHTML, like Gecko) Chrome/99.0.4844.74 Safari/537.36",1536,864,1536,714,main,1484376,275,28,23,EM,relative_first,relative,Moderate,Easier than Reference,F,j,riskyDeck,safeDeck,0,-28,-14,right,0,0,18,present,safeDeck,273,606
rlgp1o8wbuq,13383,21/03/2022@20:14:21,"Mozilla/5.0 (Windows NT 10.0; Win64; x64) AppleWebKit/537.36 (KHTML, like Gecko) Chrome/99.0.4844.74 Safari/537.36",1536,864,1536,714,main,1484376,276,28,23,EE,relative_first,relative,Extreme,Easier than Reference,D,k,safeDeck,riskyDeck,-14,0,-7,left,0,0,25,absent,safeDeck,193,1218
rlgp1o8wbuq,13383,21/03/2022@20:14:21,"Mozilla/5.0 (Windows NT 10.0; Win64; x64) AppleWebKit/537.36 (KHTML, like Gecko) Chrome/99.0.4844.74 Safari/537.36",1536,864,1536,714,main,1484376,277,28,23,EM,relative_first,relative,Moderate,Easier than Reference,F,j,riskyDeck,safeDeck,-28,0,-14,right,0,0,18,present,safeDeck,176,1246
rlgp1o8wbuq,13383,21/03/2022@20:14:21,"Mozilla/5.0 (Windows NT 10.0; Win64; x64) AppleWebKit/537.36 (KHTML, like Gecko) Chrome/99.0.4844.74 Safari/537.36",1536,864,1536,714,main,1484376,278,28,23,HM,relative_first,relative,Moderate,Harder than Reference,D,k,riskyDeck,safeDeck,14,0,7,left,1,0,32,absent,riskyDeck,121,886
rlgp1o8wbuq,13383,21/03/2022@20:14:21,"Mozilla/5.0 (Windows NT 10.0; Win64; x64) AppleWebKit/537.36 (KHTML, like Gecko) Chrome/99.0.4844.74 Safari/537.36",1536,864,1536,714,main,1484376,279,28,23,HE,relative_first,relative,Extreme,Harder than Reference,F,k,riskyDeck,safeDeck,0,28,14,right,0,0,46,absent,safeDeck,182,1150
rlgp1o8wbuq,13383,21/03/2022@20:14:21,"Mozilla/5.0 (Windows NT 10.0; Win64; x64) AppleWebKit/537.36 (KHTML, like Gecko) Chrome/99.0.4844.74 Safari/537.36",1536,864,1536,714,main,1484376,280,28,23,EE,relative_first,relative,Extreme,Easier than Reference,F,k,riskyDeck,safeDeck,0,-14,-7,right,0,0,25,absent,safeDeck,211,1352
rlgp1o8wbuq,13383,21/03/2022@20:14:21,"Mozilla/5.0 (Windows NT 10.0; Win64; x64) AppleWebKit/537.36 (KHTML, like Gecko) Chrome/99.0.4844.74 Safari/537.36",1536,864,1536,714,main,1484376,281,28,23,EE,relative_first,relative,Extreme,Easier than Reference,F,j,riskyDeck,safeDeck,0,-14,-7,right,0,0,25,present,safeDeck,208,954
rlgp1o8wbuq,13383,21/03/2022@20:14:21,"Mozilla/5.0 (Windows NT 10.0; Win64; x64) AppleWebKit/537.36 (KHTML, like Gecko) Chrome/99.0.4844.74 Safari/537.36",1536,864,1536,714,main,1484376,282,28,23,HM,relative_first,relative,Moderate,Harder than Reference,D,k,riskyDeck,safeDeck,14,0,7,left,1,0,46,absent,riskyDeck,217,1127
rlgp1o8wbuq,13383,21/03/2022@20:14:21,"Mozilla/5.0 (Windows NT 10.0; Win64; x64) AppleWebKit/537.36 (KHTML, like Gecko) Chrome/99.0.4844.74 Safari/537.36",1536,864,1536,714,main,1484376,283,28,23,HE,relative_first,relative,Extreme,Harder than Reference,F,j,riskyDeck,safeDeck,28,0,14,right,0,0,46,present,safeDeck,159,812
rlgp1o8wbuq,13383,21/03/2022@20:14:21,"Mozilla/5.0 (Windows NT 10.0; Win64; x64) AppleWebKit/537.36 (KHTML, like Gecko) Chrome/99.0.4844.74 Safari/537.36",1536,864,1536,714,main,1484376,284,28,24,EM,relative_first,relative,Moderate,Easier than Reference,D,j,safeDeck,riskyDeck,-28,0,-14,left,0,0,18,present,safeDeck,147,1257
rlgp1o8wbuq,13383,21/03/2022@20:14:21,"Mozilla/5.0 (Windows NT 10.0; Win64; x64) AppleWebKit/537.36 (KHTML, like Gecko) Chrome/99.0.4844.74 Safari/537.36",1536,864,1536,714,main,1484376,285,28,24,HM,relative_first,relative,Moderate,Harder than Reference,F,j,safeDeck,riskyDeck,0,14,7,right,1,0,32,present,riskyDeck,169,691
rlgp1o8wbuq,13383,21/03/2022@20:14:21,"Mozilla/5.0 (Windows NT 10.0; Win64; x64) AppleWebKit/537.36 (KHTML, like Gecko) Chrome/99.0.4844.74 Safari/537.36",1536,864,1536,714,main,1484376,286,28,24,EE,relative_first,relative,Extreme,Easier than Reference,D,k,safeDeck,riskyDeck,0,-14,-7,left,0,0,25,absent,safeDeck,203,1267
rlgp1o8wbuq,13383,21/03/2022@20:14:21,"Mozilla/5.0 (Windows NT 10.0; Win64; x64) AppleWebKit/537.36 (KHTML, like Gecko) Chrome/99.0.4844.74 Safari/537.36",1536,864,1536,714,main,1484376,287,28,24,EM,relative_first,relative,Moderate,Easier than Reference,F,k,riskyDeck,safeDeck,-28,0,-14,right,0,0,18,absent,safeDeck,174,2433
rlgp1o8wbuq,13383,21/03/2022@20:14:21,"Mozilla/5.0 (Windows NT 10.0; Win64; x64) AppleWebKit/537.36 (KHTML, like Gecko) Chrome/99.0.4844.74 Safari/537.36",1536,864,1536,714,main,1484376,288,28,24,HE,relative_first,relative,Extreme,Harder than Reference,D,k,riskyDeck,safeDeck,0,28,14,left,1,0,60,absent,riskyDeck,217,1755
rlgp1o8wbuq,13383,21/03/2022@20:14:21,"Mozilla/5.0 (Windows NT 10.0; Win64; x64) AppleWebKit/537.36 (KHTML, like Gecko) Chrome/99.0.4844.74 Safari/537.36",1536,864,1536,714,main,1484376,289,28,24,EE,relative_first,relative,Extreme,Easier than Reference,F,j,safeDeck,riskyDeck,-14,0,-7,right,1,0,18,present,riskyDeck,158,847
rlgp1o8wbuq,13383,21/03/2022@20:14:21,"Mozilla/5.0 (Windows NT 10.0; Win64; x64) AppleWebKit/537.36 (KHTML, like Gecko) Chrome/99.0.4844.74 Safari/537.36",1536,864,1536,714,main,1484376,290,28,24,HE,relative_first,relative,Extreme,Harder than Reference,D,j,riskyDeck,safeDeck,28,0,14,left,1,0,60,present,riskyDeck,154,1762
rlgp1o8wbuq,13383,21/03/2022@20:14:21,"Mozilla/5.0 (Windows NT 10.0; Win64; x64) AppleWebKit/537.36 (KHTML, like Gecko) Chrome/99.0.4844.74 Safari/537.36",1536,864,1536,714,main,1484376,291,28,24,EM,relative_first,relative,Moderate,Easier than Reference,F,j,riskyDeck,safeDeck,-28,0,-14,right,0,0,18,present,safeDeck,165,940
rlgp1o8wbuq,13383,21/03/2022@20:14:21,"Mozilla/5.0 (Windows NT 10.0; Win64; x64) AppleWebKit/537.36 (KHTML, like Gecko) Chrome/99.0.4844.74 Safari/537.36",1536,864,1536,714,main,1484376,292,28,24,HM,relative_first,relative,Moderate,Harder than Reference,D,j,riskyDeck,safeDeck,14,0,7,left,1,0,32,present,riskyDeck,426,739
rlgp1o8wbuq,13383,21/03/2022@20:14:21,"Mozilla/5.0 (Windows NT 10.0; Win64; x64) AppleWebKit/537.36 (KHTML, like Gecko) Chrome/99.0.4844.74 Safari/537.36",1536,864,1536,714,main,1484376,293,28,24,EE,relative_first,relative,Extreme,Easier than Reference,F,k,safeDeck,riskyDeck,0,-14,-7,right,1,0,32,absent,riskyDeck,136,1576
rlgp1o8wbuq,13383,21/03/2022@20:14:21,"Mozilla/5.0 (Windows NT 10.0; Win64; x64) AppleWebKit/537.36 (KHTML, like Gecko) Chrome/99.0.4844.74 Safari/537.36",1536,864,1536,714,main,1484376,294,29,24,EM,relative_first,relative,Moderate,Easier than Reference,F,k,riskyDeck,safeDeck,0,-28,-14,right,0,0,18,absent,safeDeck,134,1425
rlgp1o8wbuq,13383,21/03/2022@20:14:21,"Mozilla/5.0 (Windows NT 10.0; Win64; x64) AppleWebKit/537.36 (KHTML, like Gecko) Chrome/99.0.4844.74 Safari/537.36",1536,864,1536,714,main,1484376,295,29,24,HE,relative_first,relative,Extreme,Harder than Reference,D,k,safeDeck,riskyDeck,0,28,14,left,0,0,46,absent,safeDeck,163,1759
rlgp1o8wbuq,13383,21/03/2022@20:14:21,"Mozilla/5.0 (Windows NT 10.0; Win64; x64) AppleWebKit/537.36 (KHTML, like Gecko) Chrome/99.0.4844.74 Safari/537.36",1536,864,1536,714,main,1484376,296,29,24,HM,relative_first,relative,Moderate,Harder than Reference,F,k,safeDeck,riskyDeck,14,0,7,right,1,0,46,absent,riskyDeck,196,1474
rlgp1o8wbuq,13383,21/03/2022@20:14:21,"Mozilla/5.0 (Windows NT 10.0; Win64; x64) AppleWebKit/537.36 (KHTML, like Gecko) Chrome/99.0.4844.74 Safari/537.36",1536,864,1536,714,main,1484376,297,29,24,EM,relative_first,relative,Moderate,Easier than Reference,D,k,safeDeck,riskyDeck,-28,0,-14,left,0,0,18,absent,safeDeck,227,1271
rlgp1o8wbuq,13383,21/03/2022@20:14:21,"Mozilla/5.0 (Windows NT 10.0; Win64; x64) AppleWebKit/537.36 (KHTML, like Gecko) Chrome/99.0.4844.74 Safari/537.36",1536,864,1536,714,main,1484376,298,29,24,HE,relative_first,relative,Extreme,Harder than Reference,F,k,safeDeck,riskyDeck,28,0,14,right,1,0,32,absent,riskyDeck,199,1549
rlgp1o8wbuq,13383,21/03/2022@20:14:21,"Mozilla/5.0 (Windows NT 10.0; Win64; x64) AppleWebKit/537.36 (KHTML, like Gecko) Chrome/99.0.4844.74 Safari/537.36",1536,864,1536,714,main,1484376,299,29,24,HM,relative_first,relative,Moderate,Harder than Reference,F,k,safeDeck,riskyDeck,0,14,7,right,1,0,32,absent,riskyDeck,171,1459
rlgp1o8wbuq,13383,21/03/2022@20:14:21,"Mozilla/5.0 (Windows NT 10.0; Win64; x64) AppleWebKit/537.36 (KHTML, like Gecko) Chrome/99.0.4844.74 Safari/537.36",1536,864,1536,714,main,1484376,300,29,24,EE,relative_first,relative,Extreme,Easier than Reference,D,k,riskyDeck,safeDeck,-14,0,-7,left,1,0,32,absent,riskyDeck,201,1173
rlgp1o8wbuq,13383,21/03/2022@20:14:21,"Mozilla/5.0 (Windows NT 10.0; Win64; x64) AppleWebKit/537.36 (KHTML, like Gecko) Chrome/99.0.4844.74 Safari/537.36",1536,864,1536,714,main,1484376,301,29,24,HE,relative_first,relative,Extreme,Harder than Reference,F,k,riskyDeck,safeDeck,0,28,14,right,0,0,46,absent,safeDeck,143,1417
rlgp1o8wbuq,13383,21/03/2022@20:14:21,"Mozilla/5.0 (Windows NT 10.0; Win64; x64) AppleWebKit/537.36 (KHTML, like Gecko) Chrome/99.0.4844.74 Safari/537.36",1536,864,1536,714,main,1484376,302,29,24,EE,relative_first,relative,Extreme,Easier than Reference,F,j,safeDeck,riskyDeck,0,-14,-7,right,1,0,18,present,riskyDeck,194,940
rlgp1o8wbuq,13383,21/03/2022@20:14:21,"Mozilla/5.0 (Windows NT 10.0; Win64; x64) AppleWebKit/537.36 (KHTML, like Gecko) Chrome/99.0.4844.74 Safari/537.36",1536,864,1536,714,main,1484376,303,29,24,HM,relative_first,relative,Moderate,Harder than Reference,D,j,safeDeck,riskyDeck,0,14,7,left,0,0,39,present,safeDeck,129,1503
rlgp1o8wbuq,13383,21/03/2022@20:14:21,"Mozilla/5.0 (Windows NT 10.0; Win64; x64) AppleWebKit/537.36 (KHTML, like Gecko) Chrome/99.0.4844.74 Safari/537.36",1536,864,1536,714,main,1484376,304,29,25,EM,relative_first,relative,Moderate,Easier than Reference,F,k,riskyDeck,safeDeck,-28,0,-14,right,0,0,18,absent,safeDeck,88,1063
rlgp1o8wbuq,13383,21/03/2022@20:14:21,"Mozilla/5.0 (Windows NT 10.0; Win64; x64) AppleWebKit/537.36 (KHTML, like Gecko) Chrome/99.0.4844.74 Safari/537.36",1536,864,1536,714,main,1484376,305,29,25,HM,relative_first,relative,Moderate,Harder than Reference,F,k,riskyDeck,safeDeck,14,0,7,right,0,0,39,absent,safeDeck,111,1204
rlgp1o8wbuq,13383,21/03/2022@20:14:21,"Mozilla/5.0 (Windows NT 10.0; Win64; x64) AppleWebKit/537.36 (KHTML, like Gecko) Chrome/99.0.4844.74 Safari/537.36",1536,864,1536,714,main,1484376,306,29,25,EE,relative_first,relative,Extreme,Easier than Reference,D,k,safeDeck,riskyDeck,-14,0,-7,left,0,0,25,absent,safeDeck,145,1036
rlgp1o8wbuq,13383,21/03/2022@20:14:21,"Mozilla/5.0 (Windows NT 10.0; Win64; x64) AppleWebKit/537.36 (KHTML, like Gecko) Chrome/99.0.4844.74 Safari/537.36",1536,864,1536,714,main,1484376,307,29,25,HE,relative_first,relative,Extreme,Harder than Reference,F,j,safeDeck,riskyDeck,0,28,14,right,1,0,60,present,riskyDeck,109,896
rlgp1o8wbuq,13383,21/03/2022@20:14:21,"Mozilla/5.0 (Windows NT 10.0; Win64; x64) AppleWebKit/537.36 (KHTML, like Gecko) Chrome/99.0.4844.74 Safari/537.36",1536,864,1536,714,main,1484376,308,29,25,EM,relative_first,relative,Moderate,Easier than Reference,D,j,safeDeck,riskyDeck,-28,0,-14,left,0,0,18,present,safeDeck,98,821
