"subject","choice_rt_m","choice_rt_sd","sona_id","curTime","userAgent","screenWidth","screenHeight","windowWidth","windowHeight","phase","phase_run_time","trial","exp_runtime_mins","phase_runtime_mins","condition","counterbalance_condition","current_counterbalance_condition","magnitude","direction","choice_response_key","search_response_key","left_deck_id","right_deck_id","risky_deck_outcome_top","risky_deck_outcome_bottom","safe_deck_outcome","selected_deck_location","selectedRiskyDeck","error","n_stimuli","present_or_absent","chosenDeckId","choice_rt","search_rt","selected_deck_location_num","ssd"
"2entcks231w",1205.32131147541,819.249806288374,13597,"21/03/2022@16:28:42","Mozilla/5.0 (Windows NT 10.0; Win64; x64) AppleWebKit/537.36 (KHTML, like Gecko) Chrome/99.0.4844.74 Safari/537.36",1280,720,1144,641,"main",1652093,1,273,2,"HE","relative_first","relative","Extreme","Harder than Reference","F","k","safeDeck","riskyDeck",28,0,14,"right",1,0,60,"absent","riskyDeck",2010,3039,1,0
"2entcks231w",1205.32131147541,819.249806288374,13597,"21/03/2022@16:28:42","Mozilla/5.0 (Windows NT 10.0; Win64; x64) AppleWebKit/537.36 (KHTML, like Gecko) Chrome/99.0.4844.74 Safari/537.36",1280,720,1144,641,"main",1652093,2,273,2,"EM","relative_first","relative","Moderate","Easier than Reference","D","j","safeDeck","riskyDeck",-28,0,-14,"left",0,0,18,"present","safeDeck",2101,2328,-1,1
"2entcks231w",1205.32131147541,819.249806288374,13597,"21/03/2022@16:28:42","Mozilla/5.0 (Windows NT 10.0; Win64; x64) AppleWebKit/537.36 (KHTML, like Gecko) Chrome/99.0.4844.74 Safari/537.36",1280,720,1144,641,"main",1652093,5,274,2,"HE","relative_first","relative","Extreme","Harder than Reference","F","k","safeDeck","riskyDeck",28,0,14,"right",1,1,60,"present","riskyDeck",2700,2682,1,0
"2entcks231w",1205.32131147541,819.249806288374,13597,"21/03/2022@16:28:42","Mozilla/5.0 (Windows NT 10.0; Win64; x64) AppleWebKit/537.36 (KHTML, like Gecko) Chrome/99.0.4844.74 Safari/537.36",1280,720,1144,641,"main",1652093,6,274,2,"HM","relative_first","relative","Moderate","Harder than Reference","D","j","riskyDeck","safeDeck",0,14,7,"left",1,0,32,"present","riskyDeck",1934,3813,-1,0
"2entcks231w",1205.32131147541,819.249806288374,13597,"21/03/2022@16:28:42","Mozilla/5.0 (Windows NT 10.0; Win64; x64) AppleWebKit/537.36 (KHTML, like Gecko) Chrome/99.0.4844.74 Safari/537.36",1280,720,1144,641,"main",1652093,7,274,2,"EM","relative_first","relative","Moderate","Easier than Reference","D","k","safeDeck","riskyDeck",0,-28,-14,"left",0,0,18,"absent","safeDeck",1827,2184,-1,1
"2entcks231w",1205.32131147541,819.249806288374,13597,"21/03/2022@16:28:42","Mozilla/5.0 (Windows NT 10.0; Win64; x64) AppleWebKit/537.36 (KHTML, like Gecko) Chrome/99.0.4844.74 Safari/537.36",1280,720,1144,641,"main",1652093,8,274,2,"EE","relative_first","relative","Extreme","Easier than Reference","F","j","riskyDeck","safeDeck",-14,0,-7,"right",0,0,25,"present","safeDeck",2517,2138,1,1
"2entcks231w",1205.32131147541,819.249806288374,13597,"21/03/2022@16:28:42","Mozilla/5.0 (Windows NT 10.0; Win64; x64) AppleWebKit/537.36 (KHTML, like Gecko) Chrome/99.0.4844.74 Safari/537.36",1280,720,1144,641,"main",1652093,9,274,3,"HE","relative_first","relative","Extreme","Harder than Reference","D","k","safeDeck","riskyDeck",0,28,14,"left",0,1,46,"present","safeDeck",2133,3080,-1,1
"2entcks231w",1205.32131147541,819.249806288374,13597,"21/03/2022@16:28:42","Mozilla/5.0 (Windows NT 10.0; Win64; x64) AppleWebKit/537.36 (KHTML, like Gecko) Chrome/99.0.4844.74 Safari/537.36",1280,720,1144,641,"main",1652093,10,274,3,"EE","relative_first","relative","Extreme","Easier than Reference","D","j","safeDeck","riskyDeck",-14,0,-7,"left",0,0,25,"present","safeDeck",1317,2011,-1,1
"2entcks231w",1205.32131147541,819.249806288374,13597,"21/03/2022@16:28:42","Mozilla/5.0 (Windows NT 10.0; Win64; x64) AppleWebKit/537.36 (KHTML, like Gecko) Chrome/99.0.4844.74 Safari/537.36",1280,720,1144,641,"main",1652093,11,274,3,"EM","relative_first","relative","Moderate","Easier than Reference","F","k","riskyDeck","safeDeck",-28,0,-14,"right",0,0,18,"absent","safeDeck",2547,2370,1,1
"2entcks231w",1205.32131147541,819.249806288374,13597,"21/03/2022@16:28:42","Mozilla/5.0 (Windows NT 10.0; Win64; x64) AppleWebKit/537.36 (KHTML, like Gecko) Chrome/99.0.4844.74 Safari/537.36",1280,720,1144,641,"main",1652093,12,274,3,"HM","relative_first","relative","Moderate","Harder than Reference","D","k","safeDeck","riskyDeck",14,0,7,"left",0,0,39,"absent","safeDeck",1689,3368,-1,1
"2entcks231w",1205.32131147541,819.249806288374,13597,"21/03/2022@16:28:42","Mozilla/5.0 (Windows NT 10.0; Win64; x64) AppleWebKit/537.36 (KHTML, like Gecko) Chrome/99.0.4844.74 Safari/537.36",1280,720,1144,641,"main",1652093,13,274,3,"EM","relative_first","relative","Moderate","Easier than Reference","F","j","riskyDeck","safeDeck",-28,0,-14,"right",0,0,18,"present","safeDeck",2028,1134,1,1
"2entcks231w",1205.32131147541,819.249806288374,13597,"21/03/2022@16:28:42","Mozilla/5.0 (Windows NT 10.0; Win64; x64) AppleWebKit/537.36 (KHTML, like Gecko) Chrome/99.0.4844.74 Safari/537.36",1280,720,1144,641,"main",1652093,14,274,3,"EE","relative_first","relative","Extreme","Easier than Reference","D","k","safeDeck","riskyDeck",-14,0,-7,"left",0,1,25,"present","safeDeck",1282,2751,-1,1
"2entcks231w",1205.32131147541,819.249806288374,13597,"21/03/2022@16:28:42","Mozilla/5.0 (Windows NT 10.0; Win64; x64) AppleWebKit/537.36 (KHTML, like Gecko) Chrome/99.0.4844.74 Safari/537.36",1280,720,1144,641,"main",1652093,15,275,3,"HM","relative_first","relative","Moderate","Harder than Reference","D","j","riskyDeck","safeDeck",14,0,7,"left",1,0,46,"present","riskyDeck",1408,1271,-1,0
"2entcks231w",1205.32131147541,819.249806288374,13597,"21/03/2022@16:28:42","Mozilla/5.0 (Windows NT 10.0; Win64; x64) AppleWebKit/537.36 (KHTML, like Gecko) Chrome/99.0.4844.74 Safari/537.36",1280,720,1144,641,"main",1652093,16,275,3,"HE","relative_first","relative","Extreme","Harder than Reference","D","j","riskyDeck","safeDeck",0,28,14,"left",1,0,60,"present","riskyDeck",1266,1227,-1,0
"2entcks231w",1205.32131147541,819.249806288374,13597,"21/03/2022@16:28:42","Mozilla/5.0 (Windows NT 10.0; Win64; x64) AppleWebKit/537.36 (KHTML, like Gecko) Chrome/99.0.4844.74 Safari/537.36",1280,720,1144,641,"main",1652093,17,275,3,"HE","relative_first","relative","Extreme","Harder than Reference","F","k","safeDeck","riskyDeck",28,0,14,"right",1,0,60,"absent","riskyDeck",2109,3783,1,0
"2entcks231w",1205.32131147541,819.249806288374,13597,"21/03/2022@16:28:42","Mozilla/5.0 (Windows NT 10.0; Win64; x64) AppleWebKit/537.36 (KHTML, like Gecko) Chrome/99.0.4844.74 Safari/537.36",1280,720,1144,641,"main",1652093,18,275,3,"EM","relative_first","relative","Moderate","Easier than Reference","D","j","safeDeck","riskyDeck",0,-28,-14,"left",0,1,18,"absent","safeDeck",2016,3515,-1,1
"2entcks231w",1205.32131147541,819.249806288374,13597,"21/03/2022@16:28:42","Mozilla/5.0 (Windows NT 10.0; Win64; x64) AppleWebKit/537.36 (KHTML, like Gecko) Chrome/99.0.4844.74 Safari/537.36",1280,720,1144,641,"main",1652093,20,275,4,"EE","relative_first","relative","Extreme","Easier than Reference","D","k","riskyDeck","safeDeck",-14,0,-7,"left",1,0,18,"absent","riskyDeck",1804,2697,-1,0
"2entcks231w",1205.32131147541,819.249806288374,13597,"21/03/2022@16:28:42","Mozilla/5.0 (Windows NT 10.0; Win64; x64) AppleWebKit/537.36 (KHTML, like Gecko) Chrome/99.0.4844.74 Safari/537.36",1280,720,1144,641,"main",1652093,21,275,4,"HE","relative_first","relative","Extreme","Harder than Reference","D","k","riskyDeck","safeDeck",0,28,14,"left",1,0,32,"absent","riskyDeck",1589,3263,-1,0
"2entcks231w",1205.32131147541,819.249806288374,13597,"21/03/2022@16:28:42","Mozilla/5.0 (Windows NT 10.0; Win64; x64) AppleWebKit/537.36 (KHTML, like Gecko) Chrome/99.0.4844.74 Safari/537.36",1280,720,1144,641,"main",1652093,22,275,4,"HM","relative_first","relative","Moderate","Harder than Reference","F","k","safeDeck","riskyDeck",0,14,7,"right",1,0,46,"absent","riskyDeck",1639,3583,1,0
"2entcks231w",1205.32131147541,819.249806288374,13597,"21/03/2022@16:28:42","Mozilla/5.0 (Windows NT 10.0; Win64; x64) AppleWebKit/537.36 (KHTML, like Gecko) Chrome/99.0.4844.74 Safari/537.36",1280,720,1144,641,"main",1652093,23,276,4,"EE","relative_first","relative","Extreme","Easier than Reference","D","j","riskyDeck","safeDeck",-14,0,-7,"left",1,0,32,"present","riskyDeck",1882,1506,-1,0
"2entcks231w",1205.32131147541,819.249806288374,13597,"21/03/2022@16:28:42","Mozilla/5.0 (Windows NT 10.0; Win64; x64) AppleWebKit/537.36 (KHTML, like Gecko) Chrome/99.0.4844.74 Safari/537.36",1280,720,1144,641,"main",1652093,24,276,4,"EM","relative_first","relative","Moderate","Easier than Reference","D","j","safeDeck","riskyDeck",0,-28,-14,"left",0,0,18,"present","safeDeck",1281,1023,-1,1
"2entcks231w",1205.32131147541,819.249806288374,13597,"21/03/2022@16:28:42","Mozilla/5.0 (Windows NT 10.0; Win64; x64) AppleWebKit/537.36 (KHTML, like Gecko) Chrome/99.0.4844.74 Safari/537.36",1280,720,1144,641,"main",1652093,25,276,4,"EE","relative_first","relative","Extreme","Easier than Reference","F","j","riskyDeck","safeDeck",0,-14,-7,"right",0,0,25,"present","safeDeck",1593,2403,1,1
"2entcks231w",1205.32131147541,819.249806288374,13597,"21/03/2022@16:28:42","Mozilla/5.0 (Windows NT 10.0; Win64; x64) AppleWebKit/537.36 (KHTML, like Gecko) Chrome/99.0.4844.74 Safari/537.36",1280,720,1144,641,"main",1652093,26,276,4,"EM","relative_first","relative","Moderate","Easier than Reference","D","j","safeDeck","riskyDeck",-28,0,-14,"left",0,0,18,"present","safeDeck",1714,2505,-1,1
"2entcks231w",1205.32131147541,819.249806288374,13597,"21/03/2022@16:28:42","Mozilla/5.0 (Windows NT 10.0; Win64; x64) AppleWebKit/537.36 (KHTML, like Gecko) Chrome/99.0.4844.74 Safari/537.36",1280,720,1144,641,"main",1652093,27,276,4,"HM","relative_first","relative","Moderate","Harder than Reference","D","j","riskyDeck","safeDeck",14,0,7,"left",1,0,46,"present","riskyDeck",1549,1474,-1,0
"2entcks231w",1205.32131147541,819.249806288374,13597,"21/03/2022@16:28:42","Mozilla/5.0 (Windows NT 10.0; Win64; x64) AppleWebKit/537.36 (KHTML, like Gecko) Chrome/99.0.4844.74 Safari/537.36",1280,720,1144,641,"main",1652093,28,276,5,"HE","relative_first","relative","Extreme","Harder than Reference","D","k","riskyDeck","safeDeck",28,0,14,"left",1,0,32,"absent","riskyDeck",1656,3764,-1,0
"2entcks231w",1205.32131147541,819.249806288374,13597,"21/03/2022@16:28:42","Mozilla/5.0 (Windows NT 10.0; Win64; x64) AppleWebKit/537.36 (KHTML, like Gecko) Chrome/99.0.4844.74 Safari/537.36",1280,720,1144,641,"main",1652093,29,276,5,"HM","relative_first","relative","Moderate","Harder than Reference","F","k","riskyDeck","safeDeck",14,0,7,"right",0,0,39,"absent","safeDeck",1222,3421,1,1
"2entcks231w",1205.32131147541,819.249806288374,13597,"21/03/2022@16:28:42","Mozilla/5.0 (Windows NT 10.0; Win64; x64) AppleWebKit/537.36 (KHTML, like Gecko) Chrome/99.0.4844.74 Safari/537.36",1280,720,1144,641,"main",1652093,30,276,5,"EM","relative_first","relative","Moderate","Easier than Reference","D","k","safeDeck","riskyDeck",-28,0,-14,"left",0,0,18,"absent","safeDeck",1322,3949,-1,1
"2entcks231w",1205.32131147541,819.249806288374,13597,"21/03/2022@16:28:42","Mozilla/5.0 (Windows NT 10.0; Win64; x64) AppleWebKit/537.36 (KHTML, like Gecko) Chrome/99.0.4844.74 Safari/537.36",1280,720,1144,641,"main",1652093,31,276,5,"HE","relative_first","relative","Extreme","Harder than Reference","D","j","riskyDeck","safeDeck",0,28,14,"left",1,0,32,"present","riskyDeck",1338,2551,-1,0
"2entcks231w",1205.32131147541,819.249806288374,13597,"21/03/2022@16:28:42","Mozilla/5.0 (Windows NT 10.0; Win64; x64) AppleWebKit/537.36 (KHTML, like Gecko) Chrome/99.0.4844.74 Safari/537.36",1280,720,1144,641,"main",1652093,32,276,5,"EE","relative_first","relative","Extreme","Easier than Reference","D","k","riskyDeck","safeDeck",0,-14,-7,"left",1,0,32,"absent","riskyDeck",1305,2765,-1,0
"2entcks231w",1205.32131147541,819.249806288374,13597,"21/03/2022@16:28:42","Mozilla/5.0 (Windows NT 10.0; Win64; x64) AppleWebKit/537.36 (KHTML, like Gecko) Chrome/99.0.4844.74 Safari/537.36",1280,720,1144,641,"main",1652093,33,276,5,"EM","relative_first","relative","Moderate","Easier than Reference","D","k","safeDeck","riskyDeck",-28,0,-14,"left",0,0,18,"absent","safeDeck",1053,1897,-1,1
"2entcks231w",1205.32131147541,819.249806288374,13597,"21/03/2022@16:28:42","Mozilla/5.0 (Windows NT 10.0; Win64; x64) AppleWebKit/537.36 (KHTML, like Gecko) Chrome/99.0.4844.74 Safari/537.36",1280,720,1144,641,"main",1652093,34,277,5,"HE","relative_first","relative","Extreme","Harder than Reference","D","j","riskyDeck","safeDeck",28,0,14,"left",1,0,32,"present","riskyDeck",1174,2823,-1,0
"2entcks231w",1205.32131147541,819.249806288374,13597,"21/03/2022@16:28:42","Mozilla/5.0 (Windows NT 10.0; Win64; x64) AppleWebKit/537.36 (KHTML, like Gecko) Chrome/99.0.4844.74 Safari/537.36",1280,720,1144,641,"main",1652093,35,277,5,"HM","relative_first","relative","Moderate","Harder than Reference","D","k","safeDeck","riskyDeck",14,0,7,"left",0,0,39,"absent","safeDeck",1301,3146,-1,1
"2entcks231w",1205.32131147541,819.249806288374,13597,"21/03/2022@16:28:42","Mozilla/5.0 (Windows NT 10.0; Win64; x64) AppleWebKit/537.36 (KHTML, like Gecko) Chrome/99.0.4844.74 Safari/537.36",1280,720,1144,641,"main",1652093,36,277,5,"EE","relative_first","relative","Extreme","Easier than Reference","D","k","safeDeck","riskyDeck",-14,0,-7,"left",0,0,25,"absent","safeDeck",1292,1593,-1,1
"2entcks231w",1205.32131147541,819.249806288374,13597,"21/03/2022@16:28:42","Mozilla/5.0 (Windows NT 10.0; Win64; x64) AppleWebKit/537.36 (KHTML, like Gecko) Chrome/99.0.4844.74 Safari/537.36",1280,720,1144,641,"main",1652093,37,277,5,"HM","relative_first","relative","Moderate","Harder than Reference","F","j","safeDeck","riskyDeck",0,14,7,"right",1,0,46,"present","riskyDeck",1788,1769,1,0
"2entcks231w",1205.32131147541,819.249806288374,13597,"21/03/2022@16:28:42","Mozilla/5.0 (Windows NT 10.0; Win64; x64) AppleWebKit/537.36 (KHTML, like Gecko) Chrome/99.0.4844.74 Safari/537.36",1280,720,1144,641,"main",1652093,38,277,5,"HE","relative_first","relative","Extreme","Harder than Reference","D","j","riskyDeck","safeDeck",28,0,14,"left",1,0,32,"present","riskyDeck",1663,865,-1,0
"2entcks231w",1205.32131147541,819.249806288374,13597,"21/03/2022@16:28:42","Mozilla/5.0 (Windows NT 10.0; Win64; x64) AppleWebKit/537.36 (KHTML, like Gecko) Chrome/99.0.4844.74 Safari/537.36",1280,720,1144,641,"main",1652093,39,277,5,"EE","relative_first","relative","Extreme","Easier than Reference","F","j","safeDeck","riskyDeck",0,-14,-7,"right",1,0,32,"present","riskyDeck",1380,1243,1,0
"2entcks231w",1205.32131147541,819.249806288374,13597,"21/03/2022@16:28:42","Mozilla/5.0 (Windows NT 10.0; Win64; x64) AppleWebKit/537.36 (KHTML, like Gecko) Chrome/99.0.4844.74 Safari/537.36",1280,720,1144,641,"main",1652093,40,277,6,"EM","relative_first","relative","Moderate","Easier than Reference","F","j","riskyDeck","safeDeck",-28,0,-14,"right",0,0,18,"present","safeDeck",1544,1207,1,1
"2entcks231w",1205.32131147541,819.249806288374,13597,"21/03/2022@16:28:42","Mozilla/5.0 (Windows NT 10.0; Win64; x64) AppleWebKit/537.36 (KHTML, like Gecko) Chrome/99.0.4844.74 Safari/537.36",1280,720,1144,641,"main",1652093,41,277,6,"EM","relative_first","relative","Moderate","Easier than Reference","D","j","riskyDeck","safeDeck",0,-28,-14,"left",1,0,32,"present","riskyDeck",1690,1884,-1,0
"2entcks231w",1205.32131147541,819.249806288374,13597,"21/03/2022@16:28:42","Mozilla/5.0 (Windows NT 10.0; Win64; x64) AppleWebKit/537.36 (KHTML, like Gecko) Chrome/99.0.4844.74 Safari/537.36",1280,720,1144,641,"main",1652093,42,277,6,"HM","relative_first","relative","Moderate","Harder than Reference","F","k","riskyDeck","safeDeck",14,0,7,"right",0,0,39,"absent","safeDeck",1166,2398,1,1
"2entcks231w",1205.32131147541,819.249806288374,13597,"21/03/2022@16:28:42","Mozilla/5.0 (Windows NT 10.0; Win64; x64) AppleWebKit/537.36 (KHTML, like Gecko) Chrome/99.0.4844.74 Safari/537.36",1280,720,1144,641,"main",1652093,43,277,6,"EE","relative_first","relative","Extreme","Easier than Reference","D","j","riskyDeck","safeDeck",0,-14,-7,"left",1,0,18,"present","riskyDeck",2068,1372,-1,0
"2entcks231w",1205.32131147541,819.249806288374,13597,"21/03/2022@16:28:42","Mozilla/5.0 (Windows NT 10.0; Win64; x64) AppleWebKit/537.36 (KHTML, like Gecko) Chrome/99.0.4844.74 Safari/537.36",1280,720,1144,641,"main",1652093,44,277,6,"HE","relative_first","relative","Extreme","Harder than Reference","F","k","riskyDeck","safeDeck",0,28,14,"right",0,0,46,"absent","safeDeck",1194,1805,1,1
"2entcks231w",1205.32131147541,819.249806288374,13597,"21/03/2022@16:28:42","Mozilla/5.0 (Windows NT 10.0; Win64; x64) AppleWebKit/537.36 (KHTML, like Gecko) Chrome/99.0.4844.74 Safari/537.36",1280,720,1144,641,"main",1652093,50,278,7,"HE","relative_first","relative","Extreme","Harder than Reference","F","j","riskyDeck","safeDeck",28,0,14,"right",0,0,46,"present","safeDeck",1498,401,1,1
"2entcks231w",1205.32131147541,819.249806288374,13597,"21/03/2022@16:28:42","Mozilla/5.0 (Windows NT 10.0; Win64; x64) AppleWebKit/537.36 (KHTML, like Gecko) Chrome/99.0.4844.74 Safari/537.36",1280,720,1144,641,"main",1652093,51,278,7,"EE","relative_first","relative","Extreme","Easier than Reference","F","j","safeDeck","riskyDeck",-14,0,-7,"right",1,1,18,"absent","riskyDeck",330,492,1,0
"2entcks231w",1205.32131147541,819.249806288374,13597,"21/03/2022@16:28:42","Mozilla/5.0 (Windows NT 10.0; Win64; x64) AppleWebKit/537.36 (KHTML, like Gecko) Chrome/99.0.4844.74 Safari/537.36",1280,720,1144,641,"main",1652093,53,279,7,"HM","relative_first","relative","Moderate","Harder than Reference","F","k","safeDeck","riskyDeck",0,14,7,"right",1,0,46,"absent","riskyDeck",1652,1135,1,0
"2entcks231w",1205.32131147541,819.249806288374,13597,"21/03/2022@16:28:42","Mozilla/5.0 (Windows NT 10.0; Win64; x64) AppleWebKit/537.36 (KHTML, like Gecko) Chrome/99.0.4844.74 Safari/537.36",1280,720,1144,641,"main",1652093,54,279,7,"EE","relative_first","relative","Extreme","Easier than Reference","F","k","riskyDeck","safeDeck",-14,0,-7,"right",0,1,25,"present","safeDeck",1035,1159,1,1
"2entcks231w",1205.32131147541,819.249806288374,13597,"21/03/2022@16:28:42","Mozilla/5.0 (Windows NT 10.0; Win64; x64) AppleWebKit/537.36 (KHTML, like Gecko) Chrome/99.0.4844.74 Safari/537.36",1280,720,1144,641,"main",1652093,55,279,7,"EM","relative_first","relative","Moderate","Easier than Reference","F","j","safeDeck","riskyDeck",0,-28,-14,"right",1,0,32,"present","riskyDeck",1991,1104,1,0
"2entcks231w",1205.32131147541,819.249806288374,13597,"21/03/2022@16:28:42","Mozilla/5.0 (Windows NT 10.0; Win64; x64) AppleWebKit/537.36 (KHTML, like Gecko) Chrome/99.0.4844.74 Safari/537.36",1280,720,1144,641,"main",1652093,56,279,7,"HE","relative_first","relative","Extreme","Harder than Reference","F","k","safeDeck","riskyDeck",28,0,14,"right",1,1,32,"present","riskyDeck",982,1531,1,0
"2entcks231w",1205.32131147541,819.249806288374,13597,"21/03/2022@16:28:42","Mozilla/5.0 (Windows NT 10.0; Win64; x64) AppleWebKit/537.36 (KHTML, like Gecko) Chrome/99.0.4844.74 Safari/537.36",1280,720,1144,641,"main",1652093,57,279,8,"EM","relative_first","relative","Moderate","Easier than Reference","F","j","safeDeck","riskyDeck",-28,0,-14,"right",1,0,32,"present","riskyDeck",724,1867,1,0
"2entcks231w",1205.32131147541,819.249806288374,13597,"21/03/2022@16:28:42","Mozilla/5.0 (Windows NT 10.0; Win64; x64) AppleWebKit/537.36 (KHTML, like Gecko) Chrome/99.0.4844.74 Safari/537.36",1280,720,1144,641,"main",1652093,58,279,8,"EE","relative_first","relative","Extreme","Easier than Reference","F","j","safeDeck","riskyDeck",0,-14,-7,"right",1,0,18,"present","riskyDeck",1099,890,1,0
"2entcks231w",1205.32131147541,819.249806288374,13597,"21/03/2022@16:28:42","Mozilla/5.0 (Windows NT 10.0; Win64; x64) AppleWebKit/537.36 (KHTML, like Gecko) Chrome/99.0.4844.74 Safari/537.36",1280,720,1144,641,"main",1652093,59,279,8,"HM","relative_first","relative","Moderate","Harder than Reference","F","k","safeDeck","riskyDeck",0,14,7,"right",1,0,46,"absent","riskyDeck",1003,944,1,0
"2entcks231w",1205.32131147541,819.249806288374,13597,"21/03/2022@16:28:42","Mozilla/5.0 (Windows NT 10.0; Win64; x64) AppleWebKit/537.36 (KHTML, like Gecko) Chrome/99.0.4844.74 Safari/537.36",1280,720,1144,641,"main",1652093,60,279,8,"HE","relative_first","relative","Extreme","Harder than Reference","F","k","safeDeck","riskyDeck",28,0,14,"right",1,1,60,"present","riskyDeck",1816,1939,1,0
"2entcks231w",1205.32131147541,819.249806288374,13597,"21/03/2022@16:28:42","Mozilla/5.0 (Windows NT 10.0; Win64; x64) AppleWebKit/537.36 (KHTML, like Gecko) Chrome/99.0.4844.74 Safari/537.36",1280,720,1144,641,"main",1652093,61,279,8,"HM","relative_first","relative","Moderate","Harder than Reference","D","j","riskyDeck","safeDeck",0,14,7,"left",1,0,32,"present","riskyDeck",773,1570,-1,0
"2entcks231w",1205.32131147541,819.249806288374,13597,"21/03/2022@16:28:42","Mozilla/5.0 (Windows NT 10.0; Win64; x64) AppleWebKit/537.36 (KHTML, like Gecko) Chrome/99.0.4844.74 Safari/537.36",1280,720,1144,641,"main",1652093,62,279,8,"HE","relative_first","relative","Extreme","Harder than Reference","D","k","riskyDeck","safeDeck",28,0,14,"left",1,0,60,"absent","riskyDeck",989,1844,-1,0
"2entcks231w",1205.32131147541,819.249806288374,13597,"21/03/2022@16:28:42","Mozilla/5.0 (Windows NT 10.0; Win64; x64) AppleWebKit/537.36 (KHTML, like Gecko) Chrome/99.0.4844.74 Safari/537.36",1280,720,1144,641,"main",1652093,63,279,8,"EE","relative_first","relative","Extreme","Easier than Reference","F","j","riskyDeck","safeDeck",-14,0,-7,"right",0,0,25,"present","safeDeck",1291,1011,1,1
"2entcks231w",1205.32131147541,819.249806288374,13597,"21/03/2022@16:28:42","Mozilla/5.0 (Windows NT 10.0; Win64; x64) AppleWebKit/537.36 (KHTML, like Gecko) Chrome/99.0.4844.74 Safari/537.36",1280,720,1144,641,"main",1652093,64,279,8,"EM","relative_first","relative","Moderate","Easier than Reference","D","k","safeDeck","riskyDeck",0,-28,-14,"left",0,0,18,"absent","safeDeck",709,2107,-1,1
"2entcks231w",1205.32131147541,819.249806288374,13597,"21/03/2022@16:28:42","Mozilla/5.0 (Windows NT 10.0; Win64; x64) AppleWebKit/537.36 (KHTML, like Gecko) Chrome/99.0.4844.74 Safari/537.36",1280,720,1144,641,"main",1652093,65,280,8,"HE","relative_first","relative","Extreme","Harder than Reference","F","j","safeDeck","riskyDeck",28,0,14,"right",1,0,32,"present","riskyDeck",949,2038,1,0
"2entcks231w",1205.32131147541,819.249806288374,13597,"21/03/2022@16:28:42","Mozilla/5.0 (Windows NT 10.0; Win64; x64) AppleWebKit/537.36 (KHTML, like Gecko) Chrome/99.0.4844.74 Safari/537.36",1280,720,1144,641,"main",1652093,66,280,8,"EE","relative_first","relative","Extreme","Easier than Reference","D","j","riskyDeck","safeDeck",-14,0,-7,"left",1,0,18,"present","riskyDeck",769,899,-1,0
"2entcks231w",1205.32131147541,819.249806288374,13597,"21/03/2022@16:28:42","Mozilla/5.0 (Windows NT 10.0; Win64; x64) AppleWebKit/537.36 (KHTML, like Gecko) Chrome/99.0.4844.74 Safari/537.36",1280,720,1144,641,"main",1652093,67,280,8,"HM","relative_first","relative","Moderate","Harder than Reference","D","k","safeDeck","riskyDeck",0,14,7,"left",0,0,39,"absent","safeDeck",1707,1173,-1,1
"2entcks231w",1205.32131147541,819.249806288374,13597,"21/03/2022@16:28:42","Mozilla/5.0 (Windows NT 10.0; Win64; x64) AppleWebKit/537.36 (KHTML, like Gecko) Chrome/99.0.4844.74 Safari/537.36",1280,720,1144,641,"main",1652093,68,280,8,"EM","relative_first","relative","Moderate","Easier than Reference","D","k","riskyDeck","safeDeck",0,-28,-14,"left",1,0,4,"absent","riskyDeck",2814,855,-1,0
"2entcks231w",1205.32131147541,819.249806288374,13597,"21/03/2022@16:28:42","Mozilla/5.0 (Windows NT 10.0; Win64; x64) AppleWebKit/537.36 (KHTML, like Gecko) Chrome/99.0.4844.74 Safari/537.36",1280,720,1144,641,"main",1652093,69,280,8,"EE","relative_first","relative","Extreme","Easier than Reference","F","j","riskyDeck","safeDeck",0,-14,-7,"right",0,0,25,"present","safeDeck",1617,1442,1,1
"2entcks231w",1205.32131147541,819.249806288374,13597,"21/03/2022@16:28:42","Mozilla/5.0 (Windows NT 10.0; Win64; x64) AppleWebKit/537.36 (KHTML, like Gecko) Chrome/99.0.4844.74 Safari/537.36",1280,720,1144,641,"main",1652093,70,280,8,"EM","relative_first","relative","Moderate","Easier than Reference","F","k","riskyDeck","safeDeck",0,-28,-14,"right",0,0,18,"absent","safeDeck",1353,1459,1,1
"2entcks231w",1205.32131147541,819.249806288374,13597,"21/03/2022@16:28:42","Mozilla/5.0 (Windows NT 10.0; Win64; x64) AppleWebKit/537.36 (KHTML, like Gecko) Chrome/99.0.4844.74 Safari/537.36",1280,720,1144,641,"main",1652093,71,280,9,"HE","relative_first","relative","Extreme","Harder than Reference","D","j","riskyDeck","safeDeck",28,0,14,"left",1,0,32,"present","riskyDeck",1475,991,-1,0
"2entcks231w",1205.32131147541,819.249806288374,13597,"21/03/2022@16:28:42","Mozilla/5.0 (Windows NT 10.0; Win64; x64) AppleWebKit/537.36 (KHTML, like Gecko) Chrome/99.0.4844.74 Safari/537.36",1280,720,1144,641,"main",1652093,72,280,9,"HM","relative_first","relative","Moderate","Harder than Reference","F","j","safeDeck","riskyDeck",14,0,7,"right",1,0,46,"present","riskyDeck",1721,2159,1,0
"2entcks231w",1205.32131147541,819.249806288374,13597,"21/03/2022@16:28:42","Mozilla/5.0 (Windows NT 10.0; Win64; x64) AppleWebKit/537.36 (KHTML, like Gecko) Chrome/99.0.4844.74 Safari/537.36",1280,720,1144,641,"main",1652093,73,280,9,"HE","relative_first","relative","Extreme","Harder than Reference","F","j","safeDeck","riskyDeck",0,28,14,"right",1,0,32,"present","riskyDeck",1206,1803,1,0
"2entcks231w",1205.32131147541,819.249806288374,13597,"21/03/2022@16:28:42","Mozilla/5.0 (Windows NT 10.0; Win64; x64) AppleWebKit/537.36 (KHTML, like Gecko) Chrome/99.0.4844.74 Safari/537.36",1280,720,1144,641,"main",1652093,74,280,9,"EE","relative_first","relative","Extreme","Easier than Reference","D","k","safeDeck","riskyDeck",0,-14,-7,"left",0,1,25,"present","safeDeck",1299,2052,-1,1
"2entcks231w",1205.32131147541,819.249806288374,13597,"21/03/2022@16:28:42","Mozilla/5.0 (Windows NT 10.0; Win64; x64) AppleWebKit/537.36 (KHTML, like Gecko) Chrome/99.0.4844.74 Safari/537.36",1280,720,1144,641,"main",1652093,75,280,9,"EM","relative_first","relative","Moderate","Easier than Reference","D","k","riskyDeck","safeDeck",0,-28,-14,"left",1,0,4,"absent","riskyDeck",563,2271,-1,0
"2entcks231w",1205.32131147541,819.249806288374,13597,"21/03/2022@16:28:42","Mozilla/5.0 (Windows NT 10.0; Win64; x64) AppleWebKit/537.36 (KHTML, like Gecko) Chrome/99.0.4844.74 Safari/537.36",1280,720,1144,641,"main",1652093,76,280,9,"HM","relative_first","relative","Moderate","Harder than Reference","D","j","safeDeck","riskyDeck",0,14,7,"left",0,0,39,"present","safeDeck",1422,1643,-1,1
"2entcks231w",1205.32131147541,819.249806288374,13597,"21/03/2022@16:28:42","Mozilla/5.0 (Windows NT 10.0; Win64; x64) AppleWebKit/537.36 (KHTML, like Gecko) Chrome/99.0.4844.74 Safari/537.36",1280,720,1144,641,"main",1652093,77,280,9,"EE","relative_first","relative","Extreme","Easier than Reference","F","k","riskyDeck","safeDeck",-14,0,-7,"right",0,0,25,"absent","safeDeck",1003,2012,1,1
"2entcks231w",1205.32131147541,819.249806288374,13597,"21/03/2022@16:28:42","Mozilla/5.0 (Windows NT 10.0; Win64; x64) AppleWebKit/537.36 (KHTML, like Gecko) Chrome/99.0.4844.74 Safari/537.36",1280,720,1144,641,"main",1652093,78,281,9,"HE","relative_first","relative","Extreme","Harder than Reference","F","k","safeDeck","riskyDeck",0,28,14,"right",1,0,60,"absent","riskyDeck",1081,2859,1,0
"2entcks231w",1205.32131147541,819.249806288374,13597,"21/03/2022@16:28:42","Mozilla/5.0 (Windows NT 10.0; Win64; x64) AppleWebKit/537.36 (KHTML, like Gecko) Chrome/99.0.4844.74 Safari/537.36",1280,720,1144,641,"main",1652093,79,281,9,"HM","relative_first","relative","Moderate","Harder than Reference","D","k","riskyDeck","safeDeck",0,14,7,"left",1,0,32,"absent","riskyDeck",1022,2043,-1,0
"2entcks231w",1205.32131147541,819.249806288374,13597,"21/03/2022@16:28:42","Mozilla/5.0 (Windows NT 10.0; Win64; x64) AppleWebKit/537.36 (KHTML, like Gecko) Chrome/99.0.4844.74 Safari/537.36",1280,720,1144,641,"main",1652093,80,281,9,"EM","relative_first","relative","Moderate","Easier than Reference","F","j","riskyDeck","safeDeck",0,-28,-14,"right",0,0,18,"present","safeDeck",1060,765,1,1
"2entcks231w",1205.32131147541,819.249806288374,13597,"21/03/2022@16:28:42","Mozilla/5.0 (Windows NT 10.0; Win64; x64) AppleWebKit/537.36 (KHTML, like Gecko) Chrome/99.0.4844.74 Safari/537.36",1280,720,1144,641,"main",1652093,81,281,9,"EE","relative_first","relative","Extreme","Easier than Reference","F","k","riskyDeck","safeDeck",-14,0,-7,"right",0,0,25,"absent","safeDeck",1168,1916,1,1
"2entcks231w",1205.32131147541,819.249806288374,13597,"21/03/2022@16:28:42","Mozilla/5.0 (Windows NT 10.0; Win64; x64) AppleWebKit/537.36 (KHTML, like Gecko) Chrome/99.0.4844.74 Safari/537.36",1280,720,1144,641,"main",1652093,82,281,9,"HM","relative_first","relative","Moderate","Harder than Reference","F","j","safeDeck","riskyDeck",0,14,7,"right",1,0,32,"present","riskyDeck",1250,1158,1,0
"2entcks231w",1205.32131147541,819.249806288374,13597,"21/03/2022@16:28:42","Mozilla/5.0 (Windows NT 10.0; Win64; x64) AppleWebKit/537.36 (KHTML, like Gecko) Chrome/99.0.4844.74 Safari/537.36",1280,720,1144,641,"main",1652093,84,281,10,"EM","relative_first","relative","Moderate","Easier than Reference","F","k","riskyDeck","safeDeck",0,-28,-14,"right",0,0,18,"absent","safeDeck",1366,1254,1,1
"2entcks231w",1205.32131147541,819.249806288374,13597,"21/03/2022@16:28:42","Mozilla/5.0 (Windows NT 10.0; Win64; x64) AppleWebKit/537.36 (KHTML, like Gecko) Chrome/99.0.4844.74 Safari/537.36",1280,720,1144,641,"main",1652093,85,281,10,"HE","relative_first","relative","Extreme","Harder than Reference","D","k","riskyDeck","safeDeck",28,0,14,"left",1,0,32,"absent","riskyDeck",1929,1134,-1,0
"2entcks231w",1205.32131147541,819.249806288374,13597,"21/03/2022@16:28:42","Mozilla/5.0 (Windows NT 10.0; Win64; x64) AppleWebKit/537.36 (KHTML, like Gecko) Chrome/99.0.4844.74 Safari/537.36",1280,720,1144,641,"main",1652093,86,281,10,"EE","relative_first","relative","Extreme","Easier than Reference","D","k","safeDeck","riskyDeck",-14,0,-7,"left",0,0,25,"absent","safeDeck",1013,1592,-1,1
"2entcks231w",1205.32131147541,819.249806288374,13597,"21/03/2022@16:28:42","Mozilla/5.0 (Windows NT 10.0; Win64; x64) AppleWebKit/537.36 (KHTML, like Gecko) Chrome/99.0.4844.74 Safari/537.36",1280,720,1144,641,"main",1652093,87,281,10,"HM","relative_first","relative","Moderate","Harder than Reference","F","j","safeDeck","riskyDeck",14,0,7,"right",1,0,46,"present","riskyDeck",1439,1136,1,0
"2entcks231w",1205.32131147541,819.249806288374,13597,"21/03/2022@16:28:42","Mozilla/5.0 (Windows NT 10.0; Win64; x64) AppleWebKit/537.36 (KHTML, like Gecko) Chrome/99.0.4844.74 Safari/537.36",1280,720,1144,641,"main",1652093,88,282,10,"EM","relative_first","relative","Moderate","Easier than Reference","F","j","safeDeck","riskyDeck",-28,0,-14,"right",1,0,32,"present","riskyDeck",696,2450,1,0
"2entcks231w",1205.32131147541,819.249806288374,13597,"21/03/2022@16:28:42","Mozilla/5.0 (Windows NT 10.0; Win64; x64) AppleWebKit/537.36 (KHTML, like Gecko) Chrome/99.0.4844.74 Safari/537.36",1280,720,1144,641,"main",1652093,89,282,10,"EM","relative_first","relative","Moderate","Easier than Reference","D","j","safeDeck","riskyDeck",0,-28,-14,"left",0,0,18,"present","safeDeck",1393,1000,-1,1
"2entcks231w",1205.32131147541,819.249806288374,13597,"21/03/2022@16:28:42","Mozilla/5.0 (Windows NT 10.0; Win64; x64) AppleWebKit/537.36 (KHTML, like Gecko) Chrome/99.0.4844.74 Safari/537.36",1280,720,1144,641,"main",1652093,90,282,10,"EE","relative_first","relative","Extreme","Easier than Reference","F","k","safeDeck","riskyDeck",0,-14,-7,"right",1,0,32,"absent","riskyDeck",1149,1362,1,0
"2entcks231w",1205.32131147541,819.249806288374,13597,"21/03/2022@16:28:42","Mozilla/5.0 (Windows NT 10.0; Win64; x64) AppleWebKit/537.36 (KHTML, like Gecko) Chrome/99.0.4844.74 Safari/537.36",1280,720,1144,641,"main",1652093,91,282,10,"HE","relative_first","relative","Extreme","Harder than Reference","F","j","safeDeck","riskyDeck",0,28,14,"right",1,0,32,"present","riskyDeck",1186,1953,1,0
"2entcks231w",1205.32131147541,819.249806288374,13597,"21/03/2022@16:28:42","Mozilla/5.0 (Windows NT 10.0; Win64; x64) AppleWebKit/537.36 (KHTML, like Gecko) Chrome/99.0.4844.74 Safari/537.36",1280,720,1144,641,"main",1652093,92,282,10,"HM","relative_first","relative","Moderate","Harder than Reference","F","k","safeDeck","riskyDeck",14,0,7,"right",1,1,46,"present","riskyDeck",750,2213,1,0
"2entcks231w",1205.32131147541,819.249806288374,13597,"21/03/2022@16:28:42","Mozilla/5.0 (Windows NT 10.0; Win64; x64) AppleWebKit/537.36 (KHTML, like Gecko) Chrome/99.0.4844.74 Safari/537.36",1280,720,1144,641,"main",1652093,93,282,11,"EE","relative_first","relative","Extreme","Easier than Reference","D","k","riskyDeck","safeDeck",-14,0,-7,"left",1,0,18,"absent","riskyDeck",665,2048,-1,0
"2entcks231w",1205.32131147541,819.249806288374,13597,"21/03/2022@16:28:42","Mozilla/5.0 (Windows NT 10.0; Win64; x64) AppleWebKit/537.36 (KHTML, like Gecko) Chrome/99.0.4844.74 Safari/537.36",1280,720,1144,641,"main",1652093,94,282,11,"HE","relative_first","relative","Extreme","Harder than Reference","F","j","safeDeck","riskyDeck",0,28,14,"right",1,0,32,"present","riskyDeck",1041,1419,1,0
"2entcks231w",1205.32131147541,819.249806288374,13597,"21/03/2022@16:28:42","Mozilla/5.0 (Windows NT 10.0; Win64; x64) AppleWebKit/537.36 (KHTML, like Gecko) Chrome/99.0.4844.74 Safari/537.36",1280,720,1144,641,"main",1652093,95,282,11,"HM","relative_first","relative","Moderate","Harder than Reference","D","j","riskyDeck","safeDeck",0,14,7,"left",1,0,46,"present","riskyDeck",1237,1520,-1,0
"2entcks231w",1205.32131147541,819.249806288374,13597,"21/03/2022@16:28:42","Mozilla/5.0 (Windows NT 10.0; Win64; x64) AppleWebKit/537.36 (KHTML, like Gecko) Chrome/99.0.4844.74 Safari/537.36",1280,720,1144,641,"main",1652093,96,282,11,"EM","relative_first","relative","Moderate","Easier than Reference","D","j","safeDeck","riskyDeck",-28,0,-14,"left",0,0,18,"present","safeDeck",960,1496,-1,1
"2entcks231w",1205.32131147541,819.249806288374,13597,"21/03/2022@16:28:42","Mozilla/5.0 (Windows NT 10.0; Win64; x64) AppleWebKit/537.36 (KHTML, like Gecko) Chrome/99.0.4844.74 Safari/537.36",1280,720,1144,641,"main",1652093,97,282,11,"HM","relative_first","relative","Moderate","Harder than Reference","F","k","safeDeck","riskyDeck",14,0,7,"right",1,1,32,"present","riskyDeck",983,2083,1,0
"2entcks231w",1205.32131147541,819.249806288374,13597,"21/03/2022@16:28:42","Mozilla/5.0 (Windows NT 10.0; Win64; x64) AppleWebKit/537.36 (KHTML, like Gecko) Chrome/99.0.4844.74 Safari/537.36",1280,720,1144,641,"main",1652093,98,282,11,"HE","relative_first","relative","Extreme","Harder than Reference","F","j","safeDeck","riskyDeck",0,28,14,"right",1,0,60,"present","riskyDeck",861,4514,1,0
"2entcks231w",1205.32131147541,819.249806288374,13597,"21/03/2022@16:28:42","Mozilla/5.0 (Windows NT 10.0; Win64; x64) AppleWebKit/537.36 (KHTML, like Gecko) Chrome/99.0.4844.74 Safari/537.36",1280,720,1144,641,"main",1652093,99,282,11,"EE","relative_first","relative","Extreme","Easier than Reference","D","k","safeDeck","riskyDeck",-14,0,-7,"left",0,0,25,"absent","safeDeck",1003,1622,-1,1
"2entcks231w",1205.32131147541,819.249806288374,13597,"21/03/2022@16:28:42","Mozilla/5.0 (Windows NT 10.0; Win64; x64) AppleWebKit/537.36 (KHTML, like Gecko) Chrome/99.0.4844.74 Safari/537.36",1280,720,1144,641,"main",1652093,100,283,11,"EM","relative_first","relative","Moderate","Easier than Reference","F","k","riskyDeck","safeDeck",-28,0,-14,"right",0,0,18,"absent","safeDeck",963,1389,1,1
"2entcks231w",1205.32131147541,819.249806288374,13597,"21/03/2022@16:28:42","Mozilla/5.0 (Windows NT 10.0; Win64; x64) AppleWebKit/537.36 (KHTML, like Gecko) Chrome/99.0.4844.74 Safari/537.36",1280,720,1144,641,"main",1652093,101,283,11,"HE","relative_first","relative","Extreme","Harder than Reference","D","j","riskyDeck","safeDeck",28,0,14,"left",1,0,60,"present","riskyDeck",964,2174,-1,0
"2entcks231w",1205.32131147541,819.249806288374,13597,"21/03/2022@16:28:42","Mozilla/5.0 (Windows NT 10.0; Win64; x64) AppleWebKit/537.36 (KHTML, like Gecko) Chrome/99.0.4844.74 Safari/537.36",1280,720,1144,641,"main",1652093,102,283,11,"EE","relative_first","relative","Extreme","Easier than Reference","F","k","riskyDeck","safeDeck",-14,0,-7,"right",0,0,25,"absent","safeDeck",1798,978,1,1
"2entcks231w",1205.32131147541,819.249806288374,13597,"21/03/2022@16:28:42","Mozilla/5.0 (Windows NT 10.0; Win64; x64) AppleWebKit/537.36 (KHTML, like Gecko) Chrome/99.0.4844.74 Safari/537.36",1280,720,1144,641,"main",1652093,103,283,11,"HM","relative_first","relative","Moderate","Harder than Reference","F","k","safeDeck","riskyDeck",0,14,7,"right",1,0,32,"absent","riskyDeck",714,1473,1,0
"2entcks231w",1205.32131147541,819.249806288374,13597,"21/03/2022@16:28:42","Mozilla/5.0 (Windows NT 10.0; Win64; x64) AppleWebKit/537.36 (KHTML, like Gecko) Chrome/99.0.4844.74 Safari/537.36",1280,720,1144,641,"main",1652093,104,283,11,"EM","relative_first","relative","Moderate","Easier than Reference","F","j","safeDeck","riskyDeck",-28,0,-14,"right",1,0,4,"present","riskyDeck",846,849,1,0
"2entcks231w",1205.32131147541,819.249806288374,13597,"21/03/2022@16:28:42","Mozilla/5.0 (Windows NT 10.0; Win64; x64) AppleWebKit/537.36 (KHTML, like Gecko) Chrome/99.0.4844.74 Safari/537.36",1280,720,1144,641,"main",1652093,105,283,11,"EM","relative_first","relative","Moderate","Easier than Reference","F","j","riskyDeck","safeDeck",0,-28,-14,"right",0,0,18,"present","safeDeck",725,756,1,1
"2entcks231w",1205.32131147541,819.249806288374,13597,"21/03/2022@16:28:42","Mozilla/5.0 (Windows NT 10.0; Win64; x64) AppleWebKit/537.36 (KHTML, like Gecko) Chrome/99.0.4844.74 Safari/537.36",1280,720,1144,641,"main",1652093,106,283,11,"EE","relative_first","relative","Extreme","Easier than Reference","F","k","riskyDeck","safeDeck",-14,0,-7,"right",0,0,25,"absent","safeDeck",786,1017,1,1
"2entcks231w",1205.32131147541,819.249806288374,13597,"21/03/2022@16:28:42","Mozilla/5.0 (Windows NT 10.0; Win64; x64) AppleWebKit/537.36 (KHTML, like Gecko) Chrome/99.0.4844.74 Safari/537.36",1280,720,1144,641,"main",1652093,107,283,12,"HE","relative_first","relative","Extreme","Harder than Reference","D","k","riskyDeck","safeDeck",0,28,14,"left",1,0,60,"absent","riskyDeck",927,3827,-1,0
"2entcks231w",1205.32131147541,819.249806288374,13597,"21/03/2022@16:28:42","Mozilla/5.0 (Windows NT 10.0; Win64; x64) AppleWebKit/537.36 (KHTML, like Gecko) Chrome/99.0.4844.74 Safari/537.36",1280,720,1144,641,"main",1652093,108,283,12,"HM","relative_first","relative","Moderate","Harder than Reference","D","k","riskyDeck","safeDeck",0,14,7,"left",1,0,32,"absent","riskyDeck",1004,1975,-1,0
"2entcks231w",1205.32131147541,819.249806288374,13597,"21/03/2022@16:28:42","Mozilla/5.0 (Windows NT 10.0; Win64; x64) AppleWebKit/537.36 (KHTML, like Gecko) Chrome/99.0.4844.74 Safari/537.36",1280,720,1144,641,"main",1652093,109,283,12,"EM","relative_first","relative","Moderate","Easier than Reference","D","j","safeDeck","riskyDeck",-28,0,-14,"left",0,0,18,"present","safeDeck",895,1114,-1,1
"2entcks231w",1205.32131147541,819.249806288374,13597,"21/03/2022@16:28:42","Mozilla/5.0 (Windows NT 10.0; Win64; x64) AppleWebKit/537.36 (KHTML, like Gecko) Chrome/99.0.4844.74 Safari/537.36",1280,720,1144,641,"main",1652093,110,283,12,"EE","relative_first","relative","Extreme","Easier than Reference","F","k","riskyDeck","safeDeck",0,-14,-7,"right",0,0,25,"absent","safeDeck",1238,2053,1,1
"2entcks231w",1205.32131147541,819.249806288374,13597,"21/03/2022@16:28:42","Mozilla/5.0 (Windows NT 10.0; Win64; x64) AppleWebKit/537.36 (KHTML, like Gecko) Chrome/99.0.4844.74 Safari/537.36",1280,720,1144,641,"main",1652093,111,283,12,"HM","relative_first","relative","Moderate","Harder than Reference","F","k","safeDeck","riskyDeck",14,0,7,"right",1,0,32,"absent","riskyDeck",882,2178,1,0
"2entcks231w",1205.32131147541,819.249806288374,13597,"21/03/2022@16:28:42","Mozilla/5.0 (Windows NT 10.0; Win64; x64) AppleWebKit/537.36 (KHTML, like Gecko) Chrome/99.0.4844.74 Safari/537.36",1280,720,1144,641,"main",1652093,112,283,12,"HE","relative_first","relative","Extreme","Harder than Reference","D","j","riskyDeck","safeDeck",28,0,14,"left",1,0,32,"present","riskyDeck",1080,1144,-1,0
"2entcks231w",1205.32131147541,819.249806288374,13597,"21/03/2022@16:28:42","Mozilla/5.0 (Windows NT 10.0; Win64; x64) AppleWebKit/537.36 (KHTML, like Gecko) Chrome/99.0.4844.74 Safari/537.36",1280,720,1144,641,"main",1652093,113,283,12,"HE","relative_first","relative","Extreme","Harder than Reference","F","k","safeDeck","riskyDeck",28,0,14,"right",1,0,60,"absent","riskyDeck",1053,2148,1,0
"2entcks231w",1205.32131147541,819.249806288374,13597,"21/03/2022@16:28:42","Mozilla/5.0 (Windows NT 10.0; Win64; x64) AppleWebKit/537.36 (KHTML, like Gecko) Chrome/99.0.4844.74 Safari/537.36",1280,720,1144,641,"main",1652093,114,284,12,"HM","relative_first","relative","Moderate","Harder than Reference","D","j","riskyDeck","safeDeck",0,14,7,"left",1,0,46,"present","riskyDeck",976,1623,-1,0
"2entcks231w",1205.32131147541,819.249806288374,13597,"21/03/2022@16:28:42","Mozilla/5.0 (Windows NT 10.0; Win64; x64) AppleWebKit/537.36 (KHTML, like Gecko) Chrome/99.0.4844.74 Safari/537.36",1280,720,1144,641,"main",1652093,115,284,12,"EM","relative_first","relative","Moderate","Easier than Reference","F","j","riskyDeck","safeDeck",-28,0,-14,"right",0,0,18,"present","safeDeck",923,1066,1,1
"2entcks231w",1205.32131147541,819.249806288374,13597,"21/03/2022@16:28:42","Mozilla/5.0 (Windows NT 10.0; Win64; x64) AppleWebKit/537.36 (KHTML, like Gecko) Chrome/99.0.4844.74 Safari/537.36",1280,720,1144,641,"main",1652093,116,284,12,"EE","relative_first","relative","Extreme","Easier than Reference","D","j","safeDeck","riskyDeck",0,-14,-7,"left",0,0,25,"present","safeDeck",951,1288,-1,1
"2entcks231w",1205.32131147541,819.249806288374,13597,"21/03/2022@16:28:42","Mozilla/5.0 (Windows NT 10.0; Win64; x64) AppleWebKit/537.36 (KHTML, like Gecko) Chrome/99.0.4844.74 Safari/537.36",1280,720,1144,641,"main",1652093,117,284,12,"HE","relative_first","relative","Extreme","Harder than Reference","F","k","safeDeck","riskyDeck",0,28,14,"right",1,1,60,"present","riskyDeck",2428,1691,1,0
"2entcks231w",1205.32131147541,819.249806288374,13597,"21/03/2022@16:28:42","Mozilla/5.0 (Windows NT 10.0; Win64; x64) AppleWebKit/537.36 (KHTML, like Gecko) Chrome/99.0.4844.74 Safari/537.36",1280,720,1144,641,"main",1652093,118,284,12,"HM","relative_first","relative","Moderate","Harder than Reference","D","j","safeDeck","riskyDeck",0,14,7,"left",0,0,39,"present","safeDeck",942,1083,-1,1
"2entcks231w",1205.32131147541,819.249806288374,13597,"21/03/2022@16:28:42","Mozilla/5.0 (Windows NT 10.0; Win64; x64) AppleWebKit/537.36 (KHTML, like Gecko) Chrome/99.0.4844.74 Safari/537.36",1280,720,1144,641,"main",1652093,119,284,12,"EE","relative_first","relative","Extreme","Easier than Reference","F","k","safeDeck","riskyDeck",-14,0,-7,"right",1,0,18,"absent","riskyDeck",805,1402,1,0
"2entcks231w",1205.32131147541,819.249806288374,13597,"21/03/2022@16:28:42","Mozilla/5.0 (Windows NT 10.0; Win64; x64) AppleWebKit/537.36 (KHTML, like Gecko) Chrome/99.0.4844.74 Safari/537.36",1280,720,1144,641,"main",1652093,120,284,13,"EM","relative_first","relative","Moderate","Easier than Reference","D","k","safeDeck","riskyDeck",0,-28,-14,"left",0,0,18,"absent","safeDeck",2340,1274,-1,1
"2entcks231w",1205.32131147541,819.249806288374,13597,"21/03/2022@16:28:42","Mozilla/5.0 (Windows NT 10.0; Win64; x64) AppleWebKit/537.36 (KHTML, like Gecko) Chrome/99.0.4844.74 Safari/537.36",1280,720,1144,641,"main",1652093,121,284,13,"HM","relative_first","relative","Moderate","Harder than Reference","F","j","safeDeck","riskyDeck",0,14,7,"right",1,0,32,"present","riskyDeck",1538,2031,1,0
"2entcks231w",1205.32131147541,819.249806288374,13597,"21/03/2022@16:28:42","Mozilla/5.0 (Windows NT 10.0; Win64; x64) AppleWebKit/537.36 (KHTML, like Gecko) Chrome/99.0.4844.74 Safari/537.36",1280,720,1144,641,"main",1652093,122,284,13,"HE","relative_first","relative","Extreme","Harder than Reference","D","k","riskyDeck","safeDeck",28,0,14,"left",1,0,32,"absent","riskyDeck",2245,2009,-1,0
"2entcks231w",1205.32131147541,819.249806288374,13597,"21/03/2022@16:28:42","Mozilla/5.0 (Windows NT 10.0; Win64; x64) AppleWebKit/537.36 (KHTML, like Gecko) Chrome/99.0.4844.74 Safari/537.36",1280,720,1144,641,"main",1652093,123,284,13,"EE","relative_first","relative","Extreme","Easier than Reference","D","k","safeDeck","riskyDeck",0,-14,-7,"left",0,0,25,"absent","safeDeck",813,1522,-1,1
"2entcks231w",1205.32131147541,819.249806288374,13597,"21/03/2022@16:28:42","Mozilla/5.0 (Windows NT 10.0; Win64; x64) AppleWebKit/537.36 (KHTML, like Gecko) Chrome/99.0.4844.74 Safari/537.36",1280,720,1144,641,"main",1652093,124,284,13,"EM","relative_first","relative","Moderate","Easier than Reference","D","k","safeDeck","riskyDeck",0,-28,-14,"left",0,0,18,"absent","safeDeck",604,1629,-1,1
"2entcks231w",1205.32131147541,819.249806288374,13597,"21/03/2022@16:28:42","Mozilla/5.0 (Windows NT 10.0; Win64; x64) AppleWebKit/537.36 (KHTML, like Gecko) Chrome/99.0.4844.74 Safari/537.36",1280,720,1144,641,"main",1652093,125,284,13,"HM","relative_first","relative","Moderate","Harder than Reference","D","k","riskyDeck","safeDeck",0,14,7,"left",1,0,46,"absent","riskyDeck",748,2453,-1,0
"2entcks231w",1205.32131147541,819.249806288374,13597,"21/03/2022@16:28:42","Mozilla/5.0 (Windows NT 10.0; Win64; x64) AppleWebKit/537.36 (KHTML, like Gecko) Chrome/99.0.4844.74 Safari/537.36",1280,720,1144,641,"main",1652093,126,284,13,"EM","relative_first","relative","Moderate","Easier than Reference","D","k","safeDeck","riskyDeck",-28,0,-14,"left",0,0,18,"absent","safeDeck",834,1737,-1,1
"2entcks231w",1205.32131147541,819.249806288374,13597,"21/03/2022@16:28:42","Mozilla/5.0 (Windows NT 10.0; Win64; x64) AppleWebKit/537.36 (KHTML, like Gecko) Chrome/99.0.4844.74 Safari/537.36",1280,720,1144,641,"main",1652093,127,284,13,"EE","relative_first","relative","Extreme","Easier than Reference","D","k","safeDeck","riskyDeck",0,-14,-7,"left",0,0,25,"absent","safeDeck",526,1182,-1,1
"2entcks231w",1205.32131147541,819.249806288374,13597,"21/03/2022@16:28:42","Mozilla/5.0 (Windows NT 10.0; Win64; x64) AppleWebKit/537.36 (KHTML, like Gecko) Chrome/99.0.4844.74 Safari/537.36",1280,720,1144,641,"main",1652093,128,285,13,"HE","relative_first","relative","Extreme","Harder than Reference","F","k","safeDeck","riskyDeck",0,28,14,"right",1,1,60,"present","riskyDeck",1111,1700,1,0
"2entcks231w",1205.32131147541,819.249806288374,13597,"21/03/2022@16:28:42","Mozilla/5.0 (Windows NT 10.0; Win64; x64) AppleWebKit/537.36 (KHTML, like Gecko) Chrome/99.0.4844.74 Safari/537.36",1280,720,1144,641,"main",1652093,129,285,13,"EM","relative_first","relative","Moderate","Easier than Reference","D","k","safeDeck","riskyDeck",0,-28,-14,"left",0,0,18,"absent","safeDeck",758,2482,-1,1
"2entcks231w",1205.32131147541,819.249806288374,13597,"21/03/2022@16:28:42","Mozilla/5.0 (Windows NT 10.0; Win64; x64) AppleWebKit/537.36 (KHTML, like Gecko) Chrome/99.0.4844.74 Safari/537.36",1280,720,1144,641,"main",1652093,130,285,13,"HE","relative_first","relative","Extreme","Harder than Reference","F","j","safeDeck","riskyDeck",0,28,14,"right",1,0,32,"present","riskyDeck",1171,1768,1,0
"2entcks231w",1205.32131147541,819.249806288374,13597,"21/03/2022@16:28:42","Mozilla/5.0 (Windows NT 10.0; Win64; x64) AppleWebKit/537.36 (KHTML, like Gecko) Chrome/99.0.4844.74 Safari/537.36",1280,720,1144,641,"main",1652093,131,285,13,"EE","relative_first","relative","Extreme","Easier than Reference","D","k","safeDeck","riskyDeck",0,-14,-7,"left",0,1,25,"present","safeDeck",600,2528,-1,1
"2entcks231w",1205.32131147541,819.249806288374,13597,"21/03/2022@16:28:42","Mozilla/5.0 (Windows NT 10.0; Win64; x64) AppleWebKit/537.36 (KHTML, like Gecko) Chrome/99.0.4844.74 Safari/537.36",1280,720,1144,641,"main",1652093,132,285,13,"HM","relative_first","relative","Moderate","Harder than Reference","D","j","riskyDeck","safeDeck",14,0,7,"left",1,0,46,"present","riskyDeck",879,1732,-1,0
"2entcks231w",1205.32131147541,819.249806288374,13597,"21/03/2022@16:28:42","Mozilla/5.0 (Windows NT 10.0; Win64; x64) AppleWebKit/537.36 (KHTML, like Gecko) Chrome/99.0.4844.74 Safari/537.36",1280,720,1144,641,"main",1652093,133,287,15,"EM","relative_first","relative","Moderate","Easier than Reference","D","j","safeDeck","riskyDeck",0,-28,-14,"left",0,0,18,"present","safeDeck",1213,1046,-1,1
"2entcks231w",1205.32131147541,819.249806288374,13597,"21/03/2022@16:28:42","Mozilla/5.0 (Windows NT 10.0; Win64; x64) AppleWebKit/537.36 (KHTML, like Gecko) Chrome/99.0.4844.74 Safari/537.36",1280,720,1144,641,"main",1652093,134,287,15,"HM","relative_first","relative","Moderate","Harder than Reference","F","k","safeDeck","riskyDeck",14,0,7,"right",1,0,32,"absent","riskyDeck",1105,2268,1,0
"2entcks231w",1205.32131147541,819.249806288374,13597,"21/03/2022@16:28:42","Mozilla/5.0 (Windows NT 10.0; Win64; x64) AppleWebKit/537.36 (KHTML, like Gecko) Chrome/99.0.4844.74 Safari/537.36",1280,720,1144,641,"main",1652093,135,287,16,"HE","relative_first","relative","Extreme","Harder than Reference","F","j","safeDeck","riskyDeck",0,28,14,"right",1,0,60,"present","riskyDeck",939,1857,1,0
"2entcks231w",1205.32131147541,819.249806288374,13597,"21/03/2022@16:28:42","Mozilla/5.0 (Windows NT 10.0; Win64; x64) AppleWebKit/537.36 (KHTML, like Gecko) Chrome/99.0.4844.74 Safari/537.36",1280,720,1144,641,"main",1652093,136,287,16,"EE","relative_first","relative","Extreme","Easier than Reference","F","j","riskyDeck","safeDeck",-14,0,-7,"right",0,0,25,"present","safeDeck",1159,680,1,1
"2entcks231w",1205.32131147541,819.249806288374,13597,"21/03/2022@16:28:42","Mozilla/5.0 (Windows NT 10.0; Win64; x64) AppleWebKit/537.36 (KHTML, like Gecko) Chrome/99.0.4844.74 Safari/537.36",1280,720,1144,641,"main",1652093,137,287,16,"EM","relative_first","relative","Moderate","Easier than Reference","F","k","riskyDeck","safeDeck",0,-28,-14,"right",0,0,18,"absent","safeDeck",778,2773,1,1
"2entcks231w",1205.32131147541,819.249806288374,13597,"21/03/2022@16:28:42","Mozilla/5.0 (Windows NT 10.0; Win64; x64) AppleWebKit/537.36 (KHTML, like Gecko) Chrome/99.0.4844.74 Safari/537.36",1280,720,1144,641,"main",1652093,138,287,16,"HE","relative_first","relative","Extreme","Harder than Reference","D","k","safeDeck","riskyDeck",28,0,14,"left",0,1,46,"present","safeDeck",1421,1766,-1,1
"2entcks231w",1205.32131147541,819.249806288374,13597,"21/03/2022@16:28:42","Mozilla/5.0 (Windows NT 10.0; Win64; x64) AppleWebKit/537.36 (KHTML, like Gecko) Chrome/99.0.4844.74 Safari/537.36",1280,720,1144,641,"main",1652093,139,287,16,"EE","relative_first","relative","Extreme","Easier than Reference","F","j","safeDeck","riskyDeck",0,-14,-7,"right",1,0,18,"present","riskyDeck",955,988,1,0
"2entcks231w",1205.32131147541,819.249806288374,13597,"21/03/2022@16:28:42","Mozilla/5.0 (Windows NT 10.0; Win64; x64) AppleWebKit/537.36 (KHTML, like Gecko) Chrome/99.0.4844.74 Safari/537.36",1280,720,1144,641,"main",1652093,140,287,16,"HM","relative_first","relative","Moderate","Harder than Reference","D","k","riskyDeck","safeDeck",0,14,7,"left",1,0,46,"absent","riskyDeck",1200,1975,-1,0
"2entcks231w",1205.32131147541,819.249806288374,13597,"21/03/2022@16:28:42","Mozilla/5.0 (Windows NT 10.0; Win64; x64) AppleWebKit/537.36 (KHTML, like Gecko) Chrome/99.0.4844.74 Safari/537.36",1280,720,1144,641,"main",1652093,141,287,16,"HM","relative_first","relative","Moderate","Harder than Reference","F","k","safeDeck","riskyDeck",0,14,7,"right",1,1,46,"present","riskyDeck",1111,2394,1,0
"2entcks231w",1205.32131147541,819.249806288374,13597,"21/03/2022@16:28:42","Mozilla/5.0 (Windows NT 10.0; Win64; x64) AppleWebKit/537.36 (KHTML, like Gecko) Chrome/99.0.4844.74 Safari/537.36",1280,720,1144,641,"main",1652093,143,288,16,"HE","relative_first","relative","Extreme","Harder than Reference","F","k","safeDeck","riskyDeck",0,28,14,"right",1,1,60,"present","riskyDeck",1309,3580,1,0
"2entcks231w",1205.32131147541,819.249806288374,13597,"21/03/2022@16:28:42","Mozilla/5.0 (Windows NT 10.0; Win64; x64) AppleWebKit/537.36 (KHTML, like Gecko) Chrome/99.0.4844.74 Safari/537.36",1280,720,1144,641,"main",1652093,144,288,16,"EM","relative_first","relative","Moderate","Easier than Reference","F","j","safeDeck","riskyDeck",0,-28,-14,"right",1,0,32,"present","riskyDeck",770,1453,1,0
"2entcks231w",1205.32131147541,819.249806288374,13597,"21/03/2022@16:28:42","Mozilla/5.0 (Windows NT 10.0; Win64; x64) AppleWebKit/537.36 (KHTML, like Gecko) Chrome/99.0.4844.74 Safari/537.36",1280,720,1144,641,"main",1652093,145,288,17,"HM","relative_first","relative","Moderate","Harder than Reference","F","j","safeDeck","riskyDeck",0,14,7,"right",1,0,32,"present","riskyDeck",2542,1128,1,0
"2entcks231w",1205.32131147541,819.249806288374,13597,"21/03/2022@16:28:42","Mozilla/5.0 (Windows NT 10.0; Win64; x64) AppleWebKit/537.36 (KHTML, like Gecko) Chrome/99.0.4844.74 Safari/537.36",1280,720,1144,641,"main",1652093,146,288,17,"EE","relative_first","relative","Extreme","Easier than Reference","F","j","riskyDeck","safeDeck",-14,0,-7,"right",0,0,25,"present","safeDeck",2564,885,1,1
"2entcks231w",1205.32131147541,819.249806288374,13597,"21/03/2022@16:28:42","Mozilla/5.0 (Windows NT 10.0; Win64; x64) AppleWebKit/537.36 (KHTML, like Gecko) Chrome/99.0.4844.74 Safari/537.36",1280,720,1144,641,"main",1652093,147,288,17,"HE","relative_first","relative","Extreme","Harder than Reference","D","k","riskyDeck","safeDeck",28,0,14,"left",1,0,60,"absent","riskyDeck",754,2606,-1,0
"2entcks231w",1205.32131147541,819.249806288374,13597,"21/03/2022@16:28:42","Mozilla/5.0 (Windows NT 10.0; Win64; x64) AppleWebKit/537.36 (KHTML, like Gecko) Chrome/99.0.4844.74 Safari/537.36",1280,720,1144,641,"main",1652093,148,288,17,"EM","relative_first","relative","Moderate","Easier than Reference","D","j","safeDeck","riskyDeck",0,-28,-14,"left",0,0,18,"present","safeDeck",835,672,-1,1
"2entcks231w",1205.32131147541,819.249806288374,13597,"21/03/2022@16:28:42","Mozilla/5.0 (Windows NT 10.0; Win64; x64) AppleWebKit/537.36 (KHTML, like Gecko) Chrome/99.0.4844.74 Safari/537.36",1280,720,1144,641,"main",1652093,149,288,17,"EM","relative_first","relative","Moderate","Easier than Reference","D","k","riskyDeck","safeDeck",0,-28,-14,"left",1,0,4,"absent","riskyDeck",498,811,-1,0
"2entcks231w",1205.32131147541,819.249806288374,13597,"21/03/2022@16:28:42","Mozilla/5.0 (Windows NT 10.0; Win64; x64) AppleWebKit/537.36 (KHTML, like Gecko) Chrome/99.0.4844.74 Safari/537.36",1280,720,1144,641,"main",1652093,150,288,17,"HE","relative_first","relative","Extreme","Harder than Reference","D","k","safeDeck","riskyDeck",28,0,14,"left",0,1,46,"present","safeDeck",860,2454,-1,1
"2entcks231w",1205.32131147541,819.249806288374,13597,"21/03/2022@16:28:42","Mozilla/5.0 (Windows NT 10.0; Win64; x64) AppleWebKit/537.36 (KHTML, like Gecko) Chrome/99.0.4844.74 Safari/537.36",1280,720,1144,641,"main",1652093,151,288,17,"EE","relative_first","relative","Extreme","Easier than Reference","D","j","safeDeck","riskyDeck",-14,0,-7,"left",0,0,25,"present","safeDeck",991,1160,-1,1
"2entcks231w",1205.32131147541,819.249806288374,13597,"21/03/2022@16:28:42","Mozilla/5.0 (Windows NT 10.0; Win64; x64) AppleWebKit/537.36 (KHTML, like Gecko) Chrome/99.0.4844.74 Safari/537.36",1280,720,1144,641,"main",1652093,152,288,17,"HM","relative_first","relative","Moderate","Harder than Reference","D","j","safeDeck","riskyDeck",14,0,7,"left",0,0,39,"present","safeDeck",1079,1207,-1,1
"2entcks231w",1205.32131147541,819.249806288374,13597,"21/03/2022@16:28:42","Mozilla/5.0 (Windows NT 10.0; Win64; x64) AppleWebKit/537.36 (KHTML, like Gecko) Chrome/99.0.4844.74 Safari/537.36",1280,720,1144,641,"main",1652093,153,289,17,"EE","relative_first","relative","Extreme","Easier than Reference","F","j","riskyDeck","safeDeck",0,-14,-7,"right",0,0,25,"present","safeDeck",1117,1068,1,1
"2entcks231w",1205.32131147541,819.249806288374,13597,"21/03/2022@16:28:42","Mozilla/5.0 (Windows NT 10.0; Win64; x64) AppleWebKit/537.36 (KHTML, like Gecko) Chrome/99.0.4844.74 Safari/537.36",1280,720,1144,641,"main",1652093,154,289,17,"HM","relative_first","relative","Moderate","Harder than Reference","D","k","riskyDeck","safeDeck",0,14,7,"left",1,0,32,"absent","riskyDeck",1181,2136,-1,0
"2entcks231w",1205.32131147541,819.249806288374,13597,"21/03/2022@16:28:42","Mozilla/5.0 (Windows NT 10.0; Win64; x64) AppleWebKit/537.36 (KHTML, like Gecko) Chrome/99.0.4844.74 Safari/537.36",1280,720,1144,641,"main",1652093,156,289,17,"HE","relative_first","relative","Extreme","Harder than Reference","D","j","riskyDeck","safeDeck",0,28,14,"left",1,0,32,"present","riskyDeck",1486,1363,-1,0
"2entcks231w",1205.32131147541,819.249806288374,13597,"21/03/2022@16:28:42","Mozilla/5.0 (Windows NT 10.0; Win64; x64) AppleWebKit/537.36 (KHTML, like Gecko) Chrome/99.0.4844.74 Safari/537.36",1280,720,1144,641,"main",1652093,157,289,17,"EE","relative_first","relative","Extreme","Easier than Reference","D","k","riskyDeck","safeDeck",-14,0,-7,"left",1,0,32,"absent","riskyDeck",1467,1419,-1,0
"2entcks231w",1205.32131147541,819.249806288374,13597,"21/03/2022@16:28:42","Mozilla/5.0 (Windows NT 10.0; Win64; x64) AppleWebKit/537.36 (KHTML, like Gecko) Chrome/99.0.4844.74 Safari/537.36",1280,720,1144,641,"main",1652093,158,289,18,"HM","relative_first","relative","Moderate","Harder than Reference","D","k","riskyDeck","safeDeck",0,14,7,"left",1,0,46,"absent","riskyDeck",1788,1957,-1,0
"2entcks231w",1205.32131147541,819.249806288374,13597,"21/03/2022@16:28:42","Mozilla/5.0 (Windows NT 10.0; Win64; x64) AppleWebKit/537.36 (KHTML, like Gecko) Chrome/99.0.4844.74 Safari/537.36",1280,720,1144,641,"main",1652093,159,289,18,"EM","relative_first","relative","Moderate","Easier than Reference","D","k","riskyDeck","safeDeck",-28,0,-14,"left",1,0,32,"absent","riskyDeck",857,1627,-1,0
"2entcks231w",1205.32131147541,819.249806288374,13597,"21/03/2022@16:28:42","Mozilla/5.0 (Windows NT 10.0; Win64; x64) AppleWebKit/537.36 (KHTML, like Gecko) Chrome/99.0.4844.74 Safari/537.36",1280,720,1144,641,"main",1652093,160,289,18,"HE","relative_first","relative","Extreme","Harder than Reference","F","j","safeDeck","riskyDeck",28,0,14,"right",1,0,32,"present","riskyDeck",2081,1007,1,0
"2entcks231w",1205.32131147541,819.249806288374,13597,"21/03/2022@16:28:42","Mozilla/5.0 (Windows NT 10.0; Win64; x64) AppleWebKit/537.36 (KHTML, like Gecko) Chrome/99.0.4844.74 Safari/537.36",1280,720,1144,641,"main",1652093,161,289,18,"HE","relative_first","relative","Extreme","Harder than Reference","D","j","riskyDeck","safeDeck",0,28,14,"left",1,0,60,"present","riskyDeck",770,792,-1,0
"2entcks231w",1205.32131147541,819.249806288374,13597,"21/03/2022@16:28:42","Mozilla/5.0 (Windows NT 10.0; Win64; x64) AppleWebKit/537.36 (KHTML, like Gecko) Chrome/99.0.4844.74 Safari/537.36",1280,720,1144,641,"main",1652093,162,289,18,"HM","relative_first","relative","Moderate","Harder than Reference","F","j","safeDeck","riskyDeck",14,0,7,"right",1,0,32,"present","riskyDeck",877,1364,1,0
"2entcks231w",1205.32131147541,819.249806288374,13597,"21/03/2022@16:28:42","Mozilla/5.0 (Windows NT 10.0; Win64; x64) AppleWebKit/537.36 (KHTML, like Gecko) Chrome/99.0.4844.74 Safari/537.36",1280,720,1144,641,"main",1652093,163,289,18,"EE","relative_first","relative","Extreme","Easier than Reference","F","j","safeDeck","riskyDeck",0,-14,-7,"right",1,0,18,"present","riskyDeck",1353,923,1,0
"2entcks231w",1205.32131147541,819.249806288374,13597,"21/03/2022@16:28:42","Mozilla/5.0 (Windows NT 10.0; Win64; x64) AppleWebKit/537.36 (KHTML, like Gecko) Chrome/99.0.4844.74 Safari/537.36",1280,720,1144,641,"main",1652093,164,289,18,"EM","relative_first","relative","Moderate","Easier than Reference","D","k","riskyDeck","safeDeck",-28,0,-14,"left",1,0,32,"absent","riskyDeck",737,1758,-1,0
"2entcks231w",1205.32131147541,819.249806288374,13597,"21/03/2022@16:28:42","Mozilla/5.0 (Windows NT 10.0; Win64; x64) AppleWebKit/537.36 (KHTML, like Gecko) Chrome/99.0.4844.74 Safari/537.36",1280,720,1144,641,"main",1652093,165,289,18,"HE","relative_first","relative","Extreme","Harder than Reference","F","k","riskyDeck","safeDeck",0,28,14,"right",0,0,46,"absent","safeDeck",1001,1118,1,1
"2entcks231w",1205.32131147541,819.249806288374,13597,"21/03/2022@16:28:42","Mozilla/5.0 (Windows NT 10.0; Win64; x64) AppleWebKit/537.36 (KHTML, like Gecko) Chrome/99.0.4844.74 Safari/537.36",1280,720,1144,641,"main",1652093,166,290,18,"EE","relative_first","relative","Extreme","Easier than Reference","F","j","riskyDeck","safeDeck",0,-14,-7,"right",0,0,25,"present","safeDeck",1268,1974,1,1
"2entcks231w",1205.32131147541,819.249806288374,13597,"21/03/2022@16:28:42","Mozilla/5.0 (Windows NT 10.0; Win64; x64) AppleWebKit/537.36 (KHTML, like Gecko) Chrome/99.0.4844.74 Safari/537.36",1280,720,1144,641,"main",1652093,167,290,18,"EM","relative_first","relative","Moderate","Easier than Reference","F","j","safeDeck","riskyDeck",-28,0,-14,"right",1,0,4,"present","riskyDeck",1170,633,1,0
"2entcks231w",1205.32131147541,819.249806288374,13597,"21/03/2022@16:28:42","Mozilla/5.0 (Windows NT 10.0; Win64; x64) AppleWebKit/537.36 (KHTML, like Gecko) Chrome/99.0.4844.74 Safari/537.36",1280,720,1144,641,"main",1652093,168,290,18,"HM","relative_first","relative","Moderate","Harder than Reference","D","k","riskyDeck","safeDeck",14,0,7,"left",1,0,46,"absent","riskyDeck",1134,2377,-1,0
"2entcks231w",1205.32131147541,819.249806288374,13597,"21/03/2022@16:28:42","Mozilla/5.0 (Windows NT 10.0; Win64; x64) AppleWebKit/537.36 (KHTML, like Gecko) Chrome/99.0.4844.74 Safari/537.36",1280,720,1144,641,"main",1652093,169,290,18,"HM","relative_first","relative","Moderate","Harder than Reference","F","k","riskyDeck","safeDeck",14,0,7,"right",0,0,39,"absent","safeDeck",862,1443,1,1
"2entcks231w",1205.32131147541,819.249806288374,13597,"21/03/2022@16:28:42","Mozilla/5.0 (Windows NT 10.0; Win64; x64) AppleWebKit/537.36 (KHTML, like Gecko) Chrome/99.0.4844.74 Safari/537.36",1280,720,1144,641,"main",1652093,170,290,18,"HE","relative_first","relative","Extreme","Harder than Reference","F","k","riskyDeck","safeDeck",28,0,14,"right",0,0,46,"absent","safeDeck",857,1757,1,1
"2entcks231w",1205.32131147541,819.249806288374,13597,"21/03/2022@16:28:42","Mozilla/5.0 (Windows NT 10.0; Win64; x64) AppleWebKit/537.36 (KHTML, like Gecko) Chrome/99.0.4844.74 Safari/537.36",1280,720,1144,641,"main",1652093,171,290,18,"EE","relative_first","relative","Extreme","Easier than Reference","F","k","safeDeck","riskyDeck",-14,0,-7,"right",1,0,32,"absent","riskyDeck",900,1207,1,0
"2entcks231w",1205.32131147541,819.249806288374,13597,"21/03/2022@16:28:42","Mozilla/5.0 (Windows NT 10.0; Win64; x64) AppleWebKit/537.36 (KHTML, like Gecko) Chrome/99.0.4844.74 Safari/537.36",1280,720,1144,641,"main",1652093,172,290,18,"EM","relative_first","relative","Moderate","Easier than Reference","F","j","safeDeck","riskyDeck",-28,0,-14,"right",1,0,4,"present","riskyDeck",809,535,1,0
"2entcks231w",1205.32131147541,819.249806288374,13597,"21/03/2022@16:28:42","Mozilla/5.0 (Windows NT 10.0; Win64; x64) AppleWebKit/537.36 (KHTML, like Gecko) Chrome/99.0.4844.74 Safari/537.36",1280,720,1144,641,"main",1652093,173,290,19,"EM","relative_first","relative","Moderate","Easier than Reference","D","k","riskyDeck","safeDeck",0,-28,-14,"left",1,0,4,"absent","riskyDeck",2478,621,-1,0
"2entcks231w",1205.32131147541,819.249806288374,13597,"21/03/2022@16:28:42","Mozilla/5.0 (Windows NT 10.0; Win64; x64) AppleWebKit/537.36 (KHTML, like Gecko) Chrome/99.0.4844.74 Safari/537.36",1280,720,1144,641,"main",1652093,174,290,19,"HE","relative_first","relative","Extreme","Harder than Reference","D","k","riskyDeck","safeDeck",0,28,14,"left",1,0,60,"absent","riskyDeck",850,2230,-1,0
"2entcks231w",1205.32131147541,819.249806288374,13597,"21/03/2022@16:28:42","Mozilla/5.0 (Windows NT 10.0; Win64; x64) AppleWebKit/537.36 (KHTML, like Gecko) Chrome/99.0.4844.74 Safari/537.36",1280,720,1144,641,"main",1652093,175,290,19,"EE","relative_first","relative","Extreme","Easier than Reference","D","k","safeDeck","riskyDeck",-14,0,-7,"left",0,0,25,"absent","safeDeck",837,1621,-1,1
"2entcks231w",1205.32131147541,819.249806288374,13597,"21/03/2022@16:28:42","Mozilla/5.0 (Windows NT 10.0; Win64; x64) AppleWebKit/537.36 (KHTML, like Gecko) Chrome/99.0.4844.74 Safari/537.36",1280,720,1144,641,"main",1652093,176,290,19,"HM","relative_first","relative","Moderate","Harder than Reference","D","k","riskyDeck","safeDeck",0,14,7,"left",1,1,46,"present","riskyDeck",1385,2648,-1,0
"2entcks231w",1205.32131147541,819.249806288374,13597,"21/03/2022@16:28:42","Mozilla/5.0 (Windows NT 10.0; Win64; x64) AppleWebKit/537.36 (KHTML, like Gecko) Chrome/99.0.4844.74 Safari/537.36",1280,720,1144,641,"main",1652093,177,290,19,"HE","relative_first","relative","Extreme","Harder than Reference","D","j","riskyDeck","safeDeck",0,28,14,"left",1,0,32,"present","riskyDeck",888,1567,-1,0
"2entcks231w",1205.32131147541,819.249806288374,13597,"21/03/2022@16:28:42","Mozilla/5.0 (Windows NT 10.0; Win64; x64) AppleWebKit/537.36 (KHTML, like Gecko) Chrome/99.0.4844.74 Safari/537.36",1280,720,1144,641,"main",1652093,178,290,19,"HM","relative_first","relative","Moderate","Harder than Reference","D","k","riskyDeck","safeDeck",0,14,7,"left",1,0,46,"absent","riskyDeck",725,692,-1,0
"2entcks231w",1205.32131147541,819.249806288374,13597,"21/03/2022@16:28:42","Mozilla/5.0 (Windows NT 10.0; Win64; x64) AppleWebKit/537.36 (KHTML, like Gecko) Chrome/99.0.4844.74 Safari/537.36",1280,720,1144,641,"main",1652093,179,290,19,"EE","relative_first","relative","Extreme","Easier than Reference","D","k","riskyDeck","safeDeck",-14,0,-7,"left",1,0,32,"absent","riskyDeck",932,1137,-1,0
"2entcks231w",1205.32131147541,819.249806288374,13597,"21/03/2022@16:28:42","Mozilla/5.0 (Windows NT 10.0; Win64; x64) AppleWebKit/537.36 (KHTML, like Gecko) Chrome/99.0.4844.74 Safari/537.36",1280,720,1144,641,"main",1652093,180,291,19,"EM","relative_first","relative","Moderate","Easier than Reference","F","k","safeDeck","riskyDeck",-28,0,-14,"right",1,0,4,"absent","riskyDeck",733,985,1,0
"2entcks231w",1205.32131147541,819.249806288374,13597,"21/03/2022@16:28:42","Mozilla/5.0 (Windows NT 10.0; Win64; x64) AppleWebKit/537.36 (KHTML, like Gecko) Chrome/99.0.4844.74 Safari/537.36",1280,720,1144,641,"main",1652093,181,291,19,"EM","relative_first","relative","Moderate","Easier than Reference","F","j","safeDeck","riskyDeck",-28,0,-14,"right",1,0,32,"present","riskyDeck",826,957,1,0
"2entcks231w",1205.32131147541,819.249806288374,13597,"21/03/2022@16:28:42","Mozilla/5.0 (Windows NT 10.0; Win64; x64) AppleWebKit/537.36 (KHTML, like Gecko) Chrome/99.0.4844.74 Safari/537.36",1280,720,1144,641,"main",1652093,182,291,19,"HM","relative_first","relative","Moderate","Harder than Reference","F","j","safeDeck","riskyDeck",14,0,7,"right",1,0,32,"present","riskyDeck",652,797,1,0
"2entcks231w",1205.32131147541,819.249806288374,13597,"21/03/2022@16:28:42","Mozilla/5.0 (Windows NT 10.0; Win64; x64) AppleWebKit/537.36 (KHTML, like Gecko) Chrome/99.0.4844.74 Safari/537.36",1280,720,1144,641,"main",1652093,183,291,19,"EE","relative_first","relative","Extreme","Easier than Reference","F","k","riskyDeck","safeDeck",0,-14,-7,"right",0,0,25,"absent","safeDeck",743,1377,1,1
"2entcks231w",1205.32131147541,819.249806288374,13597,"21/03/2022@16:28:42","Mozilla/5.0 (Windows NT 10.0; Win64; x64) AppleWebKit/537.36 (KHTML, like Gecko) Chrome/99.0.4844.74 Safari/537.36",1280,720,1144,641,"main",1652093,184,291,19,"HE","relative_first","relative","Extreme","Harder than Reference","D","k","safeDeck","riskyDeck",28,0,14,"left",0,0,46,"absent","safeDeck",683,2158,-1,1
"2entcks231w",1205.32131147541,819.249806288374,13597,"21/03/2022@16:28:42","Mozilla/5.0 (Windows NT 10.0; Win64; x64) AppleWebKit/537.36 (KHTML, like Gecko) Chrome/99.0.4844.74 Safari/537.36",1280,720,1144,641,"main",1652093,185,291,19,"HE","relative_first","relative","Extreme","Harder than Reference","F","j","safeDeck","riskyDeck",0,28,14,"right",1,0,60,"present","riskyDeck",851,1216,1,0
"2entcks231w",1205.32131147541,819.249806288374,13597,"21/03/2022@16:28:42","Mozilla/5.0 (Windows NT 10.0; Win64; x64) AppleWebKit/537.36 (KHTML, like Gecko) Chrome/99.0.4844.74 Safari/537.36",1280,720,1144,641,"main",1652093,186,291,19,"EM","relative_first","relative","Moderate","Easier than Reference","F","j","safeDeck","riskyDeck",-28,0,-14,"right",1,0,32,"present","riskyDeck",657,1683,1,0
"2entcks231w",1205.32131147541,819.249806288374,13597,"21/03/2022@16:28:42","Mozilla/5.0 (Windows NT 10.0; Win64; x64) AppleWebKit/537.36 (KHTML, like Gecko) Chrome/99.0.4844.74 Safari/537.36",1280,720,1144,641,"main",1652093,187,291,19,"HM","relative_first","relative","Moderate","Harder than Reference","D","k","riskyDeck","safeDeck",14,0,7,"left",1,0,46,"absent","riskyDeck",693,1160,-1,0
"2entcks231w",1205.32131147541,819.249806288374,13597,"21/03/2022@16:28:42","Mozilla/5.0 (Windows NT 10.0; Win64; x64) AppleWebKit/537.36 (KHTML, like Gecko) Chrome/99.0.4844.74 Safari/537.36",1280,720,1144,641,"main",1652093,188,291,20,"EE","relative_first","relative","Extreme","Easier than Reference","F","j","safeDeck","riskyDeck",-14,0,-7,"right",1,0,18,"present","riskyDeck",877,814,1,0
"2entcks231w",1205.32131147541,819.249806288374,13597,"21/03/2022@16:28:42","Mozilla/5.0 (Windows NT 10.0; Win64; x64) AppleWebKit/537.36 (KHTML, like Gecko) Chrome/99.0.4844.74 Safari/537.36",1280,720,1144,641,"main",1652093,189,291,20,"EE","relative_first","relative","Extreme","Easier than Reference","F","k","safeDeck","riskyDeck",-14,0,-7,"right",1,0,32,"absent","riskyDeck",591,868,1,0
"2entcks231w",1205.32131147541,819.249806288374,13597,"21/03/2022@16:28:42","Mozilla/5.0 (Windows NT 10.0; Win64; x64) AppleWebKit/537.36 (KHTML, like Gecko) Chrome/99.0.4844.74 Safari/537.36",1280,720,1144,641,"main",1652093,190,291,20,"HM","relative_first","relative","Moderate","Harder than Reference","D","j","riskyDeck","safeDeck",14,0,7,"left",1,0,32,"present","riskyDeck",631,653,-1,0
"2entcks231w",1205.32131147541,819.249806288374,13597,"21/03/2022@16:28:42","Mozilla/5.0 (Windows NT 10.0; Win64; x64) AppleWebKit/537.36 (KHTML, like Gecko) Chrome/99.0.4844.74 Safari/537.36",1280,720,1144,641,"main",1652093,191,291,20,"EM","relative_first","relative","Moderate","Easier than Reference","D","k","riskyDeck","safeDeck",-28,0,-14,"left",1,0,4,"absent","riskyDeck",446,671,-1,0
"2entcks231w",1205.32131147541,819.249806288374,13597,"21/03/2022@16:28:42","Mozilla/5.0 (Windows NT 10.0; Win64; x64) AppleWebKit/537.36 (KHTML, like Gecko) Chrome/99.0.4844.74 Safari/537.36",1280,720,1144,641,"main",1652093,192,291,20,"HE","relative_first","relative","Extreme","Harder than Reference","F","k","safeDeck","riskyDeck",0,28,14,"right",1,0,60,"absent","riskyDeck",958,2455,1,0
"2entcks231w",1205.32131147541,819.249806288374,13597,"21/03/2022@16:28:42","Mozilla/5.0 (Windows NT 10.0; Win64; x64) AppleWebKit/537.36 (KHTML, like Gecko) Chrome/99.0.4844.74 Safari/537.36",1280,720,1144,641,"main",1652093,193,291,20,"EM","relative_first","relative","Moderate","Easier than Reference","D","j","riskyDeck","safeDeck",0,-28,-14,"left",1,0,4,"present","riskyDeck",601,940,-1,0
"2entcks231w",1205.32131147541,819.249806288374,13597,"21/03/2022@16:28:42","Mozilla/5.0 (Windows NT 10.0; Win64; x64) AppleWebKit/537.36 (KHTML, like Gecko) Chrome/99.0.4844.74 Safari/537.36",1280,720,1144,641,"main",1652093,194,291,20,"HE","relative_first","relative","Extreme","Harder than Reference","D","j","riskyDeck","safeDeck",28,0,14,"left",1,0,60,"present","riskyDeck",1061,3405,-1,0
"2entcks231w",1205.32131147541,819.249806288374,13597,"21/03/2022@16:28:42","Mozilla/5.0 (Windows NT 10.0; Win64; x64) AppleWebKit/537.36 (KHTML, like Gecko) Chrome/99.0.4844.74 Safari/537.36",1280,720,1144,641,"main",1652093,195,291,20,"HM","relative_first","relative","Moderate","Harder than Reference","D","k","riskyDeck","safeDeck",14,0,7,"left",1,0,46,"absent","riskyDeck",1922,1955,-1,0
"2entcks231w",1205.32131147541,819.249806288374,13597,"21/03/2022@16:28:42","Mozilla/5.0 (Windows NT 10.0; Win64; x64) AppleWebKit/537.36 (KHTML, like Gecko) Chrome/99.0.4844.74 Safari/537.36",1280,720,1144,641,"main",1652093,196,292,20,"EE","relative_first","relative","Extreme","Easier than Reference","F","j","safeDeck","riskyDeck",-14,0,-7,"right",1,0,32,"present","riskyDeck",561,844,1,0
"2entcks231w",1205.32131147541,819.249806288374,13597,"21/03/2022@16:28:42","Mozilla/5.0 (Windows NT 10.0; Win64; x64) AppleWebKit/537.36 (KHTML, like Gecko) Chrome/99.0.4844.74 Safari/537.36",1280,720,1144,641,"main",1652093,197,292,20,"HE","relative_first","relative","Extreme","Harder than Reference","D","j","riskyDeck","safeDeck",28,0,14,"left",1,0,60,"present","riskyDeck",559,803,-1,0
"2entcks231w",1205.32131147541,819.249806288374,13597,"21/03/2022@16:28:42","Mozilla/5.0 (Windows NT 10.0; Win64; x64) AppleWebKit/537.36 (KHTML, like Gecko) Chrome/99.0.4844.74 Safari/537.36",1280,720,1144,641,"main",1652093,198,292,20,"EM","relative_first","relative","Moderate","Easier than Reference","F","j","safeDeck","riskyDeck",-28,0,-14,"right",1,0,32,"present","riskyDeck",620,968,1,0
"2entcks231w",1205.32131147541,819.249806288374,13597,"21/03/2022@16:28:42","Mozilla/5.0 (Windows NT 10.0; Win64; x64) AppleWebKit/537.36 (KHTML, like Gecko) Chrome/99.0.4844.74 Safari/537.36",1280,720,1144,641,"main",1652093,199,292,20,"HM","relative_first","relative","Moderate","Harder than Reference","F","k","riskyDeck","safeDeck",14,0,7,"right",0,0,39,"absent","safeDeck",818,1516,1,1
"2entcks231w",1205.32131147541,819.249806288374,13597,"21/03/2022@16:28:42","Mozilla/5.0 (Windows NT 10.0; Win64; x64) AppleWebKit/537.36 (KHTML, like Gecko) Chrome/99.0.4844.74 Safari/537.36",1280,720,1144,641,"main",1652093,200,292,20,"EE","relative_first","relative","Extreme","Easier than Reference","F","j","safeDeck","riskyDeck",0,-14,-7,"right",1,0,18,"present","riskyDeck",619,1159,1,0
"2entcks231w",1205.32131147541,819.249806288374,13597,"21/03/2022@16:28:42","Mozilla/5.0 (Windows NT 10.0; Win64; x64) AppleWebKit/537.36 (KHTML, like Gecko) Chrome/99.0.4844.74 Safari/537.36",1280,720,1144,641,"main",1652093,201,292,20,"HM","relative_first","relative","Moderate","Harder than Reference","F","j","safeDeck","riskyDeck",14,0,7,"right",1,0,32,"present","riskyDeck",2268,867,1,0
"2entcks231w",1205.32131147541,819.249806288374,13597,"21/03/2022@16:28:42","Mozilla/5.0 (Windows NT 10.0; Win64; x64) AppleWebKit/537.36 (KHTML, like Gecko) Chrome/99.0.4844.74 Safari/537.36",1280,720,1144,641,"main",1652093,202,292,20,"EM","relative_first","relative","Moderate","Easier than Reference","F","j","safeDeck","riskyDeck",-28,0,-14,"right",1,0,32,"present","riskyDeck",625,574,1,0
"2entcks231w",1205.32131147541,819.249806288374,13597,"21/03/2022@16:28:42","Mozilla/5.0 (Windows NT 10.0; Win64; x64) AppleWebKit/537.36 (KHTML, like Gecko) Chrome/99.0.4844.74 Safari/537.36",1280,720,1144,641,"main",1652093,203,292,20,"HE","relative_first","relative","Extreme","Harder than Reference","D","k","riskyDeck","safeDeck",28,0,14,"left",1,0,32,"absent","riskyDeck",544,1811,-1,0
"2entcks231w",1205.32131147541,819.249806288374,13597,"21/03/2022@16:28:42","Mozilla/5.0 (Windows NT 10.0; Win64; x64) AppleWebKit/537.36 (KHTML, like Gecko) Chrome/99.0.4844.74 Safari/537.36",1280,720,1144,641,"main",1652093,204,292,21,"EE","relative_first","relative","Extreme","Easier than Reference","D","k","riskyDeck","safeDeck",-14,0,-7,"left",1,0,18,"absent","riskyDeck",469,987,-1,0
"2entcks231w",1205.32131147541,819.249806288374,13597,"21/03/2022@16:28:42","Mozilla/5.0 (Windows NT 10.0; Win64; x64) AppleWebKit/537.36 (KHTML, like Gecko) Chrome/99.0.4844.74 Safari/537.36",1280,720,1144,641,"main",1652093,205,292,21,"EM","relative_first","relative","Moderate","Easier than Reference","F","k","safeDeck","riskyDeck",0,-28,-14,"right",1,0,4,"absent","riskyDeck",667,834,1,0
"2entcks231w",1205.32131147541,819.249806288374,13597,"21/03/2022@16:28:42","Mozilla/5.0 (Windows NT 10.0; Win64; x64) AppleWebKit/537.36 (KHTML, like Gecko) Chrome/99.0.4844.74 Safari/537.36",1280,720,1144,641,"main",1652093,206,292,21,"EE","relative_first","relative","Extreme","Easier than Reference","D","k","riskyDeck","safeDeck",-14,0,-7,"left",1,0,18,"absent","riskyDeck",485,1488,-1,0
"2entcks231w",1205.32131147541,819.249806288374,13597,"21/03/2022@16:28:42","Mozilla/5.0 (Windows NT 10.0; Win64; x64) AppleWebKit/537.36 (KHTML, like Gecko) Chrome/99.0.4844.74 Safari/537.36",1280,720,1144,641,"main",1652093,207,292,21,"HE","relative_first","relative","Extreme","Harder than Reference","D","k","riskyDeck","safeDeck",0,28,14,"left",1,1,60,"present","riskyDeck",602,1240,-1,0
"2entcks231w",1205.32131147541,819.249806288374,13597,"21/03/2022@16:28:42","Mozilla/5.0 (Windows NT 10.0; Win64; x64) AppleWebKit/537.36 (KHTML, like Gecko) Chrome/99.0.4844.74 Safari/537.36",1280,720,1144,641,"main",1652093,208,292,21,"HM","relative_first","relative","Moderate","Harder than Reference","D","k","riskyDeck","safeDeck",14,0,7,"left",1,0,46,"absent","riskyDeck",537,2013,-1,0
"2entcks231w",1205.32131147541,819.249806288374,13597,"21/03/2022@16:28:42","Mozilla/5.0 (Windows NT 10.0; Win64; x64) AppleWebKit/537.36 (KHTML, like Gecko) Chrome/99.0.4844.74 Safari/537.36",1280,720,1144,641,"main",1652093,209,292,21,"EM","relative_first","relative","Moderate","Easier than Reference","F","j","safeDeck","riskyDeck",-28,0,-14,"right",1,0,4,"present","riskyDeck",558,800,1,0
"2entcks231w",1205.32131147541,819.249806288374,13597,"21/03/2022@16:28:42","Mozilla/5.0 (Windows NT 10.0; Win64; x64) AppleWebKit/537.36 (KHTML, like Gecko) Chrome/99.0.4844.74 Safari/537.36",1280,720,1144,641,"main",1652093,210,292,21,"EE","relative_first","relative","Extreme","Easier than Reference","D","k","riskyDeck","safeDeck",0,-14,-7,"left",1,0,32,"absent","riskyDeck",690,1284,-1,0
"2entcks231w",1205.32131147541,819.249806288374,13597,"21/03/2022@16:28:42","Mozilla/5.0 (Windows NT 10.0; Win64; x64) AppleWebKit/537.36 (KHTML, like Gecko) Chrome/99.0.4844.74 Safari/537.36",1280,720,1144,641,"main",1652093,211,292,21,"HM","relative_first","relative","Moderate","Harder than Reference","D","j","riskyDeck","safeDeck",0,14,7,"left",1,0,32,"present","riskyDeck",552,1136,-1,0
"2entcks231w",1205.32131147541,819.249806288374,13597,"21/03/2022@16:28:42","Mozilla/5.0 (Windows NT 10.0; Win64; x64) AppleWebKit/537.36 (KHTML, like Gecko) Chrome/99.0.4844.74 Safari/537.36",1280,720,1144,641,"main",1652093,212,292,21,"HE","relative_first","relative","Extreme","Harder than Reference","F","k","safeDeck","riskyDeck",28,0,14,"right",1,1,60,"present","riskyDeck",541,2175,1,0
"2entcks231w",1205.32131147541,819.249806288374,13597,"21/03/2022@16:28:42","Mozilla/5.0 (Windows NT 10.0; Win64; x64) AppleWebKit/537.36 (KHTML, like Gecko) Chrome/99.0.4844.74 Safari/537.36",1280,720,1144,641,"main",1652093,213,293,21,"EE","relative_first","relative","Extreme","Easier than Reference","F","k","safeDeck","riskyDeck",-14,0,-7,"right",1,0,18,"absent","riskyDeck",450,3101,1,0
"2entcks231w",1205.32131147541,819.249806288374,13597,"21/03/2022@16:28:42","Mozilla/5.0 (Windows NT 10.0; Win64; x64) AppleWebKit/537.36 (KHTML, like Gecko) Chrome/99.0.4844.74 Safari/537.36",1280,720,1144,641,"main",1652093,214,293,21,"HM","relative_first","relative","Moderate","Harder than Reference","D","j","riskyDeck","safeDeck",14,0,7,"left",1,0,32,"present","riskyDeck",445,607,-1,0
"2entcks231w",1205.32131147541,819.249806288374,13597,"21/03/2022@16:28:42","Mozilla/5.0 (Windows NT 10.0; Win64; x64) AppleWebKit/537.36 (KHTML, like Gecko) Chrome/99.0.4844.74 Safari/537.36",1280,720,1144,641,"main",1652093,215,293,21,"EM","relative_first","relative","Moderate","Easier than Reference","F","k","safeDeck","riskyDeck",0,-28,-14,"right",1,0,4,"absent","riskyDeck",537,831,1,0
"2entcks231w",1205.32131147541,819.249806288374,13597,"21/03/2022@16:28:42","Mozilla/5.0 (Windows NT 10.0; Win64; x64) AppleWebKit/537.36 (KHTML, like Gecko) Chrome/99.0.4844.74 Safari/537.36",1280,720,1144,641,"main",1652093,216,293,21,"HE","relative_first","relative","Extreme","Harder than Reference","D","k","riskyDeck","safeDeck",28,0,14,"left",1,1,60,"present","riskyDeck",579,942,-1,0
"2entcks231w",1205.32131147541,819.249806288374,13597,"21/03/2022@16:28:42","Mozilla/5.0 (Windows NT 10.0; Win64; x64) AppleWebKit/537.36 (KHTML, like Gecko) Chrome/99.0.4844.74 Safari/537.36",1280,720,1144,641,"main",1652093,217,293,21,"HE","relative_first","relative","Extreme","Harder than Reference","F","k","safeDeck","riskyDeck",0,28,14,"right",1,0,60,"absent","riskyDeck",656,2063,1,0
"2entcks231w",1205.32131147541,819.249806288374,13597,"21/03/2022@16:28:42","Mozilla/5.0 (Windows NT 10.0; Win64; x64) AppleWebKit/537.36 (KHTML, like Gecko) Chrome/99.0.4844.74 Safari/537.36",1280,720,1144,641,"main",1652093,218,293,21,"HM","relative_first","relative","Moderate","Harder than Reference","F","j","safeDeck","riskyDeck",14,0,7,"right",1,0,46,"present","riskyDeck",702,1265,1,0
"2entcks231w",1205.32131147541,819.249806288374,13597,"21/03/2022@16:28:42","Mozilla/5.0 (Windows NT 10.0; Win64; x64) AppleWebKit/537.36 (KHTML, like Gecko) Chrome/99.0.4844.74 Safari/537.36",1280,720,1144,641,"main",1652093,219,293,22,"EM","relative_first","relative","Moderate","Easier than Reference","F","k","safeDeck","riskyDeck",0,-28,-14,"right",1,0,32,"absent","riskyDeck",720,2276,1,0
"2entcks231w",1205.32131147541,819.249806288374,13597,"21/03/2022@16:28:42","Mozilla/5.0 (Windows NT 10.0; Win64; x64) AppleWebKit/537.36 (KHTML, like Gecko) Chrome/99.0.4844.74 Safari/537.36",1280,720,1144,641,"main",1652093,220,293,22,"EE","relative_first","relative","Extreme","Easier than Reference","D","j","safeDeck","riskyDeck",0,-14,-7,"left",0,0,25,"present","safeDeck",898,675,-1,1
"2entcks231w",1205.32131147541,819.249806288374,13597,"21/03/2022@16:28:42","Mozilla/5.0 (Windows NT 10.0; Win64; x64) AppleWebKit/537.36 (KHTML, like Gecko) Chrome/99.0.4844.74 Safari/537.36",1280,720,1144,641,"main",1652093,221,293,22,"HE","relative_first","relative","Extreme","Harder than Reference","D","k","riskyDeck","safeDeck",28,0,14,"left",1,0,32,"absent","riskyDeck",684,1097,-1,0
"2entcks231w",1205.32131147541,819.249806288374,13597,"21/03/2022@16:28:42","Mozilla/5.0 (Windows NT 10.0; Win64; x64) AppleWebKit/537.36 (KHTML, like Gecko) Chrome/99.0.4844.74 Safari/537.36",1280,720,1144,641,"main",1652093,222,293,22,"EM","relative_first","relative","Moderate","Easier than Reference","D","k","riskyDeck","safeDeck",0,-28,-14,"left",1,1,32,"present","riskyDeck",803,1051,-1,0
"2entcks231w",1205.32131147541,819.249806288374,13597,"21/03/2022@16:28:42","Mozilla/5.0 (Windows NT 10.0; Win64; x64) AppleWebKit/537.36 (KHTML, like Gecko) Chrome/99.0.4844.74 Safari/537.36",1280,720,1144,641,"main",1652093,224,293,22,"HM","relative_first","relative","Moderate","Harder than Reference","D","j","safeDeck","riskyDeck",14,0,7,"left",0,0,39,"present","safeDeck",802,1216,-1,1
"2entcks231w",1205.32131147541,819.249806288374,13597,"21/03/2022@16:28:42","Mozilla/5.0 (Windows NT 10.0; Win64; x64) AppleWebKit/537.36 (KHTML, like Gecko) Chrome/99.0.4844.74 Safari/537.36",1280,720,1144,641,"main",1652093,225,293,22,"EM","relative_first","relative","Moderate","Easier than Reference","D","k","safeDeck","riskyDeck",-28,0,-14,"left",0,0,18,"absent","safeDeck",493,835,-1,1
"2entcks231w",1205.32131147541,819.249806288374,13597,"21/03/2022@16:28:42","Mozilla/5.0 (Windows NT 10.0; Win64; x64) AppleWebKit/537.36 (KHTML, like Gecko) Chrome/99.0.4844.74 Safari/537.36",1280,720,1144,641,"main",1652093,226,293,22,"EE","relative_first","relative","Extreme","Easier than Reference","D","k","safeDeck","riskyDeck",-14,0,-7,"left",0,0,25,"absent","safeDeck",784,1703,-1,1
"2entcks231w",1205.32131147541,819.249806288374,13597,"21/03/2022@16:28:42","Mozilla/5.0 (Windows NT 10.0; Win64; x64) AppleWebKit/537.36 (KHTML, like Gecko) Chrome/99.0.4844.74 Safari/537.36",1280,720,1144,641,"main",1652093,227,294,22,"HE","relative_first","relative","Extreme","Harder than Reference","D","k","riskyDeck","safeDeck",0,28,14,"left",1,0,60,"absent","riskyDeck",1370,2600,-1,0
"2entcks231w",1205.32131147541,819.249806288374,13597,"21/03/2022@16:28:42","Mozilla/5.0 (Windows NT 10.0; Win64; x64) AppleWebKit/537.36 (KHTML, like Gecko) Chrome/99.0.4844.74 Safari/537.36",1280,720,1144,641,"main",1652093,228,294,22,"HM","relative_first","relative","Moderate","Harder than Reference","F","j","safeDeck","riskyDeck",0,14,7,"right",1,0,32,"present","riskyDeck",980,2203,1,0
"2entcks231w",1205.32131147541,819.249806288374,13597,"21/03/2022@16:28:42","Mozilla/5.0 (Windows NT 10.0; Win64; x64) AppleWebKit/537.36 (KHTML, like Gecko) Chrome/99.0.4844.74 Safari/537.36",1280,720,1144,641,"main",1652093,229,294,22,"EE","relative_first","relative","Extreme","Easier than Reference","D","j","riskyDeck","safeDeck",-14,0,-7,"left",1,0,32,"present","riskyDeck",661,1180,-1,0
"2entcks231w",1205.32131147541,819.249806288374,13597,"21/03/2022@16:28:42","Mozilla/5.0 (Windows NT 10.0; Win64; x64) AppleWebKit/537.36 (KHTML, like Gecko) Chrome/99.0.4844.74 Safari/537.36",1280,720,1144,641,"main",1652093,230,294,22,"EM","relative_first","relative","Moderate","Easier than Reference","F","k","safeDeck","riskyDeck",0,-28,-14,"right",1,0,32,"absent","riskyDeck",804,1619,1,0
"2entcks231w",1205.32131147541,819.249806288374,13597,"21/03/2022@16:28:42","Mozilla/5.0 (Windows NT 10.0; Win64; x64) AppleWebKit/537.36 (KHTML, like Gecko) Chrome/99.0.4844.74 Safari/537.36",1280,720,1144,641,"main",1652093,231,294,22,"HM","relative_first","relative","Moderate","Harder than Reference","F","k","safeDeck","riskyDeck",0,14,7,"right",1,1,46,"present","riskyDeck",1710,2856,1,0
"2entcks231w",1205.32131147541,819.249806288374,13597,"21/03/2022@16:28:42","Mozilla/5.0 (Windows NT 10.0; Win64; x64) AppleWebKit/537.36 (KHTML, like Gecko) Chrome/99.0.4844.74 Safari/537.36",1280,720,1144,641,"main",1652093,232,294,23,"HE","relative_first","relative","Extreme","Harder than Reference","F","j","safeDeck","riskyDeck",0,28,14,"right",1,0,32,"present","riskyDeck",737,2060,1,0
"2entcks231w",1205.32131147541,819.249806288374,13597,"21/03/2022@16:28:42","Mozilla/5.0 (Windows NT 10.0; Win64; x64) AppleWebKit/537.36 (KHTML, like Gecko) Chrome/99.0.4844.74 Safari/537.36",1280,720,1144,641,"main",1652093,233,294,23,"HE","relative_first","relative","Extreme","Harder than Reference","F","k","safeDeck","riskyDeck",0,28,14,"right",1,1,60,"present","riskyDeck",654,3163,1,0
"2entcks231w",1205.32131147541,819.249806288374,13597,"21/03/2022@16:28:42","Mozilla/5.0 (Windows NT 10.0; Win64; x64) AppleWebKit/537.36 (KHTML, like Gecko) Chrome/99.0.4844.74 Safari/537.36",1280,720,1144,641,"main",1652093,234,294,23,"HM","relative_first","relative","Moderate","Harder than Reference","F","j","safeDeck","riskyDeck",0,14,7,"right",1,0,32,"present","riskyDeck",1041,887,1,0
"2entcks231w",1205.32131147541,819.249806288374,13597,"21/03/2022@16:28:42","Mozilla/5.0 (Windows NT 10.0; Win64; x64) AppleWebKit/537.36 (KHTML, like Gecko) Chrome/99.0.4844.74 Safari/537.36",1280,720,1144,641,"main",1652093,235,294,23,"EE","relative_first","relative","Extreme","Easier than Reference","D","k","riskyDeck","safeDeck",-14,0,-7,"left",1,0,18,"absent","riskyDeck",1057,1493,-1,0
"2entcks231w",1205.32131147541,819.249806288374,13597,"21/03/2022@16:28:42","Mozilla/5.0 (Windows NT 10.0; Win64; x64) AppleWebKit/537.36 (KHTML, like Gecko) Chrome/99.0.4844.74 Safari/537.36",1280,720,1144,641,"main",1652093,236,294,23,"EM","relative_first","relative","Moderate","Easier than Reference","D","k","safeDeck","riskyDeck",0,-28,-14,"left",0,0,18,"absent","safeDeck",809,1312,-1,1
"2entcks231w",1205.32131147541,819.249806288374,13597,"21/03/2022@16:28:42","Mozilla/5.0 (Windows NT 10.0; Win64; x64) AppleWebKit/537.36 (KHTML, like Gecko) Chrome/99.0.4844.74 Safari/537.36",1280,720,1144,641,"main",1652093,237,294,23,"HM","relative_first","relative","Moderate","Harder than Reference","D","k","riskyDeck","safeDeck",14,0,7,"left",1,0,46,"absent","riskyDeck",1106,1859,-1,0
"2entcks231w",1205.32131147541,819.249806288374,13597,"21/03/2022@16:28:42","Mozilla/5.0 (Windows NT 10.0; Win64; x64) AppleWebKit/537.36 (KHTML, like Gecko) Chrome/99.0.4844.74 Safari/537.36",1280,720,1144,641,"main",1652093,238,294,23,"EM","relative_first","relative","Moderate","Easier than Reference","F","k","safeDeck","riskyDeck",-28,0,-14,"right",1,0,4,"absent","riskyDeck",1149,692,1,0
"2entcks231w",1205.32131147541,819.249806288374,13597,"21/03/2022@16:28:42","Mozilla/5.0 (Windows NT 10.0; Win64; x64) AppleWebKit/537.36 (KHTML, like Gecko) Chrome/99.0.4844.74 Safari/537.36",1280,720,1144,641,"main",1652093,239,294,23,"EE","relative_first","relative","Extreme","Easier than Reference","F","j","riskyDeck","safeDeck",-14,0,-7,"right",0,0,25,"present","safeDeck",859,832,1,1
"2entcks231w",1205.32131147541,819.249806288374,13597,"21/03/2022@16:28:42","Mozilla/5.0 (Windows NT 10.0; Win64; x64) AppleWebKit/537.36 (KHTML, like Gecko) Chrome/99.0.4844.74 Safari/537.36",1280,720,1144,641,"main",1652093,240,295,23,"HE","relative_first","relative","Extreme","Harder than Reference","D","k","riskyDeck","safeDeck",0,28,14,"left",1,0,32,"absent","riskyDeck",2725,1536,-1,0
"2entcks231w",1205.32131147541,819.249806288374,13597,"21/03/2022@16:28:42","Mozilla/5.0 (Windows NT 10.0; Win64; x64) AppleWebKit/537.36 (KHTML, like Gecko) Chrome/99.0.4844.74 Safari/537.36",1280,720,1144,641,"main",1652093,241,295,23,"HM","relative_first","relative","Moderate","Harder than Reference","D","j","riskyDeck","safeDeck",0,14,7,"left",1,0,46,"present","riskyDeck",988,1934,-1,0
"2entcks231w",1205.32131147541,819.249806288374,13597,"21/03/2022@16:28:42","Mozilla/5.0 (Windows NT 10.0; Win64; x64) AppleWebKit/537.36 (KHTML, like Gecko) Chrome/99.0.4844.74 Safari/537.36",1280,720,1144,641,"main",1652093,242,295,23,"HE","relative_first","relative","Extreme","Harder than Reference","D","k","riskyDeck","safeDeck",28,0,14,"left",1,0,32,"absent","riskyDeck",1269,2571,-1,0
"2entcks231w",1205.32131147541,819.249806288374,13597,"21/03/2022@16:28:42","Mozilla/5.0 (Windows NT 10.0; Win64; x64) AppleWebKit/537.36 (KHTML, like Gecko) Chrome/99.0.4844.74 Safari/537.36",1280,720,1144,641,"main",1652093,243,295,23,"EM","relative_first","relative","Moderate","Easier than Reference","D","j","safeDeck","riskyDeck",-28,0,-14,"left",0,0,18,"present","safeDeck",794,1164,-1,1
"2entcks231w",1205.32131147541,819.249806288374,13597,"21/03/2022@16:28:42","Mozilla/5.0 (Windows NT 10.0; Win64; x64) AppleWebKit/537.36 (KHTML, like Gecko) Chrome/99.0.4844.74 Safari/537.36",1280,720,1144,641,"main",1652093,244,295,23,"EE","relative_first","relative","Extreme","Easier than Reference","F","j","riskyDeck","safeDeck",-14,0,-7,"right",0,0,25,"present","safeDeck",1791,820,1,1
"2entcks231w",1205.32131147541,819.249806288374,13597,"21/03/2022@16:28:42","Mozilla/5.0 (Windows NT 10.0; Win64; x64) AppleWebKit/537.36 (KHTML, like Gecko) Chrome/99.0.4844.74 Safari/537.36",1280,720,1144,641,"main",1652093,245,295,23,"EM","relative_first","relative","Moderate","Easier than Reference","F","k","riskyDeck","safeDeck",-28,0,-14,"right",0,0,18,"absent","safeDeck",1553,1550,1,1
"2entcks231w",1205.32131147541,819.249806288374,13597,"21/03/2022@16:28:42","Mozilla/5.0 (Windows NT 10.0; Win64; x64) AppleWebKit/537.36 (KHTML, like Gecko) Chrome/99.0.4844.74 Safari/537.36",1280,720,1144,641,"main",1652093,246,295,24,"HE","relative_first","relative","Extreme","Harder than Reference","D","k","riskyDeck","safeDeck",0,28,14,"left",1,1,32,"present","riskyDeck",636,1559,-1,0
"2entcks231w",1205.32131147541,819.249806288374,13597,"21/03/2022@16:28:42","Mozilla/5.0 (Windows NT 10.0; Win64; x64) AppleWebKit/537.36 (KHTML, like Gecko) Chrome/99.0.4844.74 Safari/537.36",1280,720,1144,641,"main",1652093,247,295,24,"EE","relative_first","relative","Extreme","Easier than Reference","D","j","safeDeck","riskyDeck",-14,0,-7,"left",0,0,25,"present","safeDeck",1760,1150,-1,1
"2entcks231w",1205.32131147541,819.249806288374,13597,"21/03/2022@16:28:42","Mozilla/5.0 (Windows NT 10.0; Win64; x64) AppleWebKit/537.36 (KHTML, like Gecko) Chrome/99.0.4844.74 Safari/537.36",1280,720,1144,641,"main",1652093,248,295,24,"HM","relative_first","relative","Moderate","Harder than Reference","F","k","safeDeck","riskyDeck",0,14,7,"right",1,0,32,"absent","riskyDeck",617,2067,1,0
"2entcks231w",1205.32131147541,819.249806288374,13597,"21/03/2022@16:28:42","Mozilla/5.0 (Windows NT 10.0; Win64; x64) AppleWebKit/537.36 (KHTML, like Gecko) Chrome/99.0.4844.74 Safari/537.36",1280,720,1144,641,"main",1652093,249,295,24,"EM","relative_first","relative","Moderate","Easier than Reference","D","k","safeDeck","riskyDeck",0,-28,-14,"left",0,0,18,"absent","safeDeck",1094,1325,-1,1
"2entcks231w",1205.32131147541,819.249806288374,13597,"21/03/2022@16:28:42","Mozilla/5.0 (Windows NT 10.0; Win64; x64) AppleWebKit/537.36 (KHTML, like Gecko) Chrome/99.0.4844.74 Safari/537.36",1280,720,1144,641,"main",1652093,250,295,24,"HE","relative_first","relative","Extreme","Harder than Reference","F","k","riskyDeck","safeDeck",0,28,14,"right",0,0,46,"absent","safeDeck",870,2088,1,1
"2entcks231w",1205.32131147541,819.249806288374,13597,"21/03/2022@16:28:42","Mozilla/5.0 (Windows NT 10.0; Win64; x64) AppleWebKit/537.36 (KHTML, like Gecko) Chrome/99.0.4844.74 Safari/537.36",1280,720,1144,641,"main",1652093,251,295,24,"EE","relative_first","relative","Extreme","Easier than Reference","D","k","riskyDeck","safeDeck",-14,0,-7,"left",1,0,32,"absent","riskyDeck",830,1815,-1,0
"2entcks231w",1205.32131147541,819.249806288374,13597,"21/03/2022@16:28:42","Mozilla/5.0 (Windows NT 10.0; Win64; x64) AppleWebKit/537.36 (KHTML, like Gecko) Chrome/99.0.4844.74 Safari/537.36",1280,720,1144,641,"main",1652093,252,295,24,"HM","relative_first","relative","Moderate","Harder than Reference","F","k","safeDeck","riskyDeck",0,14,7,"right",1,0,46,"absent","riskyDeck",726,1621,1,0
"2entcks231w",1205.32131147541,819.249806288374,13597,"21/03/2022@16:28:42","Mozilla/5.0 (Windows NT 10.0; Win64; x64) AppleWebKit/537.36 (KHTML, like Gecko) Chrome/99.0.4844.74 Safari/537.36",1280,720,1144,641,"main",1652093,253,295,24,"HM","relative_first","relative","Moderate","Harder than Reference","D","j","safeDeck","riskyDeck",14,0,7,"left",0,0,39,"present","safeDeck",578,655,-1,1
"2entcks231w",1205.32131147541,819.249806288374,13597,"21/03/2022@16:28:42","Mozilla/5.0 (Windows NT 10.0; Win64; x64) AppleWebKit/537.36 (KHTML, like Gecko) Chrome/99.0.4844.74 Safari/537.36",1280,720,1144,641,"main",1652093,254,296,24,"EE","relative_first","relative","Extreme","Easier than Reference","D","j","safeDeck","riskyDeck",-14,0,-7,"left",0,0,25,"present","safeDeck",557,1327,-1,1
"2entcks231w",1205.32131147541,819.249806288374,13597,"21/03/2022@16:28:42","Mozilla/5.0 (Windows NT 10.0; Win64; x64) AppleWebKit/537.36 (KHTML, like Gecko) Chrome/99.0.4844.74 Safari/537.36",1280,720,1144,641,"main",1652093,255,296,24,"EM","relative_first","relative","Moderate","Easier than Reference","D","k","riskyDeck","safeDeck",-28,0,-14,"left",1,1,32,"present","riskyDeck",1013,617,-1,0
"2entcks231w",1205.32131147541,819.249806288374,13597,"21/03/2022@16:28:42","Mozilla/5.0 (Windows NT 10.0; Win64; x64) AppleWebKit/537.36 (KHTML, like Gecko) Chrome/99.0.4844.74 Safari/537.36",1280,720,1144,641,"main",1652093,256,296,24,"HE","relative_first","relative","Extreme","Harder than Reference","D","j","riskyDeck","safeDeck",28,0,14,"left",1,0,60,"present","riskyDeck",1509,1274,-1,0
"2entcks231w",1205.32131147541,819.249806288374,13597,"21/03/2022@16:28:42","Mozilla/5.0 (Windows NT 10.0; Win64; x64) AppleWebKit/537.36 (KHTML, like Gecko) Chrome/99.0.4844.74 Safari/537.36",1280,720,1144,641,"main",1652093,257,296,24,"EM","relative_first","relative","Moderate","Easier than Reference","D","k","riskyDeck","safeDeck",-28,0,-14,"left",1,0,32,"absent","riskyDeck",547,2422,-1,0
"2entcks231w",1205.32131147541,819.249806288374,13597,"21/03/2022@16:28:42","Mozilla/5.0 (Windows NT 10.0; Win64; x64) AppleWebKit/537.36 (KHTML, like Gecko) Chrome/99.0.4844.74 Safari/537.36",1280,720,1144,641,"main",1652093,258,296,24,"EE","relative_first","relative","Extreme","Easier than Reference","D","j","safeDeck","riskyDeck",0,-14,-7,"left",0,0,25,"present","safeDeck",738,1066,-1,1
"2entcks231w",1205.32131147541,819.249806288374,13597,"21/03/2022@16:28:42","Mozilla/5.0 (Windows NT 10.0; Win64; x64) AppleWebKit/537.36 (KHTML, like Gecko) Chrome/99.0.4844.74 Safari/537.36",1280,720,1144,641,"main",1652093,259,296,24,"HM","relative_first","relative","Moderate","Harder than Reference","D","j","riskyDeck","safeDeck",14,0,7,"left",1,0,32,"present","riskyDeck",714,1224,-1,0
"2entcks231w",1205.32131147541,819.249806288374,13597,"21/03/2022@16:28:42","Mozilla/5.0 (Windows NT 10.0; Win64; x64) AppleWebKit/537.36 (KHTML, like Gecko) Chrome/99.0.4844.74 Safari/537.36",1280,720,1144,641,"main",1652093,260,296,25,"HE","relative_first","relative","Extreme","Harder than Reference","D","k","riskyDeck","safeDeck",0,28,14,"left",1,0,60,"absent","riskyDeck",1293,2565,-1,0
"2entcks231w",1205.32131147541,819.249806288374,13597,"21/03/2022@16:28:42","Mozilla/5.0 (Windows NT 10.0; Win64; x64) AppleWebKit/537.36 (KHTML, like Gecko) Chrome/99.0.4844.74 Safari/537.36",1280,720,1144,641,"main",1652093,261,296,25,"EE","relative_first","relative","Extreme","Easier than Reference","D","k","safeDeck","riskyDeck",0,-14,-7,"left",0,0,25,"absent","safeDeck",1376,1353,-1,1
"2entcks231w",1205.32131147541,819.249806288374,13597,"21/03/2022@16:28:42","Mozilla/5.0 (Windows NT 10.0; Win64; x64) AppleWebKit/537.36 (KHTML, like Gecko) Chrome/99.0.4844.74 Safari/537.36",1280,720,1144,641,"main",1652093,262,296,25,"EM","relative_first","relative","Moderate","Easier than Reference","D","j","safeDeck","riskyDeck",0,-28,-14,"left",0,0,18,"present","safeDeck",530,618,-1,1
"2entcks231w",1205.32131147541,819.249806288374,13597,"21/03/2022@16:28:42","Mozilla/5.0 (Windows NT 10.0; Win64; x64) AppleWebKit/537.36 (KHTML, like Gecko) Chrome/99.0.4844.74 Safari/537.36",1280,720,1144,641,"main",1652093,263,296,25,"HE","relative_first","relative","Extreme","Harder than Reference","D","j","riskyDeck","safeDeck",28,0,14,"left",1,0,60,"present","riskyDeck",1060,1108,-1,0
"2entcks231w",1205.32131147541,819.249806288374,13597,"21/03/2022@16:28:42","Mozilla/5.0 (Windows NT 10.0; Win64; x64) AppleWebKit/537.36 (KHTML, like Gecko) Chrome/99.0.4844.74 Safari/537.36",1280,720,1144,641,"main",1652093,264,296,25,"HM","relative_first","relative","Moderate","Harder than Reference","D","j","safeDeck","riskyDeck",14,0,7,"left",0,0,39,"present","safeDeck",856,639,-1,1
"2entcks231w",1205.32131147541,819.249806288374,13597,"21/03/2022@16:28:42","Mozilla/5.0 (Windows NT 10.0; Win64; x64) AppleWebKit/537.36 (KHTML, like Gecko) Chrome/99.0.4844.74 Safari/537.36",1280,720,1144,641,"main",1652093,265,296,25,"HM","relative_first","relative","Moderate","Harder than Reference","D","j","safeDeck","riskyDeck",14,0,7,"left",0,0,39,"present","safeDeck",1207,1292,-1,1
"2entcks231w",1205.32131147541,819.249806288374,13597,"21/03/2022@16:28:42","Mozilla/5.0 (Windows NT 10.0; Win64; x64) AppleWebKit/537.36 (KHTML, like Gecko) Chrome/99.0.4844.74 Safari/537.36",1280,720,1144,641,"main",1652093,266,296,25,"HE","relative_first","relative","Extreme","Harder than Reference","D","k","riskyDeck","safeDeck",28,0,14,"left",1,0,32,"absent","riskyDeck",808,1961,-1,0
