subject,sona_id,curTime,userAgent,screenWidth,screenHeight,windowWidth,windowHeight,phase,phase_run_time,choice_trial,search_trial,exp_runtime_mins,phase_runtime_mins,condition,magnitude,direction,choice_response_key,search_response_key,left_deck_id,right_deck_id,risky_deck_outcome_top,risky_deck_outcome_bottom,safe_deck_outcome,selected_deck_location,selectedRiskyDeck,error,n_stimuli,present_or_absent,chosenDeckId,choice_rt,search_rt
vhxtg6u2wr,13502,04/04/2022@15:36:25,"Mozilla/5.0 (Macintosh; Intel Mac OS X 10_15_7) AppleWebKit/537.36 (KHTML, like Gecko) Chrome/99.0.4844.83 Safari/537.36",1440,900,1440,789,main,1535329,1,1,5,3,EE,Extreme,Easier than Reference,D,k,riskyDeck,safeDeck,-14,0,-7,left,1,0,18,absent,riskyDeck,3492,6256
vhxtg6u2wr,13502,04/04/2022@15:36:25,"Mozilla/5.0 (Macintosh; Intel Mac OS X 10_15_7) AppleWebKit/537.36 (KHTML, like Gecko) Chrome/99.0.4844.83 Safari/537.36",1440,900,1440,789,main,1535329,1,2,5,3,EE,Extreme,Easier than Reference,D,k,riskyDeck,safeDeck,-14,0,-7,left,1,0,18,absent,riskyDeck,3492,6019
vhxtg6u2wr,13502,04/04/2022@15:36:25,"Mozilla/5.0 (Macintosh; Intel Mac OS X 10_15_7) AppleWebKit/537.36 (KHTML, like Gecko) Chrome/99.0.4844.83 Safari/537.36",1440,900,1440,789,main,1535329,1,3,5,3,EE,Extreme,Easier than Reference,D,k,riskyDeck,safeDeck,-14,0,-7,left,1,0,18,absent,riskyDeck,3492,2025
vhxtg6u2wr,13502,04/04/2022@15:36:25,"Mozilla/5.0 (Macintosh; Intel Mac OS X 10_15_7) AppleWebKit/537.36 (KHTML, like Gecko) Chrome/99.0.4844.83 Safari/537.36",1440,900,1440,789,main,1535329,1,4,5,3,EE,Extreme,Easier than Reference,D,j,riskyDeck,safeDeck,-14,0,-7,left,1,0,18,present,riskyDeck,3492,1310
vhxtg6u2wr,13502,04/04/2022@15:36:25,"Mozilla/5.0 (Macintosh; Intel Mac OS X 10_15_7) AppleWebKit/537.36 (KHTML, like Gecko) Chrome/99.0.4844.83 Safari/537.36",1440,900,1440,789,main,1535329,1,5,5,3,EE,Extreme,Easier than Reference,D,j,riskyDeck,safeDeck,-14,0,-7,left,1,0,18,present,riskyDeck,3492,1469
vhxtg6u2wr,13502,04/04/2022@15:36:25,"Mozilla/5.0 (Macintosh; Intel Mac OS X 10_15_7) AppleWebKit/537.36 (KHTML, like Gecko) Chrome/99.0.4844.83 Safari/537.36",1440,900,1440,789,main,1535329,1,6,5,3,EE,Extreme,Easier than Reference,D,j,riskyDeck,safeDeck,-14,0,-7,left,1,0,18,present,riskyDeck,3492,2994
vhxtg6u2wr,13502,04/04/2022@15:36:25,"Mozilla/5.0 (Macintosh; Intel Mac OS X 10_15_7) AppleWebKit/537.36 (KHTML, like Gecko) Chrome/99.0.4844.83 Safari/537.36",1440,900,1440,789,main,1535329,1,7,5,3,EE,Extreme,Easier than Reference,D,j,riskyDeck,safeDeck,-14,0,-7,left,1,0,18,present,riskyDeck,3492,1049
vhxtg6u2wr,13502,04/04/2022@15:36:25,"Mozilla/5.0 (Macintosh; Intel Mac OS X 10_15_7) AppleWebKit/537.36 (KHTML, like Gecko) Chrome/99.0.4844.83 Safari/537.36",1440,900,1440,789,main,1535329,1,8,5,3,EE,Extreme,Easier than Reference,D,j,riskyDeck,safeDeck,-14,0,-7,left,1,0,18,present,riskyDeck,3492,4921
vhxtg6u2wr,13502,04/04/2022@15:36:25,"Mozilla/5.0 (Macintosh; Intel Mac OS X 10_15_7) AppleWebKit/537.36 (KHTML, like Gecko) Chrome/99.0.4844.83 Safari/537.36",1440,900,1440,789,main,1535329,1,9,5,3,EE,Extreme,Easier than Reference,D,j,riskyDeck,safeDeck,-14,0,-7,left,1,0,18,present,riskyDeck,3492,1755
vhxtg6u2wr,13502,04/04/2022@15:36:25,"Mozilla/5.0 (Macintosh; Intel Mac OS X 10_15_7) AppleWebKit/537.36 (KHTML, like Gecko) Chrome/99.0.4844.83 Safari/537.36",1440,900,1440,789,main,1535329,2,1,6,3,HM,Moderate,Harder than Reference,F,j,riskyDeck,safeDeck,14,0,7,right,0,0,39,present,safeDeck,3879,9860
vhxtg6u2wr,13502,04/04/2022@15:36:25,"Mozilla/5.0 (Macintosh; Intel Mac OS X 10_15_7) AppleWebKit/537.36 (KHTML, like Gecko) Chrome/99.0.4844.83 Safari/537.36",1440,900,1440,789,main,1535329,2,2,6,3,HM,Moderate,Harder than Reference,F,k,riskyDeck,safeDeck,14,0,7,right,0,0,39,absent,safeDeck,3879,8277
vhxtg6u2wr,13502,04/04/2022@15:36:25,"Mozilla/5.0 (Macintosh; Intel Mac OS X 10_15_7) AppleWebKit/537.36 (KHTML, like Gecko) Chrome/99.0.4844.83 Safari/537.36",1440,900,1440,789,main,1535329,2,3,6,4,HM,Moderate,Harder than Reference,F,j,riskyDeck,safeDeck,14,0,7,right,0,0,39,present,safeDeck,3879,2258
vhxtg6u2wr,13502,04/04/2022@15:36:25,"Mozilla/5.0 (Macintosh; Intel Mac OS X 10_15_7) AppleWebKit/537.36 (KHTML, like Gecko) Chrome/99.0.4844.83 Safari/537.36",1440,900,1440,789,main,1535329,2,4,6,4,HM,Moderate,Harder than Reference,F,j,riskyDeck,safeDeck,14,0,7,right,0,0,39,present,safeDeck,3879,5416
vhxtg6u2wr,13502,04/04/2022@15:36:25,"Mozilla/5.0 (Macintosh; Intel Mac OS X 10_15_7) AppleWebKit/537.36 (KHTML, like Gecko) Chrome/99.0.4844.83 Safari/537.36",1440,900,1440,789,main,1535329,2,5,6,4,HM,Moderate,Harder than Reference,F,k,riskyDeck,safeDeck,14,0,7,right,0,0,39,absent,safeDeck,3879,9079
vhxtg6u2wr,13502,04/04/2022@15:36:25,"Mozilla/5.0 (Macintosh; Intel Mac OS X 10_15_7) AppleWebKit/537.36 (KHTML, like Gecko) Chrome/99.0.4844.83 Safari/537.36",1440,900,1440,789,main,1535329,2,6,6,4,HM,Moderate,Harder than Reference,F,k,riskyDeck,safeDeck,14,0,7,right,0,0,39,absent,safeDeck,3879,4620
vhxtg6u2wr,13502,04/04/2022@15:36:25,"Mozilla/5.0 (Macintosh; Intel Mac OS X 10_15_7) AppleWebKit/537.36 (KHTML, like Gecko) Chrome/99.0.4844.83 Safari/537.36",1440,900,1440,789,main,1535329,2,7,6,4,HM,Moderate,Harder than Reference,F,j,riskyDeck,safeDeck,14,0,7,right,0,0,39,present,safeDeck,3879,3234
vhxtg6u2wr,13502,04/04/2022@15:36:25,"Mozilla/5.0 (Macintosh; Intel Mac OS X 10_15_7) AppleWebKit/537.36 (KHTML, like Gecko) Chrome/99.0.4844.83 Safari/537.36",1440,900,1440,789,main,1535329,2,8,6,4,HM,Moderate,Harder than Reference,F,j,riskyDeck,safeDeck,14,0,7,right,0,0,39,present,safeDeck,3879,3533
vhxtg6u2wr,13502,04/04/2022@15:36:25,"Mozilla/5.0 (Macintosh; Intel Mac OS X 10_15_7) AppleWebKit/537.36 (KHTML, like Gecko) Chrome/99.0.4844.83 Safari/537.36",1440,900,1440,789,main,1535329,2,9,6,4,HM,Moderate,Harder than Reference,F,k,riskyDeck,safeDeck,14,0,7,right,0,1,39,present,safeDeck,3879,4788
vhxtg6u2wr,13502,04/04/2022@15:36:25,"Mozilla/5.0 (Macintosh; Intel Mac OS X 10_15_7) AppleWebKit/537.36 (KHTML, like Gecko) Chrome/99.0.4844.83 Safari/537.36",1440,900,1440,789,main,1535329,3,1,7,4,HE,Extreme,Harder than Reference,D,k,riskyDeck,safeDeck,28,0,14,left,1,0,32,absent,riskyDeck,2507,3383
vhxtg6u2wr,13502,04/04/2022@15:36:25,"Mozilla/5.0 (Macintosh; Intel Mac OS X 10_15_7) AppleWebKit/537.36 (KHTML, like Gecko) Chrome/99.0.4844.83 Safari/537.36",1440,900,1440,789,main,1535329,3,2,7,4,HE,Extreme,Harder than Reference,D,k,riskyDeck,safeDeck,28,0,14,left,1,0,32,absent,riskyDeck,2507,3585
vhxtg6u2wr,13502,04/04/2022@15:36:25,"Mozilla/5.0 (Macintosh; Intel Mac OS X 10_15_7) AppleWebKit/537.36 (KHTML, like Gecko) Chrome/99.0.4844.83 Safari/537.36",1440,900,1440,789,main,1535329,3,3,7,4,HE,Extreme,Harder than Reference,D,k,riskyDeck,safeDeck,28,0,14,left,1,0,32,absent,riskyDeck,2507,4334
vhxtg6u2wr,13502,04/04/2022@15:36:25,"Mozilla/5.0 (Macintosh; Intel Mac OS X 10_15_7) AppleWebKit/537.36 (KHTML, like Gecko) Chrome/99.0.4844.83 Safari/537.36",1440,900,1440,789,main,1535329,3,4,7,4,HE,Extreme,Harder than Reference,D,k,riskyDeck,safeDeck,28,0,14,left,1,0,32,absent,riskyDeck,2507,5826
vhxtg6u2wr,13502,04/04/2022@15:36:25,"Mozilla/5.0 (Macintosh; Intel Mac OS X 10_15_7) AppleWebKit/537.36 (KHTML, like Gecko) Chrome/99.0.4844.83 Safari/537.36",1440,900,1440,789,main,1535329,3,5,7,4,HE,Extreme,Harder than Reference,D,j,riskyDeck,safeDeck,28,0,14,left,1,0,32,present,riskyDeck,2507,1551
vhxtg6u2wr,13502,04/04/2022@15:36:25,"Mozilla/5.0 (Macintosh; Intel Mac OS X 10_15_7) AppleWebKit/537.36 (KHTML, like Gecko) Chrome/99.0.4844.83 Safari/537.36",1440,900,1440,789,main,1535329,3,6,7,5,HE,Extreme,Harder than Reference,D,j,riskyDeck,safeDeck,28,0,14,left,1,1,32,absent,riskyDeck,2507,5103
vhxtg6u2wr,13502,04/04/2022@15:36:25,"Mozilla/5.0 (Macintosh; Intel Mac OS X 10_15_7) AppleWebKit/537.36 (KHTML, like Gecko) Chrome/99.0.4844.83 Safari/537.36",1440,900,1440,789,main,1535329,3,7,7,5,HE,Extreme,Harder than Reference,D,k,riskyDeck,safeDeck,28,0,14,left,1,0,32,absent,riskyDeck,2507,5202
vhxtg6u2wr,13502,04/04/2022@15:36:25,"Mozilla/5.0 (Macintosh; Intel Mac OS X 10_15_7) AppleWebKit/537.36 (KHTML, like Gecko) Chrome/99.0.4844.83 Safari/537.36",1440,900,1440,789,main,1535329,3,8,7,5,HE,Extreme,Harder than Reference,D,k,riskyDeck,safeDeck,28,0,14,left,1,1,32,present,riskyDeck,2507,4308
vhxtg6u2wr,13502,04/04/2022@15:36:25,"Mozilla/5.0 (Macintosh; Intel Mac OS X 10_15_7) AppleWebKit/537.36 (KHTML, like Gecko) Chrome/99.0.4844.83 Safari/537.36",1440,900,1440,789,main,1535329,3,9,7,5,HE,Extreme,Harder than Reference,D,k,riskyDeck,safeDeck,28,0,14,left,1,0,32,absent,riskyDeck,2507,3011
vhxtg6u2wr,13502,04/04/2022@15:36:25,"Mozilla/5.0 (Macintosh; Intel Mac OS X 10_15_7) AppleWebKit/537.36 (KHTML, like Gecko) Chrome/99.0.4844.83 Safari/537.36",1440,900,1440,789,main,1535329,4,1,7,5,EM,Moderate,Easier than Reference,D,k,riskyDeck,safeDeck,0,-28,-14,left,1,0,32,absent,riskyDeck,3188,6469
vhxtg6u2wr,13502,04/04/2022@15:36:25,"Mozilla/5.0 (Macintosh; Intel Mac OS X 10_15_7) AppleWebKit/537.36 (KHTML, like Gecko) Chrome/99.0.4844.83 Safari/537.36",1440,900,1440,789,main,1535329,4,2,8,5,EM,Moderate,Easier than Reference,D,j,riskyDeck,safeDeck,0,-28,-14,left,1,0,32,present,riskyDeck,3188,5916
vhxtg6u2wr,13502,04/04/2022@15:36:25,"Mozilla/5.0 (Macintosh; Intel Mac OS X 10_15_7) AppleWebKit/537.36 (KHTML, like Gecko) Chrome/99.0.4844.83 Safari/537.36",1440,900,1440,789,main,1535329,4,3,8,5,EM,Moderate,Easier than Reference,D,k,riskyDeck,safeDeck,0,-28,-14,left,1,0,32,absent,riskyDeck,3188,8203
vhxtg6u2wr,13502,04/04/2022@15:36:25,"Mozilla/5.0 (Macintosh; Intel Mac OS X 10_15_7) AppleWebKit/537.36 (KHTML, like Gecko) Chrome/99.0.4844.83 Safari/537.36",1440,900,1440,789,main,1535329,4,4,8,5,EM,Moderate,Easier than Reference,D,k,riskyDeck,safeDeck,0,-28,-14,left,1,0,32,absent,riskyDeck,3188,5352
vhxtg6u2wr,13502,04/04/2022@15:36:25,"Mozilla/5.0 (Macintosh; Intel Mac OS X 10_15_7) AppleWebKit/537.36 (KHTML, like Gecko) Chrome/99.0.4844.83 Safari/537.36",1440,900,1440,789,main,1535329,4,5,8,5,EM,Moderate,Easier than Reference,D,k,riskyDeck,safeDeck,0,-28,-14,left,1,0,32,absent,riskyDeck,3188,4661
vhxtg6u2wr,13502,04/04/2022@15:36:25,"Mozilla/5.0 (Macintosh; Intel Mac OS X 10_15_7) AppleWebKit/537.36 (KHTML, like Gecko) Chrome/99.0.4844.83 Safari/537.36",1440,900,1440,789,main,1535329,4,6,8,6,EM,Moderate,Easier than Reference,D,k,riskyDeck,safeDeck,0,-28,-14,left,1,0,32,absent,riskyDeck,3188,7321
vhxtg6u2wr,13502,04/04/2022@15:36:25,"Mozilla/5.0 (Macintosh; Intel Mac OS X 10_15_7) AppleWebKit/537.36 (KHTML, like Gecko) Chrome/99.0.4844.83 Safari/537.36",1440,900,1440,789,main,1535329,4,7,8,6,EM,Moderate,Easier than Reference,D,j,riskyDeck,safeDeck,0,-28,-14,left,1,0,32,present,riskyDeck,3188,4944
vhxtg6u2wr,13502,04/04/2022@15:36:25,"Mozilla/5.0 (Macintosh; Intel Mac OS X 10_15_7) AppleWebKit/537.36 (KHTML, like Gecko) Chrome/99.0.4844.83 Safari/537.36",1440,900,1440,789,main,1535329,4,8,8,6,EM,Moderate,Easier than Reference,D,k,riskyDeck,safeDeck,0,-28,-14,left,1,0,32,absent,riskyDeck,3188,6109
vhxtg6u2wr,13502,04/04/2022@15:36:25,"Mozilla/5.0 (Macintosh; Intel Mac OS X 10_15_7) AppleWebKit/537.36 (KHTML, like Gecko) Chrome/99.0.4844.83 Safari/537.36",1440,900,1440,789,main,1535329,4,9,8,6,EM,Moderate,Easier than Reference,D,j,riskyDeck,safeDeck,0,-28,-14,left,1,0,32,present,riskyDeck,3188,2301
vhxtg6u2wr,13502,04/04/2022@15:36:25,"Mozilla/5.0 (Macintosh; Intel Mac OS X 10_15_7) AppleWebKit/537.36 (KHTML, like Gecko) Chrome/99.0.4844.83 Safari/537.36",1440,900,1440,789,main,1535329,5,1,8,6,EE,Extreme,Easier than Reference,F,j,safeDeck,riskyDeck,0,-14,-7,right,1,0,32,present,riskyDeck,5298,4464
vhxtg6u2wr,13502,04/04/2022@15:36:25,"Mozilla/5.0 (Macintosh; Intel Mac OS X 10_15_7) AppleWebKit/537.36 (KHTML, like Gecko) Chrome/99.0.4844.83 Safari/537.36",1440,900,1440,789,main,1535329,5,2,9,6,EE,Extreme,Easier than Reference,F,k,safeDeck,riskyDeck,0,-14,-7,right,1,0,32,absent,riskyDeck,5298,3513
vhxtg6u2wr,13502,04/04/2022@15:36:25,"Mozilla/5.0 (Macintosh; Intel Mac OS X 10_15_7) AppleWebKit/537.36 (KHTML, like Gecko) Chrome/99.0.4844.83 Safari/537.36",1440,900,1440,789,main,1535329,5,3,9,6,EE,Extreme,Easier than Reference,F,k,safeDeck,riskyDeck,0,-14,-7,right,1,0,32,absent,riskyDeck,5298,4948
vhxtg6u2wr,13502,04/04/2022@15:36:25,"Mozilla/5.0 (Macintosh; Intel Mac OS X 10_15_7) AppleWebKit/537.36 (KHTML, like Gecko) Chrome/99.0.4844.83 Safari/537.36",1440,900,1440,789,main,1535329,5,4,9,6,EE,Extreme,Easier than Reference,F,j,safeDeck,riskyDeck,0,-14,-7,right,1,0,32,present,riskyDeck,5298,3142
vhxtg6u2wr,13502,04/04/2022@15:36:25,"Mozilla/5.0 (Macintosh; Intel Mac OS X 10_15_7) AppleWebKit/537.36 (KHTML, like Gecko) Chrome/99.0.4844.83 Safari/537.36",1440,900,1440,789,main,1535329,5,5,9,6,EE,Extreme,Easier than Reference,F,j,safeDeck,riskyDeck,0,-14,-7,right,1,0,32,present,riskyDeck,5298,2690
vhxtg6u2wr,13502,04/04/2022@15:36:25,"Mozilla/5.0 (Macintosh; Intel Mac OS X 10_15_7) AppleWebKit/537.36 (KHTML, like Gecko) Chrome/99.0.4844.83 Safari/537.36",1440,900,1440,789,main,1535329,5,6,9,6,EE,Extreme,Easier than Reference,F,k,safeDeck,riskyDeck,0,-14,-7,right,1,0,32,absent,riskyDeck,5298,4962
vhxtg6u2wr,13502,04/04/2022@15:36:25,"Mozilla/5.0 (Macintosh; Intel Mac OS X 10_15_7) AppleWebKit/537.36 (KHTML, like Gecko) Chrome/99.0.4844.83 Safari/537.36",1440,900,1440,789,main,1535329,5,7,9,6,EE,Extreme,Easier than Reference,F,k,safeDeck,riskyDeck,0,-14,-7,right,1,0,32,absent,riskyDeck,5298,2840
vhxtg6u2wr,13502,04/04/2022@15:36:25,"Mozilla/5.0 (Macintosh; Intel Mac OS X 10_15_7) AppleWebKit/537.36 (KHTML, like Gecko) Chrome/99.0.4844.83 Safari/537.36",1440,900,1440,789,main,1535329,5,8,9,6,EE,Extreme,Easier than Reference,F,j,safeDeck,riskyDeck,0,-14,-7,right,1,0,32,present,riskyDeck,5298,1232
vhxtg6u2wr,13502,04/04/2022@15:36:25,"Mozilla/5.0 (Macintosh; Intel Mac OS X 10_15_7) AppleWebKit/537.36 (KHTML, like Gecko) Chrome/99.0.4844.83 Safari/537.36",1440,900,1440,789,main,1535329,5,9,9,7,EE,Extreme,Easier than Reference,F,j,safeDeck,riskyDeck,0,-14,-7,right,1,0,32,present,riskyDeck,5298,1714
vhxtg6u2wr,13502,04/04/2022@15:36:25,"Mozilla/5.0 (Macintosh; Intel Mac OS X 10_15_7) AppleWebKit/537.36 (KHTML, like Gecko) Chrome/99.0.4844.83 Safari/537.36",1440,900,1440,789,main,1535329,6,1,9,7,HE,Extreme,Harder than Reference,F,j,safeDeck,riskyDeck,0,28,14,right,1,0,32,present,riskyDeck,3050,1343
vhxtg6u2wr,13502,04/04/2022@15:36:25,"Mozilla/5.0 (Macintosh; Intel Mac OS X 10_15_7) AppleWebKit/537.36 (KHTML, like Gecko) Chrome/99.0.4844.83 Safari/537.36",1440,900,1440,789,main,1535329,6,2,9,7,HE,Extreme,Harder than Reference,F,k,safeDeck,riskyDeck,0,28,14,right,1,0,32,absent,riskyDeck,3050,4639
vhxtg6u2wr,13502,04/04/2022@15:36:25,"Mozilla/5.0 (Macintosh; Intel Mac OS X 10_15_7) AppleWebKit/537.36 (KHTML, like Gecko) Chrome/99.0.4844.83 Safari/537.36",1440,900,1440,789,main,1535329,6,3,9,7,HE,Extreme,Harder than Reference,F,j,safeDeck,riskyDeck,0,28,14,right,1,0,32,present,riskyDeck,3050,4407
vhxtg6u2wr,13502,04/04/2022@15:36:25,"Mozilla/5.0 (Macintosh; Intel Mac OS X 10_15_7) AppleWebKit/537.36 (KHTML, like Gecko) Chrome/99.0.4844.83 Safari/537.36",1440,900,1440,789,main,1535329,6,4,9,7,HE,Extreme,Harder than Reference,F,k,safeDeck,riskyDeck,0,28,14,right,1,0,32,absent,riskyDeck,3050,5457
vhxtg6u2wr,13502,04/04/2022@15:36:25,"Mozilla/5.0 (Macintosh; Intel Mac OS X 10_15_7) AppleWebKit/537.36 (KHTML, like Gecko) Chrome/99.0.4844.83 Safari/537.36",1440,900,1440,789,main,1535329,6,5,9,7,HE,Extreme,Harder than Reference,F,j,safeDeck,riskyDeck,0,28,14,right,1,0,32,present,riskyDeck,3050,2240
vhxtg6u2wr,13502,04/04/2022@15:36:25,"Mozilla/5.0 (Macintosh; Intel Mac OS X 10_15_7) AppleWebKit/537.36 (KHTML, like Gecko) Chrome/99.0.4844.83 Safari/537.36",1440,900,1440,789,main,1535329,6,6,9,7,HE,Extreme,Harder than Reference,F,j,safeDeck,riskyDeck,0,28,14,right,1,0,32,present,riskyDeck,3050,3067
vhxtg6u2wr,13502,04/04/2022@15:36:25,"Mozilla/5.0 (Macintosh; Intel Mac OS X 10_15_7) AppleWebKit/537.36 (KHTML, like Gecko) Chrome/99.0.4844.83 Safari/537.36",1440,900,1440,789,main,1535329,6,7,9,7,HE,Extreme,Harder than Reference,F,j,safeDeck,riskyDeck,0,28,14,right,1,1,32,absent,riskyDeck,3050,5912
vhxtg6u2wr,13502,04/04/2022@15:36:25,"Mozilla/5.0 (Macintosh; Intel Mac OS X 10_15_7) AppleWebKit/537.36 (KHTML, like Gecko) Chrome/99.0.4844.83 Safari/537.36",1440,900,1440,789,main,1535329,6,8,10,7,HE,Extreme,Harder than Reference,F,k,safeDeck,riskyDeck,0,28,14,right,1,0,32,absent,riskyDeck,3050,3860
vhxtg6u2wr,13502,04/04/2022@15:36:25,"Mozilla/5.0 (Macintosh; Intel Mac OS X 10_15_7) AppleWebKit/537.36 (KHTML, like Gecko) Chrome/99.0.4844.83 Safari/537.36",1440,900,1440,789,main,1535329,6,9,10,7,HE,Extreme,Harder than Reference,F,j,safeDeck,riskyDeck,0,28,14,right,1,0,32,present,riskyDeck,3050,1043
vhxtg6u2wr,13502,04/04/2022@15:36:25,"Mozilla/5.0 (Macintosh; Intel Mac OS X 10_15_7) AppleWebKit/537.36 (KHTML, like Gecko) Chrome/99.0.4844.83 Safari/537.36",1440,900,1440,789,main,1535329,7,1,10,7,EM,Moderate,Easier than Reference,F,j,safeDeck,riskyDeck,-28,0,-14,right,1,0,32,present,riskyDeck,4106,2716
vhxtg6u2wr,13502,04/04/2022@15:36:25,"Mozilla/5.0 (Macintosh; Intel Mac OS X 10_15_7) AppleWebKit/537.36 (KHTML, like Gecko) Chrome/99.0.4844.83 Safari/537.36",1440,900,1440,789,main,1535329,7,2,10,7,EM,Moderate,Easier than Reference,F,j,safeDeck,riskyDeck,-28,0,-14,right,1,0,32,present,riskyDeck,4106,5644
vhxtg6u2wr,13502,04/04/2022@15:36:25,"Mozilla/5.0 (Macintosh; Intel Mac OS X 10_15_7) AppleWebKit/537.36 (KHTML, like Gecko) Chrome/99.0.4844.83 Safari/537.36",1440,900,1440,789,main,1535329,7,3,10,8,EM,Moderate,Easier than Reference,F,j,safeDeck,riskyDeck,-28,0,-14,right,1,0,32,present,riskyDeck,4106,4026
vhxtg6u2wr,13502,04/04/2022@15:36:25,"Mozilla/5.0 (Macintosh; Intel Mac OS X 10_15_7) AppleWebKit/537.36 (KHTML, like Gecko) Chrome/99.0.4844.83 Safari/537.36",1440,900,1440,789,main,1535329,7,4,10,8,EM,Moderate,Easier than Reference,F,j,safeDeck,riskyDeck,-28,0,-14,right,1,0,32,present,riskyDeck,4106,992
vhxtg6u2wr,13502,04/04/2022@15:36:25,"Mozilla/5.0 (Macintosh; Intel Mac OS X 10_15_7) AppleWebKit/537.36 (KHTML, like Gecko) Chrome/99.0.4844.83 Safari/537.36",1440,900,1440,789,main,1535329,7,5,10,8,EM,Moderate,Easier than Reference,F,k,safeDeck,riskyDeck,-28,0,-14,right,1,0,32,absent,riskyDeck,4106,2867
vhxtg6u2wr,13502,04/04/2022@15:36:25,"Mozilla/5.0 (Macintosh; Intel Mac OS X 10_15_7) AppleWebKit/537.36 (KHTML, like Gecko) Chrome/99.0.4844.83 Safari/537.36",1440,900,1440,789,main,1535329,7,6,10,8,EM,Moderate,Easier than Reference,F,j,safeDeck,riskyDeck,-28,0,-14,right,1,0,32,present,riskyDeck,4106,2954
vhxtg6u2wr,13502,04/04/2022@15:36:25,"Mozilla/5.0 (Macintosh; Intel Mac OS X 10_15_7) AppleWebKit/537.36 (KHTML, like Gecko) Chrome/99.0.4844.83 Safari/537.36",1440,900,1440,789,main,1535329,7,7,10,8,EM,Moderate,Easier than Reference,F,k,safeDeck,riskyDeck,-28,0,-14,right,1,0,32,absent,riskyDeck,4106,5592
vhxtg6u2wr,13502,04/04/2022@15:36:25,"Mozilla/5.0 (Macintosh; Intel Mac OS X 10_15_7) AppleWebKit/537.36 (KHTML, like Gecko) Chrome/99.0.4844.83 Safari/537.36",1440,900,1440,789,main,1535329,7,8,10,8,EM,Moderate,Easier than Reference,F,j,safeDeck,riskyDeck,-28,0,-14,right,1,0,32,present,riskyDeck,4106,3821
vhxtg6u2wr,13502,04/04/2022@15:36:25,"Mozilla/5.0 (Macintosh; Intel Mac OS X 10_15_7) AppleWebKit/537.36 (KHTML, like Gecko) Chrome/99.0.4844.83 Safari/537.36",1440,900,1440,789,main,1535329,7,9,10,8,EM,Moderate,Easier than Reference,F,j,safeDeck,riskyDeck,-28,0,-14,right,1,0,32,present,riskyDeck,4106,4045
vhxtg6u2wr,13502,04/04/2022@15:36:25,"Mozilla/5.0 (Macintosh; Intel Mac OS X 10_15_7) AppleWebKit/537.36 (KHTML, like Gecko) Chrome/99.0.4844.83 Safari/537.36",1440,900,1440,789,main,1535329,8,1,10,8,HM,Moderate,Harder than Reference,D,k,riskyDeck,safeDeck,14,0,7,left,1,0,46,absent,riskyDeck,3466,6651
vhxtg6u2wr,13502,04/04/2022@15:36:25,"Mozilla/5.0 (Macintosh; Intel Mac OS X 10_15_7) AppleWebKit/537.36 (KHTML, like Gecko) Chrome/99.0.4844.83 Safari/537.36",1440,900,1440,789,main,1535329,8,2,11,8,HM,Moderate,Harder than Reference,D,j,riskyDeck,safeDeck,14,0,7,left,1,0,46,present,riskyDeck,3466,1852
vhxtg6u2wr,13502,04/04/2022@15:36:25,"Mozilla/5.0 (Macintosh; Intel Mac OS X 10_15_7) AppleWebKit/537.36 (KHTML, like Gecko) Chrome/99.0.4844.83 Safari/537.36",1440,900,1440,789,main,1535329,8,3,11,8,HM,Moderate,Harder than Reference,D,j,riskyDeck,safeDeck,14,0,7,left,1,0,46,present,riskyDeck,3466,4184
vhxtg6u2wr,13502,04/04/2022@15:36:25,"Mozilla/5.0 (Macintosh; Intel Mac OS X 10_15_7) AppleWebKit/537.36 (KHTML, like Gecko) Chrome/99.0.4844.83 Safari/537.36",1440,900,1440,789,main,1535329,8,4,11,8,HM,Moderate,Harder than Reference,D,k,riskyDeck,safeDeck,14,0,7,left,1,0,46,absent,riskyDeck,3466,6045
vhxtg6u2wr,13502,04/04/2022@15:36:25,"Mozilla/5.0 (Macintosh; Intel Mac OS X 10_15_7) AppleWebKit/537.36 (KHTML, like Gecko) Chrome/99.0.4844.83 Safari/537.36",1440,900,1440,789,main,1535329,8,5,11,8,HM,Moderate,Harder than Reference,D,j,riskyDeck,safeDeck,14,0,7,left,1,0,46,present,riskyDeck,3466,2514
vhxtg6u2wr,13502,04/04/2022@15:36:25,"Mozilla/5.0 (Macintosh; Intel Mac OS X 10_15_7) AppleWebKit/537.36 (KHTML, like Gecko) Chrome/99.0.4844.83 Safari/537.36",1440,900,1440,789,main,1535329,8,6,11,8,HM,Moderate,Harder than Reference,D,k,riskyDeck,safeDeck,14,0,7,left,1,0,46,absent,riskyDeck,3466,4138
vhxtg6u2wr,13502,04/04/2022@15:36:25,"Mozilla/5.0 (Macintosh; Intel Mac OS X 10_15_7) AppleWebKit/537.36 (KHTML, like Gecko) Chrome/99.0.4844.83 Safari/537.36",1440,900,1440,789,main,1535329,8,7,11,9,HM,Moderate,Harder than Reference,D,k,riskyDeck,safeDeck,14,0,7,left,1,0,46,absent,riskyDeck,3466,5702
vhxtg6u2wr,13502,04/04/2022@15:36:25,"Mozilla/5.0 (Macintosh; Intel Mac OS X 10_15_7) AppleWebKit/537.36 (KHTML, like Gecko) Chrome/99.0.4844.83 Safari/537.36",1440,900,1440,789,main,1535329,8,8,11,9,HM,Moderate,Harder than Reference,D,k,riskyDeck,safeDeck,14,0,7,left,1,1,46,present,riskyDeck,3466,3331
vhxtg6u2wr,13502,04/04/2022@15:36:25,"Mozilla/5.0 (Macintosh; Intel Mac OS X 10_15_7) AppleWebKit/537.36 (KHTML, like Gecko) Chrome/99.0.4844.83 Safari/537.36",1440,900,1440,789,main,1535329,8,9,11,9,HM,Moderate,Harder than Reference,D,k,riskyDeck,safeDeck,14,0,7,left,1,1,46,present,riskyDeck,3466,4402
vhxtg6u2wr,13502,04/04/2022@15:36:25,"Mozilla/5.0 (Macintosh; Intel Mac OS X 10_15_7) AppleWebKit/537.36 (KHTML, like Gecko) Chrome/99.0.4844.83 Safari/537.36",1440,900,1440,789,main,1535329,9,1,11,9,EM,Moderate,Easier than Reference,D,j,safeDeck,riskyDeck,0,-28,-14,left,0,0,18,present,safeDeck,4378,2873
vhxtg6u2wr,13502,04/04/2022@15:36:25,"Mozilla/5.0 (Macintosh; Intel Mac OS X 10_15_7) AppleWebKit/537.36 (KHTML, like Gecko) Chrome/99.0.4844.83 Safari/537.36",1440,900,1440,789,main,1535329,9,2,11,9,EM,Moderate,Easier than Reference,D,j,safeDeck,riskyDeck,0,-28,-14,left,0,0,18,present,safeDeck,4378,3299
vhxtg6u2wr,13502,04/04/2022@15:36:25,"Mozilla/5.0 (Macintosh; Intel Mac OS X 10_15_7) AppleWebKit/537.36 (KHTML, like Gecko) Chrome/99.0.4844.83 Safari/537.36",1440,900,1440,789,main,1535329,9,3,11,9,EM,Moderate,Easier than Reference,D,k,safeDeck,riskyDeck,0,-28,-14,left,0,0,18,absent,safeDeck,4378,3351
vhxtg6u2wr,13502,04/04/2022@15:36:25,"Mozilla/5.0 (Macintosh; Intel Mac OS X 10_15_7) AppleWebKit/537.36 (KHTML, like Gecko) Chrome/99.0.4844.83 Safari/537.36",1440,900,1440,789,main,1535329,9,4,11,9,EM,Moderate,Easier than Reference,D,k,safeDeck,riskyDeck,0,-28,-14,left,0,0,18,absent,safeDeck,4378,2496
vhxtg6u2wr,13502,04/04/2022@15:36:25,"Mozilla/5.0 (Macintosh; Intel Mac OS X 10_15_7) AppleWebKit/537.36 (KHTML, like Gecko) Chrome/99.0.4844.83 Safari/537.36",1440,900,1440,789,main,1535329,9,5,11,9,EM,Moderate,Easier than Reference,D,j,safeDeck,riskyDeck,0,-28,-14,left,0,0,18,present,safeDeck,4378,2421
vhxtg6u2wr,13502,04/04/2022@15:36:25,"Mozilla/5.0 (Macintosh; Intel Mac OS X 10_15_7) AppleWebKit/537.36 (KHTML, like Gecko) Chrome/99.0.4844.83 Safari/537.36",1440,900,1440,789,main,1535329,9,6,12,9,EM,Moderate,Easier than Reference,D,k,safeDeck,riskyDeck,0,-28,-14,left,0,0,18,absent,safeDeck,4378,3174
vhxtg6u2wr,13502,04/04/2022@15:36:25,"Mozilla/5.0 (Macintosh; Intel Mac OS X 10_15_7) AppleWebKit/537.36 (KHTML, like Gecko) Chrome/99.0.4844.83 Safari/537.36",1440,900,1440,789,main,1535329,9,7,12,9,EM,Moderate,Easier than Reference,D,j,safeDeck,riskyDeck,0,-28,-14,left,0,0,18,present,safeDeck,4378,2018
vhxtg6u2wr,13502,04/04/2022@15:36:25,"Mozilla/5.0 (Macintosh; Intel Mac OS X 10_15_7) AppleWebKit/537.36 (KHTML, like Gecko) Chrome/99.0.4844.83 Safari/537.36",1440,900,1440,789,main,1535329,9,8,12,9,EM,Moderate,Easier than Reference,D,k,safeDeck,riskyDeck,0,-28,-14,left,0,0,18,absent,safeDeck,4378,3679
vhxtg6u2wr,13502,04/04/2022@15:36:25,"Mozilla/5.0 (Macintosh; Intel Mac OS X 10_15_7) AppleWebKit/537.36 (KHTML, like Gecko) Chrome/99.0.4844.83 Safari/537.36",1440,900,1440,789,main,1535329,9,9,12,9,EM,Moderate,Easier than Reference,D,j,safeDeck,riskyDeck,0,-28,-14,left,0,0,18,present,safeDeck,4378,1048
vhxtg6u2wr,13502,04/04/2022@15:36:25,"Mozilla/5.0 (Macintosh; Intel Mac OS X 10_15_7) AppleWebKit/537.36 (KHTML, like Gecko) Chrome/99.0.4844.83 Safari/537.36",1440,900,1440,789,main,1535329,10,1,12,9,HE,Extreme,Harder than Reference,F,j,safeDeck,riskyDeck,0,28,14,right,1,0,32,present,riskyDeck,2328,4098
vhxtg6u2wr,13502,04/04/2022@15:36:25,"Mozilla/5.0 (Macintosh; Intel Mac OS X 10_15_7) AppleWebKit/537.36 (KHTML, like Gecko) Chrome/99.0.4844.83 Safari/537.36",1440,900,1440,789,main,1535329,10,2,12,9,HE,Extreme,Harder than Reference,F,j,safeDeck,riskyDeck,0,28,14,right,1,1,32,absent,riskyDeck,2328,4323
vhxtg6u2wr,13502,04/04/2022@15:36:25,"Mozilla/5.0 (Macintosh; Intel Mac OS X 10_15_7) AppleWebKit/537.36 (KHTML, like Gecko) Chrome/99.0.4844.83 Safari/537.36",1440,900,1440,789,main,1535329,10,3,12,10,HE,Extreme,Harder than Reference,F,k,safeDeck,riskyDeck,0,28,14,right,1,0,32,absent,riskyDeck,2328,3293
vhxtg6u2wr,13502,04/04/2022@15:36:25,"Mozilla/5.0 (Macintosh; Intel Mac OS X 10_15_7) AppleWebKit/537.36 (KHTML, like Gecko) Chrome/99.0.4844.83 Safari/537.36",1440,900,1440,789,main,1535329,10,4,12,10,HE,Extreme,Harder than Reference,F,j,safeDeck,riskyDeck,0,28,14,right,1,0,32,present,riskyDeck,2328,2428
vhxtg6u2wr,13502,04/04/2022@15:36:25,"Mozilla/5.0 (Macintosh; Intel Mac OS X 10_15_7) AppleWebKit/537.36 (KHTML, like Gecko) Chrome/99.0.4844.83 Safari/537.36",1440,900,1440,789,main,1535329,10,5,12,10,HE,Extreme,Harder than Reference,F,j,safeDeck,riskyDeck,0,28,14,right,1,0,32,present,riskyDeck,2328,2655
vhxtg6u2wr,13502,04/04/2022@15:36:25,"Mozilla/5.0 (Macintosh; Intel Mac OS X 10_15_7) AppleWebKit/537.36 (KHTML, like Gecko) Chrome/99.0.4844.83 Safari/537.36",1440,900,1440,789,main,1535329,10,6,12,10,HE,Extreme,Harder than Reference,F,k,safeDeck,riskyDeck,0,28,14,right,1,0,32,absent,riskyDeck,2328,5635
vhxtg6u2wr,13502,04/04/2022@15:36:25,"Mozilla/5.0 (Macintosh; Intel Mac OS X 10_15_7) AppleWebKit/537.36 (KHTML, like Gecko) Chrome/99.0.4844.83 Safari/537.36",1440,900,1440,789,main,1535329,10,7,12,10,HE,Extreme,Harder than Reference,F,j,safeDeck,riskyDeck,0,28,14,right,1,0,32,present,riskyDeck,2328,2292
vhxtg6u2wr,13502,04/04/2022@15:36:25,"Mozilla/5.0 (Macintosh; Intel Mac OS X 10_15_7) AppleWebKit/537.36 (KHTML, like Gecko) Chrome/99.0.4844.83 Safari/537.36",1440,900,1440,789,main,1535329,10,8,12,10,HE,Extreme,Harder than Reference,F,j,safeDeck,riskyDeck,0,28,14,right,1,0,32,present,riskyDeck,2328,1380
vhxtg6u2wr,13502,04/04/2022@15:36:25,"Mozilla/5.0 (Macintosh; Intel Mac OS X 10_15_7) AppleWebKit/537.36 (KHTML, like Gecko) Chrome/99.0.4844.83 Safari/537.36",1440,900,1440,789,main,1535329,10,9,12,10,HE,Extreme,Harder than Reference,F,k,safeDeck,riskyDeck,0,28,14,right,1,0,32,absent,riskyDeck,2328,3427
vhxtg6u2wr,13502,04/04/2022@15:36:25,"Mozilla/5.0 (Macintosh; Intel Mac OS X 10_15_7) AppleWebKit/537.36 (KHTML, like Gecko) Chrome/99.0.4844.83 Safari/537.36",1440,900,1440,789,main,1535329,11,1,13,10,HM,Moderate,Harder than Reference,D,k,riskyDeck,safeDeck,14,0,7,left,1,0,46,absent,riskyDeck,3281,6393
vhxtg6u2wr,13502,04/04/2022@15:36:25,"Mozilla/5.0 (Macintosh; Intel Mac OS X 10_15_7) AppleWebKit/537.36 (KHTML, like Gecko) Chrome/99.0.4844.83 Safari/537.36",1440,900,1440,789,main,1535329,11,2,13,10,HM,Moderate,Harder than Reference,D,k,riskyDeck,safeDeck,14,0,7,left,1,1,46,present,riskyDeck,3281,3585
vhxtg6u2wr,13502,04/04/2022@15:36:25,"Mozilla/5.0 (Macintosh; Intel Mac OS X 10_15_7) AppleWebKit/537.36 (KHTML, like Gecko) Chrome/99.0.4844.83 Safari/537.36",1440,900,1440,789,main,1535329,11,3,13,10,HM,Moderate,Harder than Reference,D,k,riskyDeck,safeDeck,14,0,7,left,1,0,46,absent,riskyDeck,3281,5366
vhxtg6u2wr,13502,04/04/2022@15:36:25,"Mozilla/5.0 (Macintosh; Intel Mac OS X 10_15_7) AppleWebKit/537.36 (KHTML, like Gecko) Chrome/99.0.4844.83 Safari/537.36",1440,900,1440,789,main,1535329,11,4,13,11,HM,Moderate,Harder than Reference,D,j,riskyDeck,safeDeck,14,0,7,left,1,0,46,present,riskyDeck,3281,4832
vhxtg6u2wr,13502,04/04/2022@15:36:25,"Mozilla/5.0 (Macintosh; Intel Mac OS X 10_15_7) AppleWebKit/537.36 (KHTML, like Gecko) Chrome/99.0.4844.83 Safari/537.36",1440,900,1440,789,main,1535329,11,5,13,11,HM,Moderate,Harder than Reference,D,j,riskyDeck,safeDeck,14,0,7,left,1,0,46,present,riskyDeck,3281,4236
vhxtg6u2wr,13502,04/04/2022@15:36:25,"Mozilla/5.0 (Macintosh; Intel Mac OS X 10_15_7) AppleWebKit/537.36 (KHTML, like Gecko) Chrome/99.0.4844.83 Safari/537.36",1440,900,1440,789,main,1535329,11,6,13,11,HM,Moderate,Harder than Reference,D,k,riskyDeck,safeDeck,14,0,7,left,1,1,46,present,riskyDeck,3281,4184
vhxtg6u2wr,13502,04/04/2022@15:36:25,"Mozilla/5.0 (Macintosh; Intel Mac OS X 10_15_7) AppleWebKit/537.36 (KHTML, like Gecko) Chrome/99.0.4844.83 Safari/537.36",1440,900,1440,789,main,1535329,11,7,13,11,HM,Moderate,Harder than Reference,D,j,riskyDeck,safeDeck,14,0,7,left,1,0,46,present,riskyDeck,3281,1962
vhxtg6u2wr,13502,04/04/2022@15:36:25,"Mozilla/5.0 (Macintosh; Intel Mac OS X 10_15_7) AppleWebKit/537.36 (KHTML, like Gecko) Chrome/99.0.4844.83 Safari/537.36",1440,900,1440,789,main,1535329,11,8,13,11,HM,Moderate,Harder than Reference,D,k,riskyDeck,safeDeck,14,0,7,left,1,1,46,present,riskyDeck,3281,3627
vhxtg6u2wr,13502,04/04/2022@15:36:25,"Mozilla/5.0 (Macintosh; Intel Mac OS X 10_15_7) AppleWebKit/537.36 (KHTML, like Gecko) Chrome/99.0.4844.83 Safari/537.36",1440,900,1440,789,main,1535329,11,9,13,11,HM,Moderate,Harder than Reference,D,j,riskyDeck,safeDeck,14,0,7,left,1,0,46,present,riskyDeck,3281,3725
vhxtg6u2wr,13502,04/04/2022@15:36:25,"Mozilla/5.0 (Macintosh; Intel Mac OS X 10_15_7) AppleWebKit/537.36 (KHTML, like Gecko) Chrome/99.0.4844.83 Safari/537.36",1440,900,1440,789,main,1535329,12,1,13,11,EE,Extreme,Easier than Reference,D,j,riskyDeck,safeDeck,-14,0,-7,left,1,0,32,present,riskyDeck,4293,2773
vhxtg6u2wr,13502,04/04/2022@15:36:25,"Mozilla/5.0 (Macintosh; Intel Mac OS X 10_15_7) AppleWebKit/537.36 (KHTML, like Gecko) Chrome/99.0.4844.83 Safari/537.36",1440,900,1440,789,main,1535329,12,2,14,11,EE,Extreme,Easier than Reference,D,k,riskyDeck,safeDeck,-14,0,-7,left,1,0,32,absent,riskyDeck,4293,3212
vhxtg6u2wr,13502,04/04/2022@15:36:25,"Mozilla/5.0 (Macintosh; Intel Mac OS X 10_15_7) AppleWebKit/537.36 (KHTML, like Gecko) Chrome/99.0.4844.83 Safari/537.36",1440,900,1440,789,main,1535329,12,3,14,11,EE,Extreme,Easier than Reference,D,k,riskyDeck,safeDeck,-14,0,-7,left,1,0,32,absent,riskyDeck,4293,2011
vhxtg6u2wr,13502,04/04/2022@15:36:25,"Mozilla/5.0 (Macintosh; Intel Mac OS X 10_15_7) AppleWebKit/537.36 (KHTML, like Gecko) Chrome/99.0.4844.83 Safari/537.36",1440,900,1440,789,main,1535329,12,4,14,11,EE,Extreme,Easier than Reference,D,j,riskyDeck,safeDeck,-14,0,-7,left,1,0,32,present,riskyDeck,4293,1251
vhxtg6u2wr,13502,04/04/2022@15:36:25,"Mozilla/5.0 (Macintosh; Intel Mac OS X 10_15_7) AppleWebKit/537.36 (KHTML, like Gecko) Chrome/99.0.4844.83 Safari/537.36",1440,900,1440,789,main,1535329,12,5,14,11,EE,Extreme,Easier than Reference,D,k,riskyDeck,safeDeck,-14,0,-7,left,1,0,32,absent,riskyDeck,4293,3187
vhxtg6u2wr,13502,04/04/2022@15:36:25,"Mozilla/5.0 (Macintosh; Intel Mac OS X 10_15_7) AppleWebKit/537.36 (KHTML, like Gecko) Chrome/99.0.4844.83 Safari/537.36",1440,900,1440,789,main,1535329,12,6,14,11,EE,Extreme,Easier than Reference,D,k,riskyDeck,safeDeck,-14,0,-7,left,1,0,32,absent,riskyDeck,4293,3025
vhxtg6u2wr,13502,04/04/2022@15:36:25,"Mozilla/5.0 (Macintosh; Intel Mac OS X 10_15_7) AppleWebKit/537.36 (KHTML, like Gecko) Chrome/99.0.4844.83 Safari/537.36",1440,900,1440,789,main,1535329,12,7,14,11,EE,Extreme,Easier than Reference,D,j,riskyDeck,safeDeck,-14,0,-7,left,1,0,32,present,riskyDeck,4293,1076
vhxtg6u2wr,13502,04/04/2022@15:36:25,"Mozilla/5.0 (Macintosh; Intel Mac OS X 10_15_7) AppleWebKit/537.36 (KHTML, like Gecko) Chrome/99.0.4844.83 Safari/537.36",1440,900,1440,789,main,1535329,12,8,14,11,EE,Extreme,Easier than Reference,D,j,riskyDeck,safeDeck,-14,0,-7,left,1,0,32,present,riskyDeck,4293,827
vhxtg6u2wr,13502,04/04/2022@15:36:25,"Mozilla/5.0 (Macintosh; Intel Mac OS X 10_15_7) AppleWebKit/537.36 (KHTML, like Gecko) Chrome/99.0.4844.83 Safari/537.36",1440,900,1440,789,main,1535329,12,9,14,11,EE,Extreme,Easier than Reference,D,k,riskyDeck,safeDeck,-14,0,-7,left,1,0,32,absent,riskyDeck,4293,3878
vhxtg6u2wr,13502,04/04/2022@15:36:25,"Mozilla/5.0 (Macintosh; Intel Mac OS X 10_15_7) AppleWebKit/537.36 (KHTML, like Gecko) Chrome/99.0.4844.83 Safari/537.36",1440,900,1440,789,main,1535329,13,1,14,12,HE,Extreme,Harder than Reference,F,k,safeDeck,riskyDeck,0,28,14,right,1,0,32,absent,riskyDeck,2111,3237
vhxtg6u2wr,13502,04/04/2022@15:36:25,"Mozilla/5.0 (Macintosh; Intel Mac OS X 10_15_7) AppleWebKit/537.36 (KHTML, like Gecko) Chrome/99.0.4844.83 Safari/537.36",1440,900,1440,789,main,1535329,13,2,14,12,HE,Extreme,Harder than Reference,F,k,safeDeck,riskyDeck,0,28,14,right,1,0,32,absent,riskyDeck,2111,2367
vhxtg6u2wr,13502,04/04/2022@15:36:25,"Mozilla/5.0 (Macintosh; Intel Mac OS X 10_15_7) AppleWebKit/537.36 (KHTML, like Gecko) Chrome/99.0.4844.83 Safari/537.36",1440,900,1440,789,main,1535329,13,3,14,12,HE,Extreme,Harder than Reference,F,k,safeDeck,riskyDeck,0,28,14,right,1,1,32,present,riskyDeck,2111,2029
vhxtg6u2wr,13502,04/04/2022@15:36:25,"Mozilla/5.0 (Macintosh; Intel Mac OS X 10_15_7) AppleWebKit/537.36 (KHTML, like Gecko) Chrome/99.0.4844.83 Safari/537.36",1440,900,1440,789,main,1535329,13,4,14,12,HE,Extreme,Harder than Reference,F,j,safeDeck,riskyDeck,0,28,14,right,1,0,32,present,riskyDeck,2111,3647
vhxtg6u2wr,13502,04/04/2022@15:36:25,"Mozilla/5.0 (Macintosh; Intel Mac OS X 10_15_7) AppleWebKit/537.36 (KHTML, like Gecko) Chrome/99.0.4844.83 Safari/537.36",1440,900,1440,789,main,1535329,13,5,14,12,HE,Extreme,Harder than Reference,F,j,safeDeck,riskyDeck,0,28,14,right,1,0,32,present,riskyDeck,2111,2060
vhxtg6u2wr,13502,04/04/2022@15:36:25,"Mozilla/5.0 (Macintosh; Intel Mac OS X 10_15_7) AppleWebKit/537.36 (KHTML, like Gecko) Chrome/99.0.4844.83 Safari/537.36",1440,900,1440,789,main,1535329,13,6,14,12,HE,Extreme,Harder than Reference,F,j,safeDeck,riskyDeck,0,28,14,right,1,0,32,present,riskyDeck,2111,1442
vhxtg6u2wr,13502,04/04/2022@15:36:25,"Mozilla/5.0 (Macintosh; Intel Mac OS X 10_15_7) AppleWebKit/537.36 (KHTML, like Gecko) Chrome/99.0.4844.83 Safari/537.36",1440,900,1440,789,main,1535329,13,7,14,12,HE,Extreme,Harder than Reference,F,k,safeDeck,riskyDeck,0,28,14,right,1,1,32,present,riskyDeck,2111,3601
vhxtg6u2wr,13502,04/04/2022@15:36:25,"Mozilla/5.0 (Macintosh; Intel Mac OS X 10_15_7) AppleWebKit/537.36 (KHTML, like Gecko) Chrome/99.0.4844.83 Safari/537.36",1440,900,1440,789,main,1535329,13,8,14,12,HE,Extreme,Harder than Reference,F,k,safeDeck,riskyDeck,0,28,14,right,1,0,32,absent,riskyDeck,2111,3086
vhxtg6u2wr,13502,04/04/2022@15:36:25,"Mozilla/5.0 (Macintosh; Intel Mac OS X 10_15_7) AppleWebKit/537.36 (KHTML, like Gecko) Chrome/99.0.4844.83 Safari/537.36",1440,900,1440,789,main,1535329,13,9,14,12,HE,Extreme,Harder than Reference,F,k,safeDeck,riskyDeck,0,28,14,right,1,0,32,absent,riskyDeck,2111,4809
vhxtg6u2wr,13502,04/04/2022@15:36:25,"Mozilla/5.0 (Macintosh; Intel Mac OS X 10_15_7) AppleWebKit/537.36 (KHTML, like Gecko) Chrome/99.0.4844.83 Safari/537.36",1440,900,1440,789,main,1535329,14,1,15,12,HM,Moderate,Harder than Reference,F,j,riskyDeck,safeDeck,14,0,7,right,0,0,39,present,safeDeck,1623,3029
vhxtg6u2wr,13502,04/04/2022@15:36:25,"Mozilla/5.0 (Macintosh; Intel Mac OS X 10_15_7) AppleWebKit/537.36 (KHTML, like Gecko) Chrome/99.0.4844.83 Safari/537.36",1440,900,1440,789,main,1535329,14,2,15,12,HM,Moderate,Harder than Reference,F,k,riskyDeck,safeDeck,14,0,7,right,0,0,39,absent,safeDeck,1623,3217
vhxtg6u2wr,13502,04/04/2022@15:36:25,"Mozilla/5.0 (Macintosh; Intel Mac OS X 10_15_7) AppleWebKit/537.36 (KHTML, like Gecko) Chrome/99.0.4844.83 Safari/537.36",1440,900,1440,789,main,1535329,14,3,15,12,HM,Moderate,Harder than Reference,F,j,riskyDeck,safeDeck,14,0,7,right,0,0,39,present,safeDeck,1623,1571
vhxtg6u2wr,13502,04/04/2022@15:36:25,"Mozilla/5.0 (Macintosh; Intel Mac OS X 10_15_7) AppleWebKit/537.36 (KHTML, like Gecko) Chrome/99.0.4844.83 Safari/537.36",1440,900,1440,789,main,1535329,14,4,15,12,HM,Moderate,Harder than Reference,F,j,riskyDeck,safeDeck,14,0,7,right,0,0,39,present,safeDeck,1623,3434
vhxtg6u2wr,13502,04/04/2022@15:36:25,"Mozilla/5.0 (Macintosh; Intel Mac OS X 10_15_7) AppleWebKit/537.36 (KHTML, like Gecko) Chrome/99.0.4844.83 Safari/537.36",1440,900,1440,789,main,1535329,14,5,15,12,HM,Moderate,Harder than Reference,F,j,riskyDeck,safeDeck,14,0,7,right,0,0,39,present,safeDeck,1623,3131
vhxtg6u2wr,13502,04/04/2022@15:36:25,"Mozilla/5.0 (Macintosh; Intel Mac OS X 10_15_7) AppleWebKit/537.36 (KHTML, like Gecko) Chrome/99.0.4844.83 Safari/537.36",1440,900,1440,789,main,1535329,14,6,15,12,HM,Moderate,Harder than Reference,F,j,riskyDeck,safeDeck,14,0,7,right,0,0,39,present,safeDeck,1623,3413
vhxtg6u2wr,13502,04/04/2022@15:36:25,"Mozilla/5.0 (Macintosh; Intel Mac OS X 10_15_7) AppleWebKit/537.36 (KHTML, like Gecko) Chrome/99.0.4844.83 Safari/537.36",1440,900,1440,789,main,1535329,14,7,15,12,HM,Moderate,Harder than Reference,F,k,riskyDeck,safeDeck,14,0,7,right,0,0,39,absent,safeDeck,1623,5240
vhxtg6u2wr,13502,04/04/2022@15:36:25,"Mozilla/5.0 (Macintosh; Intel Mac OS X 10_15_7) AppleWebKit/537.36 (KHTML, like Gecko) Chrome/99.0.4844.83 Safari/537.36",1440,900,1440,789,main,1535329,14,8,15,13,HM,Moderate,Harder than Reference,F,k,riskyDeck,safeDeck,14,0,7,right,0,0,39,absent,safeDeck,1623,2626
vhxtg6u2wr,13502,04/04/2022@15:36:25,"Mozilla/5.0 (Macintosh; Intel Mac OS X 10_15_7) AppleWebKit/537.36 (KHTML, like Gecko) Chrome/99.0.4844.83 Safari/537.36",1440,900,1440,789,main,1535329,14,9,15,13,HM,Moderate,Harder than Reference,F,j,riskyDeck,safeDeck,14,0,7,right,0,0,39,present,safeDeck,1623,1801
vhxtg6u2wr,13502,04/04/2022@15:36:25,"Mozilla/5.0 (Macintosh; Intel Mac OS X 10_15_7) AppleWebKit/537.36 (KHTML, like Gecko) Chrome/99.0.4844.83 Safari/537.36",1440,900,1440,789,main,1535329,15,1,15,13,EM,Moderate,Easier than Reference,F,k,safeDeck,riskyDeck,-28,0,-14,right,1,0,4,absent,riskyDeck,2451,2324
vhxtg6u2wr,13502,04/04/2022@15:36:25,"Mozilla/5.0 (Macintosh; Intel Mac OS X 10_15_7) AppleWebKit/537.36 (KHTML, like Gecko) Chrome/99.0.4844.83 Safari/537.36",1440,900,1440,789,main,1535329,15,2,15,13,EM,Moderate,Easier than Reference,F,j,safeDeck,riskyDeck,-28,0,-14,right,1,0,4,present,riskyDeck,2451,738
vhxtg6u2wr,13502,04/04/2022@15:36:25,"Mozilla/5.0 (Macintosh; Intel Mac OS X 10_15_7) AppleWebKit/537.36 (KHTML, like Gecko) Chrome/99.0.4844.83 Safari/537.36",1440,900,1440,789,main,1535329,15,3,15,13,EM,Moderate,Easier than Reference,F,j,safeDeck,riskyDeck,-28,0,-14,right,1,0,4,present,riskyDeck,2451,1210
vhxtg6u2wr,13502,04/04/2022@15:36:25,"Mozilla/5.0 (Macintosh; Intel Mac OS X 10_15_7) AppleWebKit/537.36 (KHTML, like Gecko) Chrome/99.0.4844.83 Safari/537.36",1440,900,1440,789,main,1535329,15,4,15,13,EM,Moderate,Easier than Reference,F,j,safeDeck,riskyDeck,-28,0,-14,right,1,0,4,present,riskyDeck,2451,1353
vhxtg6u2wr,13502,04/04/2022@15:36:25,"Mozilla/5.0 (Macintosh; Intel Mac OS X 10_15_7) AppleWebKit/537.36 (KHTML, like Gecko) Chrome/99.0.4844.83 Safari/537.36",1440,900,1440,789,main,1535329,15,5,15,13,EM,Moderate,Easier than Reference,F,k,safeDeck,riskyDeck,-28,0,-14,right,1,0,4,absent,riskyDeck,2451,1043
vhxtg6u2wr,13502,04/04/2022@15:36:25,"Mozilla/5.0 (Macintosh; Intel Mac OS X 10_15_7) AppleWebKit/537.36 (KHTML, like Gecko) Chrome/99.0.4844.83 Safari/537.36",1440,900,1440,789,main,1535329,15,6,15,13,EM,Moderate,Easier than Reference,F,k,safeDeck,riskyDeck,-28,0,-14,right,1,0,4,absent,riskyDeck,2451,1404
vhxtg6u2wr,13502,04/04/2022@15:36:25,"Mozilla/5.0 (Macintosh; Intel Mac OS X 10_15_7) AppleWebKit/537.36 (KHTML, like Gecko) Chrome/99.0.4844.83 Safari/537.36",1440,900,1440,789,main,1535329,15,7,15,13,EM,Moderate,Easier than Reference,F,k,safeDeck,riskyDeck,-28,0,-14,right,1,0,4,absent,riskyDeck,2451,1092
vhxtg6u2wr,13502,04/04/2022@15:36:25,"Mozilla/5.0 (Macintosh; Intel Mac OS X 10_15_7) AppleWebKit/537.36 (KHTML, like Gecko) Chrome/99.0.4844.83 Safari/537.36",1440,900,1440,789,main,1535329,15,8,15,13,EM,Moderate,Easier than Reference,F,j,safeDeck,riskyDeck,-28,0,-14,right,1,0,4,present,riskyDeck,2451,746
vhxtg6u2wr,13502,04/04/2022@15:36:25,"Mozilla/5.0 (Macintosh; Intel Mac OS X 10_15_7) AppleWebKit/537.36 (KHTML, like Gecko) Chrome/99.0.4844.83 Safari/537.36",1440,900,1440,789,main,1535329,15,9,15,13,EM,Moderate,Easier than Reference,F,k,safeDeck,riskyDeck,-28,0,-14,right,1,0,4,absent,riskyDeck,2451,622
vhxtg6u2wr,13502,04/04/2022@15:36:25,"Mozilla/5.0 (Macintosh; Intel Mac OS X 10_15_7) AppleWebKit/537.36 (KHTML, like Gecko) Chrome/99.0.4844.83 Safari/537.36",1440,900,1440,789,main,1535329,16,1,15,13,EE,Extreme,Easier than Reference,D,j,riskyDeck,safeDeck,-14,0,-7,left,1,0,18,present,riskyDeck,1566,2339
vhxtg6u2wr,13502,04/04/2022@15:36:25,"Mozilla/5.0 (Macintosh; Intel Mac OS X 10_15_7) AppleWebKit/537.36 (KHTML, like Gecko) Chrome/99.0.4844.83 Safari/537.36",1440,900,1440,789,main,1535329,16,2,15,13,EE,Extreme,Easier than Reference,D,j,riskyDeck,safeDeck,-14,0,-7,left,1,0,18,present,riskyDeck,1566,942
vhxtg6u2wr,13502,04/04/2022@15:36:25,"Mozilla/5.0 (Macintosh; Intel Mac OS X 10_15_7) AppleWebKit/537.36 (KHTML, like Gecko) Chrome/99.0.4844.83 Safari/537.36",1440,900,1440,789,main,1535329,16,3,15,13,EE,Extreme,Easier than Reference,D,k,riskyDeck,safeDeck,-14,0,-7,left,1,0,18,absent,riskyDeck,1566,2553
vhxtg6u2wr,13502,04/04/2022@15:36:25,"Mozilla/5.0 (Macintosh; Intel Mac OS X 10_15_7) AppleWebKit/537.36 (KHTML, like Gecko) Chrome/99.0.4844.83 Safari/537.36",1440,900,1440,789,main,1535329,16,4,15,13,EE,Extreme,Easier than Reference,D,j,riskyDeck,safeDeck,-14,0,-7,left,1,0,18,present,riskyDeck,1566,1338
vhxtg6u2wr,13502,04/04/2022@15:36:25,"Mozilla/5.0 (Macintosh; Intel Mac OS X 10_15_7) AppleWebKit/537.36 (KHTML, like Gecko) Chrome/99.0.4844.83 Safari/537.36",1440,900,1440,789,main,1535329,16,5,15,13,EE,Extreme,Easier than Reference,D,j,riskyDeck,safeDeck,-14,0,-7,left,1,0,18,present,riskyDeck,1566,2926
vhxtg6u2wr,13502,04/04/2022@15:36:25,"Mozilla/5.0 (Macintosh; Intel Mac OS X 10_15_7) AppleWebKit/537.36 (KHTML, like Gecko) Chrome/99.0.4844.83 Safari/537.36",1440,900,1440,789,main,1535329,16,6,16,13,EE,Extreme,Easier than Reference,D,k,riskyDeck,safeDeck,-14,0,-7,left,1,1,18,present,riskyDeck,1566,2352
vhxtg6u2wr,13502,04/04/2022@15:36:25,"Mozilla/5.0 (Macintosh; Intel Mac OS X 10_15_7) AppleWebKit/537.36 (KHTML, like Gecko) Chrome/99.0.4844.83 Safari/537.36",1440,900,1440,789,main,1535329,16,7,16,13,EE,Extreme,Easier than Reference,D,j,riskyDeck,safeDeck,-14,0,-7,left,1,0,18,present,riskyDeck,1566,936
vhxtg6u2wr,13502,04/04/2022@15:36:25,"Mozilla/5.0 (Macintosh; Intel Mac OS X 10_15_7) AppleWebKit/537.36 (KHTML, like Gecko) Chrome/99.0.4844.83 Safari/537.36",1440,900,1440,789,main,1535329,16,8,16,13,EE,Extreme,Easier than Reference,D,k,riskyDeck,safeDeck,-14,0,-7,left,1,0,18,absent,riskyDeck,1566,2895
vhxtg6u2wr,13502,04/04/2022@15:36:25,"Mozilla/5.0 (Macintosh; Intel Mac OS X 10_15_7) AppleWebKit/537.36 (KHTML, like Gecko) Chrome/99.0.4844.83 Safari/537.36",1440,900,1440,789,main,1535329,16,9,16,13,EE,Extreme,Easier than Reference,D,j,riskyDeck,safeDeck,-14,0,-7,left,1,0,18,present,riskyDeck,1566,2372
vhxtg6u2wr,13502,04/04/2022@15:36:25,"Mozilla/5.0 (Macintosh; Intel Mac OS X 10_15_7) AppleWebKit/537.36 (KHTML, like Gecko) Chrome/99.0.4844.83 Safari/537.36",1440,900,1440,789,main,1535329,17,1,16,13,EM,Moderate,Easier than Reference,D,k,riskyDeck,safeDeck,0,-28,-14,left,1,0,4,absent,riskyDeck,1270,1683
vhxtg6u2wr,13502,04/04/2022@15:36:25,"Mozilla/5.0 (Macintosh; Intel Mac OS X 10_15_7) AppleWebKit/537.36 (KHTML, like Gecko) Chrome/99.0.4844.83 Safari/537.36",1440,900,1440,789,main,1535329,17,2,16,13,EM,Moderate,Easier than Reference,D,k,riskyDeck,safeDeck,0,-28,-14,left,1,0,4,absent,riskyDeck,1270,1060
vhxtg6u2wr,13502,04/04/2022@15:36:25,"Mozilla/5.0 (Macintosh; Intel Mac OS X 10_15_7) AppleWebKit/537.36 (KHTML, like Gecko) Chrome/99.0.4844.83 Safari/537.36",1440,900,1440,789,main,1535329,17,3,16,13,EM,Moderate,Easier than Reference,D,j,riskyDeck,safeDeck,0,-28,-14,left,1,0,4,present,riskyDeck,1270,672
vhxtg6u2wr,13502,04/04/2022@15:36:25,"Mozilla/5.0 (Macintosh; Intel Mac OS X 10_15_7) AppleWebKit/537.36 (KHTML, like Gecko) Chrome/99.0.4844.83 Safari/537.36",1440,900,1440,789,main,1535329,17,4,16,13,EM,Moderate,Easier than Reference,D,j,riskyDeck,safeDeck,0,-28,-14,left,1,0,4,present,riskyDeck,1270,807
vhxtg6u2wr,13502,04/04/2022@15:36:25,"Mozilla/5.0 (Macintosh; Intel Mac OS X 10_15_7) AppleWebKit/537.36 (KHTML, like Gecko) Chrome/99.0.4844.83 Safari/537.36",1440,900,1440,789,main,1535329,17,5,16,13,EM,Moderate,Easier than Reference,D,k,riskyDeck,safeDeck,0,-28,-14,left,1,0,4,absent,riskyDeck,1270,991
vhxtg6u2wr,13502,04/04/2022@15:36:25,"Mozilla/5.0 (Macintosh; Intel Mac OS X 10_15_7) AppleWebKit/537.36 (KHTML, like Gecko) Chrome/99.0.4844.83 Safari/537.36",1440,900,1440,789,main,1535329,17,6,16,13,EM,Moderate,Easier than Reference,D,k,riskyDeck,safeDeck,0,-28,-14,left,1,0,4,absent,riskyDeck,1270,652
vhxtg6u2wr,13502,04/04/2022@15:36:25,"Mozilla/5.0 (Macintosh; Intel Mac OS X 10_15_7) AppleWebKit/537.36 (KHTML, like Gecko) Chrome/99.0.4844.83 Safari/537.36",1440,900,1440,789,main,1535329,17,7,16,13,EM,Moderate,Easier than Reference,D,j,riskyDeck,safeDeck,0,-28,-14,left,1,0,4,present,riskyDeck,1270,1061
vhxtg6u2wr,13502,04/04/2022@15:36:25,"Mozilla/5.0 (Macintosh; Intel Mac OS X 10_15_7) AppleWebKit/537.36 (KHTML, like Gecko) Chrome/99.0.4844.83 Safari/537.36",1440,900,1440,789,main,1535329,17,8,16,14,EM,Moderate,Easier than Reference,D,j,riskyDeck,safeDeck,0,-28,-14,left,1,0,4,present,riskyDeck,1270,947
vhxtg6u2wr,13502,04/04/2022@15:36:25,"Mozilla/5.0 (Macintosh; Intel Mac OS X 10_15_7) AppleWebKit/537.36 (KHTML, like Gecko) Chrome/99.0.4844.83 Safari/537.36",1440,900,1440,789,main,1535329,17,9,16,14,EM,Moderate,Easier than Reference,D,k,riskyDeck,safeDeck,0,-28,-14,left,1,0,4,absent,riskyDeck,1270,926
vhxtg6u2wr,13502,04/04/2022@15:36:25,"Mozilla/5.0 (Macintosh; Intel Mac OS X 10_15_7) AppleWebKit/537.36 (KHTML, like Gecko) Chrome/99.0.4844.83 Safari/537.36",1440,900,1440,789,main,1535329,18,1,16,14,EE,Extreme,Easier than Reference,F,j,safeDeck,riskyDeck,0,-14,-7,right,1,0,18,present,riskyDeck,1855,4021
vhxtg6u2wr,13502,04/04/2022@15:36:25,"Mozilla/5.0 (Macintosh; Intel Mac OS X 10_15_7) AppleWebKit/537.36 (KHTML, like Gecko) Chrome/99.0.4844.83 Safari/537.36",1440,900,1440,789,main,1535329,18,2,16,14,EE,Extreme,Easier than Reference,F,k,safeDeck,riskyDeck,0,-14,-7,right,1,0,18,absent,riskyDeck,1855,2952
vhxtg6u2wr,13502,04/04/2022@15:36:25,"Mozilla/5.0 (Macintosh; Intel Mac OS X 10_15_7) AppleWebKit/537.36 (KHTML, like Gecko) Chrome/99.0.4844.83 Safari/537.36",1440,900,1440,789,main,1535329,18,3,16,14,EE,Extreme,Easier than Reference,F,j,safeDeck,riskyDeck,0,-14,-7,right,1,0,18,present,riskyDeck,1855,1504
vhxtg6u2wr,13502,04/04/2022@15:36:25,"Mozilla/5.0 (Macintosh; Intel Mac OS X 10_15_7) AppleWebKit/537.36 (KHTML, like Gecko) Chrome/99.0.4844.83 Safari/537.36",1440,900,1440,789,main,1535329,18,4,16,14,EE,Extreme,Easier than Reference,F,k,safeDeck,riskyDeck,0,-14,-7,right,1,0,18,absent,riskyDeck,1855,2064
vhxtg6u2wr,13502,04/04/2022@15:36:25,"Mozilla/5.0 (Macintosh; Intel Mac OS X 10_15_7) AppleWebKit/537.36 (KHTML, like Gecko) Chrome/99.0.4844.83 Safari/537.36",1440,900,1440,789,main,1535329,18,5,16,14,EE,Extreme,Easier than Reference,F,k,safeDeck,riskyDeck,0,-14,-7,right,1,0,18,absent,riskyDeck,1855,3040
vhxtg6u2wr,13502,04/04/2022@15:36:25,"Mozilla/5.0 (Macintosh; Intel Mac OS X 10_15_7) AppleWebKit/537.36 (KHTML, like Gecko) Chrome/99.0.4844.83 Safari/537.36",1440,900,1440,789,main,1535329,18,6,16,14,EE,Extreme,Easier than Reference,F,k,safeDeck,riskyDeck,0,-14,-7,right,1,0,18,absent,riskyDeck,1855,3110
vhxtg6u2wr,13502,04/04/2022@15:36:25,"Mozilla/5.0 (Macintosh; Intel Mac OS X 10_15_7) AppleWebKit/537.36 (KHTML, like Gecko) Chrome/99.0.4844.83 Safari/537.36",1440,900,1440,789,main,1535329,18,7,16,14,EE,Extreme,Easier than Reference,F,j,safeDeck,riskyDeck,0,-14,-7,right,1,0,18,present,riskyDeck,1855,1125
vhxtg6u2wr,13502,04/04/2022@15:36:25,"Mozilla/5.0 (Macintosh; Intel Mac OS X 10_15_7) AppleWebKit/537.36 (KHTML, like Gecko) Chrome/99.0.4844.83 Safari/537.36",1440,900,1440,789,main,1535329,18,8,16,14,EE,Extreme,Easier than Reference,F,k,safeDeck,riskyDeck,0,-14,-7,right,1,0,18,absent,riskyDeck,1855,3052
vhxtg6u2wr,13502,04/04/2022@15:36:25,"Mozilla/5.0 (Macintosh; Intel Mac OS X 10_15_7) AppleWebKit/537.36 (KHTML, like Gecko) Chrome/99.0.4844.83 Safari/537.36",1440,900,1440,789,main,1535329,18,9,16,14,EE,Extreme,Easier than Reference,F,j,safeDeck,riskyDeck,0,-14,-7,right,1,0,18,present,riskyDeck,1855,1415
vhxtg6u2wr,13502,04/04/2022@15:36:25,"Mozilla/5.0 (Macintosh; Intel Mac OS X 10_15_7) AppleWebKit/537.36 (KHTML, like Gecko) Chrome/99.0.4844.83 Safari/537.36",1440,900,1440,789,main,1535329,19,1,17,14,HE,Extreme,Harder than Reference,F,k,safeDeck,riskyDeck,28,0,14,right,1,0,60,absent,riskyDeck,2818,5232
vhxtg6u2wr,13502,04/04/2022@15:36:25,"Mozilla/5.0 (Macintosh; Intel Mac OS X 10_15_7) AppleWebKit/537.36 (KHTML, like Gecko) Chrome/99.0.4844.83 Safari/537.36",1440,900,1440,789,main,1535329,19,2,17,14,HE,Extreme,Harder than Reference,F,k,safeDeck,riskyDeck,28,0,14,right,1,1,60,present,riskyDeck,2818,4963
vhxtg6u2wr,13502,04/04/2022@15:36:25,"Mozilla/5.0 (Macintosh; Intel Mac OS X 10_15_7) AppleWebKit/537.36 (KHTML, like Gecko) Chrome/99.0.4844.83 Safari/537.36",1440,900,1440,789,main,1535329,19,3,17,14,HE,Extreme,Harder than Reference,F,j,safeDeck,riskyDeck,28,0,14,right,1,0,60,present,riskyDeck,2818,5051
vhxtg6u2wr,13502,04/04/2022@15:36:25,"Mozilla/5.0 (Macintosh; Intel Mac OS X 10_15_7) AppleWebKit/537.36 (KHTML, like Gecko) Chrome/99.0.4844.83 Safari/537.36",1440,900,1440,789,main,1535329,19,4,17,14,HE,Extreme,Harder than Reference,F,k,safeDeck,riskyDeck,28,0,14,right,1,0,60,absent,riskyDeck,2818,5824
vhxtg6u2wr,13502,04/04/2022@15:36:25,"Mozilla/5.0 (Macintosh; Intel Mac OS X 10_15_7) AppleWebKit/537.36 (KHTML, like Gecko) Chrome/99.0.4844.83 Safari/537.36",1440,900,1440,789,main,1535329,19,5,17,15,HE,Extreme,Harder than Reference,F,k,safeDeck,riskyDeck,28,0,14,right,1,0,60,absent,riskyDeck,2818,4380
vhxtg6u2wr,13502,04/04/2022@15:36:25,"Mozilla/5.0 (Macintosh; Intel Mac OS X 10_15_7) AppleWebKit/537.36 (KHTML, like Gecko) Chrome/99.0.4844.83 Safari/537.36",1440,900,1440,789,main,1535329,19,6,17,15,HE,Extreme,Harder than Reference,F,k,safeDeck,riskyDeck,28,0,14,right,1,0,60,absent,riskyDeck,2818,3803
vhxtg6u2wr,13502,04/04/2022@15:36:25,"Mozilla/5.0 (Macintosh; Intel Mac OS X 10_15_7) AppleWebKit/537.36 (KHTML, like Gecko) Chrome/99.0.4844.83 Safari/537.36",1440,900,1440,789,main,1535329,19,7,17,15,HE,Extreme,Harder than Reference,F,k,safeDeck,riskyDeck,28,0,14,right,1,0,60,absent,riskyDeck,2818,5277
vhxtg6u2wr,13502,04/04/2022@15:36:25,"Mozilla/5.0 (Macintosh; Intel Mac OS X 10_15_7) AppleWebKit/537.36 (KHTML, like Gecko) Chrome/99.0.4844.83 Safari/537.36",1440,900,1440,789,main,1535329,19,8,17,15,HE,Extreme,Harder than Reference,F,k,safeDeck,riskyDeck,28,0,14,right,1,0,60,absent,riskyDeck,2818,5452
vhxtg6u2wr,13502,04/04/2022@15:36:25,"Mozilla/5.0 (Macintosh; Intel Mac OS X 10_15_7) AppleWebKit/537.36 (KHTML, like Gecko) Chrome/99.0.4844.83 Safari/537.36",1440,900,1440,789,main,1535329,19,9,17,15,HE,Extreme,Harder than Reference,F,k,safeDeck,riskyDeck,28,0,14,right,1,1,60,present,riskyDeck,2818,4556
vhxtg6u2wr,13502,04/04/2022@15:36:25,"Mozilla/5.0 (Macintosh; Intel Mac OS X 10_15_7) AppleWebKit/537.36 (KHTML, like Gecko) Chrome/99.0.4844.83 Safari/537.36",1440,900,1440,789,main,1535329,20,1,17,15,HM,Moderate,Harder than Reference,F,j,safeDeck,riskyDeck,0,14,7,right,1,0,32,present,riskyDeck,1791,4568
vhxtg6u2wr,13502,04/04/2022@15:36:25,"Mozilla/5.0 (Macintosh; Intel Mac OS X 10_15_7) AppleWebKit/537.36 (KHTML, like Gecko) Chrome/99.0.4844.83 Safari/537.36",1440,900,1440,789,main,1535329,20,2,18,15,HM,Moderate,Harder than Reference,F,k,safeDeck,riskyDeck,0,14,7,right,1,0,32,absent,riskyDeck,1791,2612
vhxtg6u2wr,13502,04/04/2022@15:36:25,"Mozilla/5.0 (Macintosh; Intel Mac OS X 10_15_7) AppleWebKit/537.36 (KHTML, like Gecko) Chrome/99.0.4844.83 Safari/537.36",1440,900,1440,789,main,1535329,20,3,18,15,HM,Moderate,Harder than Reference,F,k,safeDeck,riskyDeck,0,14,7,right,1,1,32,present,riskyDeck,1791,3530
vhxtg6u2wr,13502,04/04/2022@15:36:25,"Mozilla/5.0 (Macintosh; Intel Mac OS X 10_15_7) AppleWebKit/537.36 (KHTML, like Gecko) Chrome/99.0.4844.83 Safari/537.36",1440,900,1440,789,main,1535329,20,4,18,15,HM,Moderate,Harder than Reference,F,j,safeDeck,riskyDeck,0,14,7,right,1,0,32,present,riskyDeck,1791,2275
vhxtg6u2wr,13502,04/04/2022@15:36:25,"Mozilla/5.0 (Macintosh; Intel Mac OS X 10_15_7) AppleWebKit/537.36 (KHTML, like Gecko) Chrome/99.0.4844.83 Safari/537.36",1440,900,1440,789,main,1535329,20,5,18,15,HM,Moderate,Harder than Reference,F,j,safeDeck,riskyDeck,0,14,7,right,1,0,32,present,riskyDeck,1791,2404
vhxtg6u2wr,13502,04/04/2022@15:36:25,"Mozilla/5.0 (Macintosh; Intel Mac OS X 10_15_7) AppleWebKit/537.36 (KHTML, like Gecko) Chrome/99.0.4844.83 Safari/537.36",1440,900,1440,789,main,1535329,20,6,18,15,HM,Moderate,Harder than Reference,F,k,safeDeck,riskyDeck,0,14,7,right,1,0,32,absent,riskyDeck,1791,4381
vhxtg6u2wr,13502,04/04/2022@15:36:25,"Mozilla/5.0 (Macintosh; Intel Mac OS X 10_15_7) AppleWebKit/537.36 (KHTML, like Gecko) Chrome/99.0.4844.83 Safari/537.36",1440,900,1440,789,main,1535329,20,7,18,15,HM,Moderate,Harder than Reference,F,k,safeDeck,riskyDeck,0,14,7,right,1,0,32,absent,riskyDeck,1791,3615
vhxtg6u2wr,13502,04/04/2022@15:36:25,"Mozilla/5.0 (Macintosh; Intel Mac OS X 10_15_7) AppleWebKit/537.36 (KHTML, like Gecko) Chrome/99.0.4844.83 Safari/537.36",1440,900,1440,789,main,1535329,20,8,18,16,HM,Moderate,Harder than Reference,F,k,safeDeck,riskyDeck,0,14,7,right,1,1,32,present,riskyDeck,1791,3216
vhxtg6u2wr,13502,04/04/2022@15:36:25,"Mozilla/5.0 (Macintosh; Intel Mac OS X 10_15_7) AppleWebKit/537.36 (KHTML, like Gecko) Chrome/99.0.4844.83 Safari/537.36",1440,900,1440,789,main,1535329,20,9,18,16,HM,Moderate,Harder than Reference,F,j,safeDeck,riskyDeck,0,14,7,right,1,0,32,present,riskyDeck,1791,2917
vhxtg6u2wr,13502,04/04/2022@15:36:25,"Mozilla/5.0 (Macintosh; Intel Mac OS X 10_15_7) AppleWebKit/537.36 (KHTML, like Gecko) Chrome/99.0.4844.83 Safari/537.36",1440,900,1440,789,main,1535329,21,1,18,16,HM,Moderate,Harder than Reference,D,j,safeDeck,riskyDeck,0,14,7,left,0,0,39,present,safeDeck,3871,1639
vhxtg6u2wr,13502,04/04/2022@15:36:25,"Mozilla/5.0 (Macintosh; Intel Mac OS X 10_15_7) AppleWebKit/537.36 (KHTML, like Gecko) Chrome/99.0.4844.83 Safari/537.36",1440,900,1440,789,main,1535329,21,2,18,16,HM,Moderate,Harder than Reference,D,k,safeDeck,riskyDeck,0,14,7,left,0,0,39,absent,safeDeck,3871,3412
vhxtg6u2wr,13502,04/04/2022@15:36:25,"Mozilla/5.0 (Macintosh; Intel Mac OS X 10_15_7) AppleWebKit/537.36 (KHTML, like Gecko) Chrome/99.0.4844.83 Safari/537.36",1440,900,1440,789,main,1535329,21,3,18,16,HM,Moderate,Harder than Reference,D,k,safeDeck,riskyDeck,0,14,7,left,0,0,39,absent,safeDeck,3871,3556
vhxtg6u2wr,13502,04/04/2022@15:36:25,"Mozilla/5.0 (Macintosh; Intel Mac OS X 10_15_7) AppleWebKit/537.36 (KHTML, like Gecko) Chrome/99.0.4844.83 Safari/537.36",1440,900,1440,789,main,1535329,21,4,18,16,HM,Moderate,Harder than Reference,D,j,safeDeck,riskyDeck,0,14,7,left,0,0,39,present,safeDeck,3871,2204
vhxtg6u2wr,13502,04/04/2022@15:36:25,"Mozilla/5.0 (Macintosh; Intel Mac OS X 10_15_7) AppleWebKit/537.36 (KHTML, like Gecko) Chrome/99.0.4844.83 Safari/537.36",1440,900,1440,789,main,1535329,21,5,18,16,HM,Moderate,Harder than Reference,D,k,safeDeck,riskyDeck,0,14,7,left,0,0,39,absent,safeDeck,3871,3175
vhxtg6u2wr,13502,04/04/2022@15:36:25,"Mozilla/5.0 (Macintosh; Intel Mac OS X 10_15_7) AppleWebKit/537.36 (KHTML, like Gecko) Chrome/99.0.4844.83 Safari/537.36",1440,900,1440,789,main,1535329,21,6,18,16,HM,Moderate,Harder than Reference,D,k,safeDeck,riskyDeck,0,14,7,left,0,0,39,absent,safeDeck,3871,1998
vhxtg6u2wr,13502,04/04/2022@15:36:25,"Mozilla/5.0 (Macintosh; Intel Mac OS X 10_15_7) AppleWebKit/537.36 (KHTML, like Gecko) Chrome/99.0.4844.83 Safari/537.36",1440,900,1440,789,main,1535329,21,7,19,16,HM,Moderate,Harder than Reference,D,k,safeDeck,riskyDeck,0,14,7,left,0,0,39,absent,safeDeck,3871,2559
vhxtg6u2wr,13502,04/04/2022@15:36:25,"Mozilla/5.0 (Macintosh; Intel Mac OS X 10_15_7) AppleWebKit/537.36 (KHTML, like Gecko) Chrome/99.0.4844.83 Safari/537.36",1440,900,1440,789,main,1535329,21,8,19,16,HM,Moderate,Harder than Reference,D,k,safeDeck,riskyDeck,0,14,7,left,0,0,39,absent,safeDeck,3871,4325
vhxtg6u2wr,13502,04/04/2022@15:36:25,"Mozilla/5.0 (Macintosh; Intel Mac OS X 10_15_7) AppleWebKit/537.36 (KHTML, like Gecko) Chrome/99.0.4844.83 Safari/537.36",1440,900,1440,789,main,1535329,21,9,19,16,HM,Moderate,Harder than Reference,D,k,safeDeck,riskyDeck,0,14,7,left,0,0,39,absent,safeDeck,3871,3103
vhxtg6u2wr,13502,04/04/2022@15:36:25,"Mozilla/5.0 (Macintosh; Intel Mac OS X 10_15_7) AppleWebKit/537.36 (KHTML, like Gecko) Chrome/99.0.4844.83 Safari/537.36",1440,900,1440,789,main,1535329,22,1,19,16,EM,Moderate,Easier than Reference,D,k,riskyDeck,safeDeck,0,-28,-14,left,1,0,32,absent,riskyDeck,2251,3451
vhxtg6u2wr,13502,04/04/2022@15:36:25,"Mozilla/5.0 (Macintosh; Intel Mac OS X 10_15_7) AppleWebKit/537.36 (KHTML, like Gecko) Chrome/99.0.4844.83 Safari/537.36",1440,900,1440,789,main,1535329,22,2,19,16,EM,Moderate,Easier than Reference,D,k,riskyDeck,safeDeck,0,-28,-14,left,1,0,32,absent,riskyDeck,2251,2619
vhxtg6u2wr,13502,04/04/2022@15:36:25,"Mozilla/5.0 (Macintosh; Intel Mac OS X 10_15_7) AppleWebKit/537.36 (KHTML, like Gecko) Chrome/99.0.4844.83 Safari/537.36",1440,900,1440,789,main,1535329,22,3,19,16,EM,Moderate,Easier than Reference,D,k,riskyDeck,safeDeck,0,-28,-14,left,1,0,32,absent,riskyDeck,2251,2022
vhxtg6u2wr,13502,04/04/2022@15:36:25,"Mozilla/5.0 (Macintosh; Intel Mac OS X 10_15_7) AppleWebKit/537.36 (KHTML, like Gecko) Chrome/99.0.4844.83 Safari/537.36",1440,900,1440,789,main,1535329,22,4,19,16,EM,Moderate,Easier than Reference,D,k,riskyDeck,safeDeck,0,-28,-14,left,1,0,32,absent,riskyDeck,2251,2052
vhxtg6u2wr,13502,04/04/2022@15:36:25,"Mozilla/5.0 (Macintosh; Intel Mac OS X 10_15_7) AppleWebKit/537.36 (KHTML, like Gecko) Chrome/99.0.4844.83 Safari/537.36",1440,900,1440,789,main,1535329,22,5,19,17,EM,Moderate,Easier than Reference,D,k,riskyDeck,safeDeck,0,-28,-14,left,1,1,32,present,riskyDeck,2251,2900
vhxtg6u2wr,13502,04/04/2022@15:36:25,"Mozilla/5.0 (Macintosh; Intel Mac OS X 10_15_7) AppleWebKit/537.36 (KHTML, like Gecko) Chrome/99.0.4844.83 Safari/537.36",1440,900,1440,789,main,1535329,22,6,19,17,EM,Moderate,Easier than Reference,D,k,riskyDeck,safeDeck,0,-28,-14,left,1,1,32,present,riskyDeck,2251,1417
vhxtg6u2wr,13502,04/04/2022@15:36:25,"Mozilla/5.0 (Macintosh; Intel Mac OS X 10_15_7) AppleWebKit/537.36 (KHTML, like Gecko) Chrome/99.0.4844.83 Safari/537.36",1440,900,1440,789,main,1535329,22,7,19,17,EM,Moderate,Easier than Reference,D,k,riskyDeck,safeDeck,0,-28,-14,left,1,0,32,absent,riskyDeck,2251,1695
vhxtg6u2wr,13502,04/04/2022@15:36:25,"Mozilla/5.0 (Macintosh; Intel Mac OS X 10_15_7) AppleWebKit/537.36 (KHTML, like Gecko) Chrome/99.0.4844.83 Safari/537.36",1440,900,1440,789,main,1535329,22,8,19,17,EM,Moderate,Easier than Reference,D,j,riskyDeck,safeDeck,0,-28,-14,left,1,0,32,present,riskyDeck,2251,1887
vhxtg6u2wr,13502,04/04/2022@15:36:25,"Mozilla/5.0 (Macintosh; Intel Mac OS X 10_15_7) AppleWebKit/537.36 (KHTML, like Gecko) Chrome/99.0.4844.83 Safari/537.36",1440,900,1440,789,main,1535329,22,9,19,17,EM,Moderate,Easier than Reference,D,j,riskyDeck,safeDeck,0,-28,-14,left,1,0,32,present,riskyDeck,2251,865
vhxtg6u2wr,13502,04/04/2022@15:36:25,"Mozilla/5.0 (Macintosh; Intel Mac OS X 10_15_7) AppleWebKit/537.36 (KHTML, like Gecko) Chrome/99.0.4844.83 Safari/537.36",1440,900,1440,789,main,1535329,23,1,19,17,HE,Extreme,Harder than Reference,D,j,safeDeck,riskyDeck,28,0,14,left,0,0,46,present,safeDeck,1644,1073
vhxtg6u2wr,13502,04/04/2022@15:36:25,"Mozilla/5.0 (Macintosh; Intel Mac OS X 10_15_7) AppleWebKit/537.36 (KHTML, like Gecko) Chrome/99.0.4844.83 Safari/537.36",1440,900,1440,789,main,1535329,23,2,19,17,HE,Extreme,Harder than Reference,D,k,safeDeck,riskyDeck,28,0,14,left,0,0,46,absent,safeDeck,1644,3473
vhxtg6u2wr,13502,04/04/2022@15:36:25,"Mozilla/5.0 (Macintosh; Intel Mac OS X 10_15_7) AppleWebKit/537.36 (KHTML, like Gecko) Chrome/99.0.4844.83 Safari/537.36",1440,900,1440,789,main,1535329,23,3,19,17,HE,Extreme,Harder than Reference,D,k,safeDeck,riskyDeck,28,0,14,left,0,1,46,present,safeDeck,1644,1815
vhxtg6u2wr,13502,04/04/2022@15:36:25,"Mozilla/5.0 (Macintosh; Intel Mac OS X 10_15_7) AppleWebKit/537.36 (KHTML, like Gecko) Chrome/99.0.4844.83 Safari/537.36",1440,900,1440,789,main,1535329,23,4,19,17,HE,Extreme,Harder than Reference,D,j,safeDeck,riskyDeck,28,0,14,left,0,0,46,present,safeDeck,1644,1561
vhxtg6u2wr,13502,04/04/2022@15:36:25,"Mozilla/5.0 (Macintosh; Intel Mac OS X 10_15_7) AppleWebKit/537.36 (KHTML, like Gecko) Chrome/99.0.4844.83 Safari/537.36",1440,900,1440,789,main,1535329,23,5,19,17,HE,Extreme,Harder than Reference,D,j,safeDeck,riskyDeck,28,0,14,left,0,0,46,present,safeDeck,1644,1842
vhxtg6u2wr,13502,04/04/2022@15:36:25,"Mozilla/5.0 (Macintosh; Intel Mac OS X 10_15_7) AppleWebKit/537.36 (KHTML, like Gecko) Chrome/99.0.4844.83 Safari/537.36",1440,900,1440,789,main,1535329,23,6,19,17,HE,Extreme,Harder than Reference,D,j,safeDeck,riskyDeck,28,0,14,left,0,0,46,present,safeDeck,1644,921
vhxtg6u2wr,13502,04/04/2022@15:36:25,"Mozilla/5.0 (Macintosh; Intel Mac OS X 10_15_7) AppleWebKit/537.36 (KHTML, like Gecko) Chrome/99.0.4844.83 Safari/537.36",1440,900,1440,789,main,1535329,23,7,19,17,HE,Extreme,Harder than Reference,D,k,safeDeck,riskyDeck,28,0,14,left,0,0,46,absent,safeDeck,1644,3019
vhxtg6u2wr,13502,04/04/2022@15:36:25,"Mozilla/5.0 (Macintosh; Intel Mac OS X 10_15_7) AppleWebKit/537.36 (KHTML, like Gecko) Chrome/99.0.4844.83 Safari/537.36",1440,900,1440,789,main,1535329,23,8,20,17,HE,Extreme,Harder than Reference,D,k,safeDeck,riskyDeck,28,0,14,left,0,1,46,present,safeDeck,1644,3750
vhxtg6u2wr,13502,04/04/2022@15:36:25,"Mozilla/5.0 (Macintosh; Intel Mac OS X 10_15_7) AppleWebKit/537.36 (KHTML, like Gecko) Chrome/99.0.4844.83 Safari/537.36",1440,900,1440,789,main,1535329,23,9,20,17,HE,Extreme,Harder than Reference,D,j,safeDeck,riskyDeck,28,0,14,left,0,0,46,present,safeDeck,1644,3226
vhxtg6u2wr,13502,04/04/2022@15:36:25,"Mozilla/5.0 (Macintosh; Intel Mac OS X 10_15_7) AppleWebKit/537.36 (KHTML, like Gecko) Chrome/99.0.4844.83 Safari/537.36",1440,900,1440,789,main,1535329,24,1,20,17,EE,Extreme,Easier than Reference,F,k,safeDeck,riskyDeck,0,-14,-7,right,1,0,32,absent,riskyDeck,2169,3051
vhxtg6u2wr,13502,04/04/2022@15:36:25,"Mozilla/5.0 (Macintosh; Intel Mac OS X 10_15_7) AppleWebKit/537.36 (KHTML, like Gecko) Chrome/99.0.4844.83 Safari/537.36",1440,900,1440,789,main,1535329,24,2,20,17,EE,Extreme,Easier than Reference,F,k,safeDeck,riskyDeck,0,-14,-7,right,1,0,32,absent,riskyDeck,2169,2131
vhxtg6u2wr,13502,04/04/2022@15:36:25,"Mozilla/5.0 (Macintosh; Intel Mac OS X 10_15_7) AppleWebKit/537.36 (KHTML, like Gecko) Chrome/99.0.4844.83 Safari/537.36",1440,900,1440,789,main,1535329,24,3,20,17,EE,Extreme,Easier than Reference,F,k,safeDeck,riskyDeck,0,-14,-7,right,1,0,32,absent,riskyDeck,2169,2113
vhxtg6u2wr,13502,04/04/2022@15:36:25,"Mozilla/5.0 (Macintosh; Intel Mac OS X 10_15_7) AppleWebKit/537.36 (KHTML, like Gecko) Chrome/99.0.4844.83 Safari/537.36",1440,900,1440,789,main,1535329,24,4,20,17,EE,Extreme,Easier than Reference,F,j,safeDeck,riskyDeck,0,-14,-7,right,1,0,32,present,riskyDeck,2169,1973
vhxtg6u2wr,13502,04/04/2022@15:36:25,"Mozilla/5.0 (Macintosh; Intel Mac OS X 10_15_7) AppleWebKit/537.36 (KHTML, like Gecko) Chrome/99.0.4844.83 Safari/537.36",1440,900,1440,789,main,1535329,24,5,20,18,EE,Extreme,Easier than Reference,F,j,safeDeck,riskyDeck,0,-14,-7,right,1,0,32,present,riskyDeck,2169,1755
vhxtg6u2wr,13502,04/04/2022@15:36:25,"Mozilla/5.0 (Macintosh; Intel Mac OS X 10_15_7) AppleWebKit/537.36 (KHTML, like Gecko) Chrome/99.0.4844.83 Safari/537.36",1440,900,1440,789,main,1535329,24,6,20,18,EE,Extreme,Easier than Reference,F,k,safeDeck,riskyDeck,0,-14,-7,right,1,0,32,absent,riskyDeck,2169,3674
vhxtg6u2wr,13502,04/04/2022@15:36:25,"Mozilla/5.0 (Macintosh; Intel Mac OS X 10_15_7) AppleWebKit/537.36 (KHTML, like Gecko) Chrome/99.0.4844.83 Safari/537.36",1440,900,1440,789,main,1535329,24,7,20,18,EE,Extreme,Easier than Reference,F,k,safeDeck,riskyDeck,0,-14,-7,right,1,0,32,absent,riskyDeck,2169,2117
vhxtg6u2wr,13502,04/04/2022@15:36:25,"Mozilla/5.0 (Macintosh; Intel Mac OS X 10_15_7) AppleWebKit/537.36 (KHTML, like Gecko) Chrome/99.0.4844.83 Safari/537.36",1440,900,1440,789,main,1535329,24,8,20,18,EE,Extreme,Easier than Reference,F,k,safeDeck,riskyDeck,0,-14,-7,right,1,0,32,absent,riskyDeck,2169,2267
vhxtg6u2wr,13502,04/04/2022@15:36:25,"Mozilla/5.0 (Macintosh; Intel Mac OS X 10_15_7) AppleWebKit/537.36 (KHTML, like Gecko) Chrome/99.0.4844.83 Safari/537.36",1440,900,1440,789,main,1535329,24,9,20,18,EE,Extreme,Easier than Reference,F,k,safeDeck,riskyDeck,0,-14,-7,right,1,0,32,absent,riskyDeck,2169,2631
vhxtg6u2wr,13502,04/04/2022@15:36:25,"Mozilla/5.0 (Macintosh; Intel Mac OS X 10_15_7) AppleWebKit/537.36 (KHTML, like Gecko) Chrome/99.0.4844.83 Safari/537.36",1440,900,1440,789,main,1535329,25,1,20,18,EM,Moderate,Easier than Reference,F,k,safeDeck,riskyDeck,-28,0,-14,right,1,0,4,absent,riskyDeck,2030,1046
vhxtg6u2wr,13502,04/04/2022@15:36:25,"Mozilla/5.0 (Macintosh; Intel Mac OS X 10_15_7) AppleWebKit/537.36 (KHTML, like Gecko) Chrome/99.0.4844.83 Safari/537.36",1440,900,1440,789,main,1535329,25,2,20,18,EM,Moderate,Easier than Reference,F,k,safeDeck,riskyDeck,-28,0,-14,right,1,0,4,absent,riskyDeck,2030,425
vhxtg6u2wr,13502,04/04/2022@15:36:25,"Mozilla/5.0 (Macintosh; Intel Mac OS X 10_15_7) AppleWebKit/537.36 (KHTML, like Gecko) Chrome/99.0.4844.83 Safari/537.36",1440,900,1440,789,main,1535329,25,3,20,18,EM,Moderate,Easier than Reference,F,j,safeDeck,riskyDeck,-28,0,-14,right,1,0,4,present,riskyDeck,2030,737
vhxtg6u2wr,13502,04/04/2022@15:36:25,"Mozilla/5.0 (Macintosh; Intel Mac OS X 10_15_7) AppleWebKit/537.36 (KHTML, like Gecko) Chrome/99.0.4844.83 Safari/537.36",1440,900,1440,789,main,1535329,25,4,20,18,EM,Moderate,Easier than Reference,F,k,safeDeck,riskyDeck,-28,0,-14,right,1,0,4,absent,riskyDeck,2030,944
vhxtg6u2wr,13502,04/04/2022@15:36:25,"Mozilla/5.0 (Macintosh; Intel Mac OS X 10_15_7) AppleWebKit/537.36 (KHTML, like Gecko) Chrome/99.0.4844.83 Safari/537.36",1440,900,1440,789,main,1535329,25,5,20,18,EM,Moderate,Easier than Reference,F,k,safeDeck,riskyDeck,-28,0,-14,right,1,0,4,absent,riskyDeck,2030,796
vhxtg6u2wr,13502,04/04/2022@15:36:25,"Mozilla/5.0 (Macintosh; Intel Mac OS X 10_15_7) AppleWebKit/537.36 (KHTML, like Gecko) Chrome/99.0.4844.83 Safari/537.36",1440,900,1440,789,main,1535329,25,6,20,18,EM,Moderate,Easier than Reference,F,k,safeDeck,riskyDeck,-28,0,-14,right,1,0,4,absent,riskyDeck,2030,666
vhxtg6u2wr,13502,04/04/2022@15:36:25,"Mozilla/5.0 (Macintosh; Intel Mac OS X 10_15_7) AppleWebKit/537.36 (KHTML, like Gecko) Chrome/99.0.4844.83 Safari/537.36",1440,900,1440,789,main,1535329,25,7,20,18,EM,Moderate,Easier than Reference,F,j,safeDeck,riskyDeck,-28,0,-14,right,1,0,4,present,riskyDeck,2030,833
vhxtg6u2wr,13502,04/04/2022@15:36:25,"Mozilla/5.0 (Macintosh; Intel Mac OS X 10_15_7) AppleWebKit/537.36 (KHTML, like Gecko) Chrome/99.0.4844.83 Safari/537.36",1440,900,1440,789,main,1535329,25,8,20,18,EM,Moderate,Easier than Reference,F,k,safeDeck,riskyDeck,-28,0,-14,right,1,0,4,absent,riskyDeck,2030,800
vhxtg6u2wr,13502,04/04/2022@15:36:25,"Mozilla/5.0 (Macintosh; Intel Mac OS X 10_15_7) AppleWebKit/537.36 (KHTML, like Gecko) Chrome/99.0.4844.83 Safari/537.36",1440,900,1440,789,main,1535329,25,9,20,18,EM,Moderate,Easier than Reference,F,j,safeDeck,riskyDeck,-28,0,-14,right,1,0,4,present,riskyDeck,2030,966
vhxtg6u2wr,13502,04/04/2022@15:36:25,"Mozilla/5.0 (Macintosh; Intel Mac OS X 10_15_7) AppleWebKit/537.36 (KHTML, like Gecko) Chrome/99.0.4844.83 Safari/537.36",1440,900,1440,789,main,1535329,26,1,20,18,HE,Extreme,Harder than Reference,F,k,riskyDeck,safeDeck,0,28,14,right,0,0,46,absent,safeDeck,2268,3563
vhxtg6u2wr,13502,04/04/2022@15:36:25,"Mozilla/5.0 (Macintosh; Intel Mac OS X 10_15_7) AppleWebKit/537.36 (KHTML, like Gecko) Chrome/99.0.4844.83 Safari/537.36",1440,900,1440,789,main,1535329,26,2,21,18,HE,Extreme,Harder than Reference,F,k,riskyDeck,safeDeck,0,28,14,right,0,0,46,absent,safeDeck,2268,3746
vhxtg6u2wr,13502,04/04/2022@15:36:25,"Mozilla/5.0 (Macintosh; Intel Mac OS X 10_15_7) AppleWebKit/537.36 (KHTML, like Gecko) Chrome/99.0.4844.83 Safari/537.36",1440,900,1440,789,main,1535329,26,3,21,18,HE,Extreme,Harder than Reference,F,k,riskyDeck,safeDeck,0,28,14,right,0,0,46,absent,safeDeck,2268,4370
vhxtg6u2wr,13502,04/04/2022@15:36:25,"Mozilla/5.0 (Macintosh; Intel Mac OS X 10_15_7) AppleWebKit/537.36 (KHTML, like Gecko) Chrome/99.0.4844.83 Safari/537.36",1440,900,1440,789,main,1535329,26,4,21,18,HE,Extreme,Harder than Reference,F,k,riskyDeck,safeDeck,0,28,14,right,0,0,46,absent,safeDeck,2268,4444
vhxtg6u2wr,13502,04/04/2022@15:36:25,"Mozilla/5.0 (Macintosh; Intel Mac OS X 10_15_7) AppleWebKit/537.36 (KHTML, like Gecko) Chrome/99.0.4844.83 Safari/537.36",1440,900,1440,789,main,1535329,26,5,21,18,HE,Extreme,Harder than Reference,F,j,riskyDeck,safeDeck,0,28,14,right,0,0,46,present,safeDeck,2268,2298
vhxtg6u2wr,13502,04/04/2022@15:36:25,"Mozilla/5.0 (Macintosh; Intel Mac OS X 10_15_7) AppleWebKit/537.36 (KHTML, like Gecko) Chrome/99.0.4844.83 Safari/537.36",1440,900,1440,789,main,1535329,26,6,21,18,HE,Extreme,Harder than Reference,F,j,riskyDeck,safeDeck,0,28,14,right,0,0,46,present,safeDeck,2268,2389
vhxtg6u2wr,13502,04/04/2022@15:36:25,"Mozilla/5.0 (Macintosh; Intel Mac OS X 10_15_7) AppleWebKit/537.36 (KHTML, like Gecko) Chrome/99.0.4844.83 Safari/537.36",1440,900,1440,789,main,1535329,26,7,21,18,HE,Extreme,Harder than Reference,F,k,riskyDeck,safeDeck,0,28,14,right,0,0,46,absent,safeDeck,2268,3588
vhxtg6u2wr,13502,04/04/2022@15:36:25,"Mozilla/5.0 (Macintosh; Intel Mac OS X 10_15_7) AppleWebKit/537.36 (KHTML, like Gecko) Chrome/99.0.4844.83 Safari/537.36",1440,900,1440,789,main,1535329,26,8,21,18,HE,Extreme,Harder than Reference,F,j,riskyDeck,safeDeck,0,28,14,right,0,0,46,present,safeDeck,2268,2602
vhxtg6u2wr,13502,04/04/2022@15:36:25,"Mozilla/5.0 (Macintosh; Intel Mac OS X 10_15_7) AppleWebKit/537.36 (KHTML, like Gecko) Chrome/99.0.4844.83 Safari/537.36",1440,900,1440,789,main,1535329,26,9,21,19,HE,Extreme,Harder than Reference,F,k,riskyDeck,safeDeck,0,28,14,right,0,1,46,present,safeDeck,2268,2752
vhxtg6u2wr,13502,04/04/2022@15:36:25,"Mozilla/5.0 (Macintosh; Intel Mac OS X 10_15_7) AppleWebKit/537.36 (KHTML, like Gecko) Chrome/99.0.4844.83 Safari/537.36",1440,900,1440,789,main,1535329,27,1,21,19,EE,Extreme,Easier than Reference,F,j,safeDeck,riskyDeck,0,-14,-7,right,1,0,32,present,riskyDeck,1424,2382
vhxtg6u2wr,13502,04/04/2022@15:36:25,"Mozilla/5.0 (Macintosh; Intel Mac OS X 10_15_7) AppleWebKit/537.36 (KHTML, like Gecko) Chrome/99.0.4844.83 Safari/537.36",1440,900,1440,789,main,1535329,27,2,21,19,EE,Extreme,Easier than Reference,F,j,safeDeck,riskyDeck,0,-14,-7,right,1,0,32,present,riskyDeck,1424,2071
vhxtg6u2wr,13502,04/04/2022@15:36:25,"Mozilla/5.0 (Macintosh; Intel Mac OS X 10_15_7) AppleWebKit/537.36 (KHTML, like Gecko) Chrome/99.0.4844.83 Safari/537.36",1440,900,1440,789,main,1535329,27,3,21,19,EE,Extreme,Easier than Reference,F,k,safeDeck,riskyDeck,0,-14,-7,right,1,0,32,absent,riskyDeck,1424,5383
vhxtg6u2wr,13502,04/04/2022@15:36:25,"Mozilla/5.0 (Macintosh; Intel Mac OS X 10_15_7) AppleWebKit/537.36 (KHTML, like Gecko) Chrome/99.0.4844.83 Safari/537.36",1440,900,1440,789,main,1535329,27,4,21,19,EE,Extreme,Easier than Reference,F,j,safeDeck,riskyDeck,0,-14,-7,right,1,0,32,present,riskyDeck,1424,2926
vhxtg6u2wr,13502,04/04/2022@15:36:25,"Mozilla/5.0 (Macintosh; Intel Mac OS X 10_15_7) AppleWebKit/537.36 (KHTML, like Gecko) Chrome/99.0.4844.83 Safari/537.36",1440,900,1440,789,main,1535329,27,5,21,19,EE,Extreme,Easier than Reference,F,k,safeDeck,riskyDeck,0,-14,-7,right,1,0,32,absent,riskyDeck,1424,3167
vhxtg6u2wr,13502,04/04/2022@15:36:25,"Mozilla/5.0 (Macintosh; Intel Mac OS X 10_15_7) AppleWebKit/537.36 (KHTML, like Gecko) Chrome/99.0.4844.83 Safari/537.36",1440,900,1440,789,main,1535329,27,6,21,19,EE,Extreme,Easier than Reference,F,j,safeDeck,riskyDeck,0,-14,-7,right,1,0,32,present,riskyDeck,1424,4122
vhxtg6u2wr,13502,04/04/2022@15:36:25,"Mozilla/5.0 (Macintosh; Intel Mac OS X 10_15_7) AppleWebKit/537.36 (KHTML, like Gecko) Chrome/99.0.4844.83 Safari/537.36",1440,900,1440,789,main,1535329,27,7,21,19,EE,Extreme,Easier than Reference,F,k,safeDeck,riskyDeck,0,-14,-7,right,1,0,32,absent,riskyDeck,1424,2311
vhxtg6u2wr,13502,04/04/2022@15:36:25,"Mozilla/5.0 (Macintosh; Intel Mac OS X 10_15_7) AppleWebKit/537.36 (KHTML, like Gecko) Chrome/99.0.4844.83 Safari/537.36",1440,900,1440,789,main,1535329,27,8,21,19,EE,Extreme,Easier than Reference,F,k,safeDeck,riskyDeck,0,-14,-7,right,1,0,32,absent,riskyDeck,1424,1754
vhxtg6u2wr,13502,04/04/2022@15:36:25,"Mozilla/5.0 (Macintosh; Intel Mac OS X 10_15_7) AppleWebKit/537.36 (KHTML, like Gecko) Chrome/99.0.4844.83 Safari/537.36",1440,900,1440,789,main,1535329,27,9,21,19,EE,Extreme,Easier than Reference,F,j,safeDeck,riskyDeck,0,-14,-7,right,1,0,32,present,riskyDeck,1424,1627
vhxtg6u2wr,13502,04/04/2022@15:36:25,"Mozilla/5.0 (Macintosh; Intel Mac OS X 10_15_7) AppleWebKit/537.36 (KHTML, like Gecko) Chrome/99.0.4844.83 Safari/537.36",1440,900,1440,789,main,1535329,28,1,22,19,HM,Moderate,Harder than Reference,F,j,safeDeck,riskyDeck,0,14,7,right,1,0,46,present,riskyDeck,2583,2120
vhxtg6u2wr,13502,04/04/2022@15:36:25,"Mozilla/5.0 (Macintosh; Intel Mac OS X 10_15_7) AppleWebKit/537.36 (KHTML, like Gecko) Chrome/99.0.4844.83 Safari/537.36",1440,900,1440,789,main,1535329,28,2,22,19,HM,Moderate,Harder than Reference,F,k,safeDeck,riskyDeck,0,14,7,right,1,0,46,absent,riskyDeck,2583,3214
vhxtg6u2wr,13502,04/04/2022@15:36:25,"Mozilla/5.0 (Macintosh; Intel Mac OS X 10_15_7) AppleWebKit/537.36 (KHTML, like Gecko) Chrome/99.0.4844.83 Safari/537.36",1440,900,1440,789,main,1535329,28,3,22,19,HM,Moderate,Harder than Reference,F,k,safeDeck,riskyDeck,0,14,7,right,1,0,46,absent,riskyDeck,2583,2573
vhxtg6u2wr,13502,04/04/2022@15:36:25,"Mozilla/5.0 (Macintosh; Intel Mac OS X 10_15_7) AppleWebKit/537.36 (KHTML, like Gecko) Chrome/99.0.4844.83 Safari/537.36",1440,900,1440,789,main,1535329,28,4,22,19,HM,Moderate,Harder than Reference,F,j,safeDeck,riskyDeck,0,14,7,right,1,0,46,present,riskyDeck,2583,3788
vhxtg6u2wr,13502,04/04/2022@15:36:25,"Mozilla/5.0 (Macintosh; Intel Mac OS X 10_15_7) AppleWebKit/537.36 (KHTML, like Gecko) Chrome/99.0.4844.83 Safari/537.36",1440,900,1440,789,main,1535329,28,5,22,19,HM,Moderate,Harder than Reference,F,j,safeDeck,riskyDeck,0,14,7,right,1,0,46,present,riskyDeck,2583,1137
vhxtg6u2wr,13502,04/04/2022@15:36:25,"Mozilla/5.0 (Macintosh; Intel Mac OS X 10_15_7) AppleWebKit/537.36 (KHTML, like Gecko) Chrome/99.0.4844.83 Safari/537.36",1440,900,1440,789,main,1535329,28,6,22,19,HM,Moderate,Harder than Reference,F,k,safeDeck,riskyDeck,0,14,7,right,1,0,46,absent,riskyDeck,2583,4205
vhxtg6u2wr,13502,04/04/2022@15:36:25,"Mozilla/5.0 (Macintosh; Intel Mac OS X 10_15_7) AppleWebKit/537.36 (KHTML, like Gecko) Chrome/99.0.4844.83 Safari/537.36",1440,900,1440,789,main,1535329,28,7,22,20,HM,Moderate,Harder than Reference,F,k,safeDeck,riskyDeck,0,14,7,right,1,0,46,absent,riskyDeck,2583,4386
vhxtg6u2wr,13502,04/04/2022@15:36:25,"Mozilla/5.0 (Macintosh; Intel Mac OS X 10_15_7) AppleWebKit/537.36 (KHTML, like Gecko) Chrome/99.0.4844.83 Safari/537.36",1440,900,1440,789,main,1535329,28,8,22,20,HM,Moderate,Harder than Reference,F,k,safeDeck,riskyDeck,0,14,7,right,1,1,46,present,riskyDeck,2583,4261
vhxtg6u2wr,13502,04/04/2022@15:36:25,"Mozilla/5.0 (Macintosh; Intel Mac OS X 10_15_7) AppleWebKit/537.36 (KHTML, like Gecko) Chrome/99.0.4844.83 Safari/537.36",1440,900,1440,789,main,1535329,28,9,22,20,HM,Moderate,Harder than Reference,F,k,safeDeck,riskyDeck,0,14,7,right,1,0,46,absent,riskyDeck,2583,4951
vhxtg6u2wr,13502,04/04/2022@15:36:25,"Mozilla/5.0 (Macintosh; Intel Mac OS X 10_15_7) AppleWebKit/537.36 (KHTML, like Gecko) Chrome/99.0.4844.83 Safari/537.36",1440,900,1440,789,main,1535329,29,1,22,20,HE,Extreme,Harder than Reference,D,j,riskyDeck,safeDeck,28,0,14,left,1,0,32,present,riskyDeck,2416,2772
vhxtg6u2wr,13502,04/04/2022@15:36:25,"Mozilla/5.0 (Macintosh; Intel Mac OS X 10_15_7) AppleWebKit/537.36 (KHTML, like Gecko) Chrome/99.0.4844.83 Safari/537.36",1440,900,1440,789,main,1535329,29,2,22,20,HE,Extreme,Harder than Reference,D,k,riskyDeck,safeDeck,28,0,14,left,1,0,32,absent,riskyDeck,2416,2602
vhxtg6u2wr,13502,04/04/2022@15:36:25,"Mozilla/5.0 (Macintosh; Intel Mac OS X 10_15_7) AppleWebKit/537.36 (KHTML, like Gecko) Chrome/99.0.4844.83 Safari/537.36",1440,900,1440,789,main,1535329,29,3,22,20,HE,Extreme,Harder than Reference,D,k,riskyDeck,safeDeck,28,0,14,left,1,0,32,absent,riskyDeck,2416,2806
vhxtg6u2wr,13502,04/04/2022@15:36:25,"Mozilla/5.0 (Macintosh; Intel Mac OS X 10_15_7) AppleWebKit/537.36 (KHTML, like Gecko) Chrome/99.0.4844.83 Safari/537.36",1440,900,1440,789,main,1535329,29,4,22,20,HE,Extreme,Harder than Reference,D,k,riskyDeck,safeDeck,28,0,14,left,1,0,32,absent,riskyDeck,2416,2204
vhxtg6u2wr,13502,04/04/2022@15:36:25,"Mozilla/5.0 (Macintosh; Intel Mac OS X 10_15_7) AppleWebKit/537.36 (KHTML, like Gecko) Chrome/99.0.4844.83 Safari/537.36",1440,900,1440,789,main,1535329,29,5,22,20,HE,Extreme,Harder than Reference,D,k,riskyDeck,safeDeck,28,0,14,left,1,0,32,absent,riskyDeck,2416,2624
vhxtg6u2wr,13502,04/04/2022@15:36:25,"Mozilla/5.0 (Macintosh; Intel Mac OS X 10_15_7) AppleWebKit/537.36 (KHTML, like Gecko) Chrome/99.0.4844.83 Safari/537.36",1440,900,1440,789,main,1535329,29,6,23,20,HE,Extreme,Harder than Reference,D,k,riskyDeck,safeDeck,28,0,14,left,1,0,32,absent,riskyDeck,2416,3377
vhxtg6u2wr,13502,04/04/2022@15:36:25,"Mozilla/5.0 (Macintosh; Intel Mac OS X 10_15_7) AppleWebKit/537.36 (KHTML, like Gecko) Chrome/99.0.4844.83 Safari/537.36",1440,900,1440,789,main,1535329,29,7,23,20,HE,Extreme,Harder than Reference,D,j,riskyDeck,safeDeck,28,0,14,left,1,0,32,present,riskyDeck,2416,2802
vhxtg6u2wr,13502,04/04/2022@15:36:25,"Mozilla/5.0 (Macintosh; Intel Mac OS X 10_15_7) AppleWebKit/537.36 (KHTML, like Gecko) Chrome/99.0.4844.83 Safari/537.36",1440,900,1440,789,main,1535329,29,8,23,20,HE,Extreme,Harder than Reference,D,j,riskyDeck,safeDeck,28,0,14,left,1,0,32,present,riskyDeck,2416,1152
vhxtg6u2wr,13502,04/04/2022@15:36:25,"Mozilla/5.0 (Macintosh; Intel Mac OS X 10_15_7) AppleWebKit/537.36 (KHTML, like Gecko) Chrome/99.0.4844.83 Safari/537.36",1440,900,1440,789,main,1535329,29,9,23,20,HE,Extreme,Harder than Reference,D,j,riskyDeck,safeDeck,28,0,14,left,1,0,32,present,riskyDeck,2416,1353
vhxtg6u2wr,13502,04/04/2022@15:36:25,"Mozilla/5.0 (Macintosh; Intel Mac OS X 10_15_7) AppleWebKit/537.36 (KHTML, like Gecko) Chrome/99.0.4844.83 Safari/537.36",1440,900,1440,789,main,1535329,30,1,23,20,EM,Moderate,Easier than Reference,D,j,riskyDeck,safeDeck,0,-28,-14,left,1,0,32,present,riskyDeck,1588,5034
vhxtg6u2wr,13502,04/04/2022@15:36:25,"Mozilla/5.0 (Macintosh; Intel Mac OS X 10_15_7) AppleWebKit/537.36 (KHTML, like Gecko) Chrome/99.0.4844.83 Safari/537.36",1440,900,1440,789,main,1535329,30,2,23,20,EM,Moderate,Easier than Reference,D,j,riskyDeck,safeDeck,0,-28,-14,left,1,0,32,present,riskyDeck,1588,1956
vhxtg6u2wr,13502,04/04/2022@15:36:25,"Mozilla/5.0 (Macintosh; Intel Mac OS X 10_15_7) AppleWebKit/537.36 (KHTML, like Gecko) Chrome/99.0.4844.83 Safari/537.36",1440,900,1440,789,main,1535329,30,3,23,20,EM,Moderate,Easier than Reference,D,k,riskyDeck,safeDeck,0,-28,-14,left,1,0,32,absent,riskyDeck,1588,2749
vhxtg6u2wr,13502,04/04/2022@15:36:25,"Mozilla/5.0 (Macintosh; Intel Mac OS X 10_15_7) AppleWebKit/537.36 (KHTML, like Gecko) Chrome/99.0.4844.83 Safari/537.36",1440,900,1440,789,main,1535329,30,4,23,21,EM,Moderate,Easier than Reference,D,k,riskyDeck,safeDeck,0,-28,-14,left,1,0,32,absent,riskyDeck,1588,3103
vhxtg6u2wr,13502,04/04/2022@15:36:25,"Mozilla/5.0 (Macintosh; Intel Mac OS X 10_15_7) AppleWebKit/537.36 (KHTML, like Gecko) Chrome/99.0.4844.83 Safari/537.36",1440,900,1440,789,main,1535329,30,5,23,21,EM,Moderate,Easier than Reference,D,k,riskyDeck,safeDeck,0,-28,-14,left,1,0,32,absent,riskyDeck,1588,2878
vhxtg6u2wr,13502,04/04/2022@15:36:25,"Mozilla/5.0 (Macintosh; Intel Mac OS X 10_15_7) AppleWebKit/537.36 (KHTML, like Gecko) Chrome/99.0.4844.83 Safari/537.36",1440,900,1440,789,main,1535329,30,6,23,21,EM,Moderate,Easier than Reference,D,j,riskyDeck,safeDeck,0,-28,-14,left,1,0,32,present,riskyDeck,1588,2256
vhxtg6u2wr,13502,04/04/2022@15:36:25,"Mozilla/5.0 (Macintosh; Intel Mac OS X 10_15_7) AppleWebKit/537.36 (KHTML, like Gecko) Chrome/99.0.4844.83 Safari/537.36",1440,900,1440,789,main,1535329,30,7,23,21,EM,Moderate,Easier than Reference,D,k,riskyDeck,safeDeck,0,-28,-14,left,1,0,32,absent,riskyDeck,1588,3001
vhxtg6u2wr,13502,04/04/2022@15:36:25,"Mozilla/5.0 (Macintosh; Intel Mac OS X 10_15_7) AppleWebKit/537.36 (KHTML, like Gecko) Chrome/99.0.4844.83 Safari/537.36",1440,900,1440,789,main,1535329,30,8,23,21,EM,Moderate,Easier than Reference,D,j,riskyDeck,safeDeck,0,-28,-14,left,1,0,32,present,riskyDeck,1588,2147
vhxtg6u2wr,13502,04/04/2022@15:36:25,"Mozilla/5.0 (Macintosh; Intel Mac OS X 10_15_7) AppleWebKit/537.36 (KHTML, like Gecko) Chrome/99.0.4844.83 Safari/537.36",1440,900,1440,789,main,1535329,30,9,23,21,EM,Moderate,Easier than Reference,D,j,riskyDeck,safeDeck,0,-28,-14,left,1,0,32,present,riskyDeck,1588,2000
vhxtg6u2wr,13502,04/04/2022@15:36:25,"Mozilla/5.0 (Macintosh; Intel Mac OS X 10_15_7) AppleWebKit/537.36 (KHTML, like Gecko) Chrome/99.0.4844.83 Safari/537.36",1440,900,1440,789,main,1535329,31,1,23,21,EE,Extreme,Easier than Reference,F,k,safeDeck,riskyDeck,0,-14,-7,right,1,0,32,absent,riskyDeck,2425,3164
vhxtg6u2wr,13502,04/04/2022@15:36:25,"Mozilla/5.0 (Macintosh; Intel Mac OS X 10_15_7) AppleWebKit/537.36 (KHTML, like Gecko) Chrome/99.0.4844.83 Safari/537.36",1440,900,1440,789,main,1535329,31,2,23,21,EE,Extreme,Easier than Reference,F,k,safeDeck,riskyDeck,0,-14,-7,right,1,0,32,absent,riskyDeck,2425,2000
vhxtg6u2wr,13502,04/04/2022@15:36:25,"Mozilla/5.0 (Macintosh; Intel Mac OS X 10_15_7) AppleWebKit/537.36 (KHTML, like Gecko) Chrome/99.0.4844.83 Safari/537.36",1440,900,1440,789,main,1535329,31,3,23,21,EE,Extreme,Easier than Reference,F,k,safeDeck,riskyDeck,0,-14,-7,right,1,0,32,absent,riskyDeck,2425,1686
vhxtg6u2wr,13502,04/04/2022@15:36:25,"Mozilla/5.0 (Macintosh; Intel Mac OS X 10_15_7) AppleWebKit/537.36 (KHTML, like Gecko) Chrome/99.0.4844.83 Safari/537.36",1440,900,1440,789,main,1535329,31,4,23,21,EE,Extreme,Easier than Reference,F,k,safeDeck,riskyDeck,0,-14,-7,right,1,0,32,absent,riskyDeck,2425,2036
vhxtg6u2wr,13502,04/04/2022@15:36:25,"Mozilla/5.0 (Macintosh; Intel Mac OS X 10_15_7) AppleWebKit/537.36 (KHTML, like Gecko) Chrome/99.0.4844.83 Safari/537.36",1440,900,1440,789,main,1535329,31,5,23,21,EE,Extreme,Easier than Reference,F,j,safeDeck,riskyDeck,0,-14,-7,right,1,0,32,present,riskyDeck,2425,2210
vhxtg6u2wr,13502,04/04/2022@15:36:25,"Mozilla/5.0 (Macintosh; Intel Mac OS X 10_15_7) AppleWebKit/537.36 (KHTML, like Gecko) Chrome/99.0.4844.83 Safari/537.36",1440,900,1440,789,main,1535329,31,6,23,21,EE,Extreme,Easier than Reference,F,j,safeDeck,riskyDeck,0,-14,-7,right,1,0,32,present,riskyDeck,2425,1669
vhxtg6u2wr,13502,04/04/2022@15:36:25,"Mozilla/5.0 (Macintosh; Intel Mac OS X 10_15_7) AppleWebKit/537.36 (KHTML, like Gecko) Chrome/99.0.4844.83 Safari/537.36",1440,900,1440,789,main,1535329,31,7,24,21,EE,Extreme,Easier than Reference,F,j,safeDeck,riskyDeck,0,-14,-7,right,1,0,32,present,riskyDeck,2425,3795
vhxtg6u2wr,13502,04/04/2022@15:36:25,"Mozilla/5.0 (Macintosh; Intel Mac OS X 10_15_7) AppleWebKit/537.36 (KHTML, like Gecko) Chrome/99.0.4844.83 Safari/537.36",1440,900,1440,789,main,1535329,31,8,24,21,EE,Extreme,Easier than Reference,F,k,safeDeck,riskyDeck,0,-14,-7,right,1,1,32,present,riskyDeck,2425,3641
vhxtg6u2wr,13502,04/04/2022@15:36:25,"Mozilla/5.0 (Macintosh; Intel Mac OS X 10_15_7) AppleWebKit/537.36 (KHTML, like Gecko) Chrome/99.0.4844.83 Safari/537.36",1440,900,1440,789,main,1535329,31,9,24,21,EE,Extreme,Easier than Reference,F,k,safeDeck,riskyDeck,0,-14,-7,right,1,0,32,absent,riskyDeck,2425,3324
vhxtg6u2wr,13502,04/04/2022@15:36:25,"Mozilla/5.0 (Macintosh; Intel Mac OS X 10_15_7) AppleWebKit/537.36 (KHTML, like Gecko) Chrome/99.0.4844.83 Safari/537.36",1440,900,1440,789,main,1535329,32,1,24,21,HM,Moderate,Harder than Reference,D,k,riskyDeck,safeDeck,14,0,7,left,1,0,46,absent,riskyDeck,1641,4257
vhxtg6u2wr,13502,04/04/2022@15:36:25,"Mozilla/5.0 (Macintosh; Intel Mac OS X 10_15_7) AppleWebKit/537.36 (KHTML, like Gecko) Chrome/99.0.4844.83 Safari/537.36",1440,900,1440,789,main,1535329,32,2,24,21,HM,Moderate,Harder than Reference,D,j,riskyDeck,safeDeck,14,0,7,left,1,0,46,present,riskyDeck,1641,828
vhxtg6u2wr,13502,04/04/2022@15:36:25,"Mozilla/5.0 (Macintosh; Intel Mac OS X 10_15_7) AppleWebKit/537.36 (KHTML, like Gecko) Chrome/99.0.4844.83 Safari/537.36",1440,900,1440,789,main,1535329,32,3,24,22,HM,Moderate,Harder than Reference,D,k,riskyDeck,safeDeck,14,0,7,left,1,0,46,absent,riskyDeck,1641,2856
vhxtg6u2wr,13502,04/04/2022@15:36:25,"Mozilla/5.0 (Macintosh; Intel Mac OS X 10_15_7) AppleWebKit/537.36 (KHTML, like Gecko) Chrome/99.0.4844.83 Safari/537.36",1440,900,1440,789,main,1535329,32,4,24,22,HM,Moderate,Harder than Reference,D,j,riskyDeck,safeDeck,14,0,7,left,1,0,46,present,riskyDeck,1641,1830
vhxtg6u2wr,13502,04/04/2022@15:36:25,"Mozilla/5.0 (Macintosh; Intel Mac OS X 10_15_7) AppleWebKit/537.36 (KHTML, like Gecko) Chrome/99.0.4844.83 Safari/537.36",1440,900,1440,789,main,1535329,32,5,24,22,HM,Moderate,Harder than Reference,D,k,riskyDeck,safeDeck,14,0,7,left,1,0,46,absent,riskyDeck,1641,3243
vhxtg6u2wr,13502,04/04/2022@15:36:25,"Mozilla/5.0 (Macintosh; Intel Mac OS X 10_15_7) AppleWebKit/537.36 (KHTML, like Gecko) Chrome/99.0.4844.83 Safari/537.36",1440,900,1440,789,main,1535329,32,6,24,22,HM,Moderate,Harder than Reference,D,k,riskyDeck,safeDeck,14,0,7,left,1,1,46,present,riskyDeck,1641,2185
vhxtg6u2wr,13502,04/04/2022@15:36:25,"Mozilla/5.0 (Macintosh; Intel Mac OS X 10_15_7) AppleWebKit/537.36 (KHTML, like Gecko) Chrome/99.0.4844.83 Safari/537.36",1440,900,1440,789,main,1535329,32,7,24,22,HM,Moderate,Harder than Reference,D,j,riskyDeck,safeDeck,14,0,7,left,1,0,46,present,riskyDeck,1641,1526
vhxtg6u2wr,13502,04/04/2022@15:36:25,"Mozilla/5.0 (Macintosh; Intel Mac OS X 10_15_7) AppleWebKit/537.36 (KHTML, like Gecko) Chrome/99.0.4844.83 Safari/537.36",1440,900,1440,789,main,1535329,32,8,24,22,HM,Moderate,Harder than Reference,D,k,riskyDeck,safeDeck,14,0,7,left,1,0,46,absent,riskyDeck,1641,3175
vhxtg6u2wr,13502,04/04/2022@15:36:25,"Mozilla/5.0 (Macintosh; Intel Mac OS X 10_15_7) AppleWebKit/537.36 (KHTML, like Gecko) Chrome/99.0.4844.83 Safari/537.36",1440,900,1440,789,main,1535329,32,9,24,22,HM,Moderate,Harder than Reference,D,k,riskyDeck,safeDeck,14,0,7,left,1,0,46,absent,riskyDeck,1641,2408
vhxtg6u2wr,13502,04/04/2022@15:36:25,"Mozilla/5.0 (Macintosh; Intel Mac OS X 10_15_7) AppleWebKit/537.36 (KHTML, like Gecko) Chrome/99.0.4844.83 Safari/537.36",1440,900,1440,789,main,1535329,33,1,24,22,HM,Moderate,Harder than Reference,F,k,riskyDeck,safeDeck,0,14,7,right,0,0,39,absent,safeDeck,1603,3251
vhxtg6u2wr,13502,04/04/2022@15:36:25,"Mozilla/5.0 (Macintosh; Intel Mac OS X 10_15_7) AppleWebKit/537.36 (KHTML, like Gecko) Chrome/99.0.4844.83 Safari/537.36",1440,900,1440,789,main,1535329,33,2,24,22,HM,Moderate,Harder than Reference,F,j,riskyDeck,safeDeck,0,14,7,right,0,0,39,present,safeDeck,1603,2524
vhxtg6u2wr,13502,04/04/2022@15:36:25,"Mozilla/5.0 (Macintosh; Intel Mac OS X 10_15_7) AppleWebKit/537.36 (KHTML, like Gecko) Chrome/99.0.4844.83 Safari/537.36",1440,900,1440,789,main,1535329,33,3,24,22,HM,Moderate,Harder than Reference,F,j,riskyDeck,safeDeck,0,14,7,right,0,0,39,present,safeDeck,1603,2838
vhxtg6u2wr,13502,04/04/2022@15:36:25,"Mozilla/5.0 (Macintosh; Intel Mac OS X 10_15_7) AppleWebKit/537.36 (KHTML, like Gecko) Chrome/99.0.4844.83 Safari/537.36",1440,900,1440,789,main,1535329,33,4,24,22,HM,Moderate,Harder than Reference,F,k,riskyDeck,safeDeck,0,14,7,right,0,1,39,present,safeDeck,1603,2858
vhxtg6u2wr,13502,04/04/2022@15:36:25,"Mozilla/5.0 (Macintosh; Intel Mac OS X 10_15_7) AppleWebKit/537.36 (KHTML, like Gecko) Chrome/99.0.4844.83 Safari/537.36",1440,900,1440,789,main,1535329,33,5,25,22,HM,Moderate,Harder than Reference,F,j,riskyDeck,safeDeck,0,14,7,right,0,0,39,present,safeDeck,1603,3154
vhxtg6u2wr,13502,04/04/2022@15:36:25,"Mozilla/5.0 (Macintosh; Intel Mac OS X 10_15_7) AppleWebKit/537.36 (KHTML, like Gecko) Chrome/99.0.4844.83 Safari/537.36",1440,900,1440,789,main,1535329,33,6,25,22,HM,Moderate,Harder than Reference,F,j,riskyDeck,safeDeck,0,14,7,right,0,0,39,present,safeDeck,1603,1157
vhxtg6u2wr,13502,04/04/2022@15:36:25,"Mozilla/5.0 (Macintosh; Intel Mac OS X 10_15_7) AppleWebKit/537.36 (KHTML, like Gecko) Chrome/99.0.4844.83 Safari/537.36",1440,900,1440,789,main,1535329,33,7,25,22,HM,Moderate,Harder than Reference,F,j,riskyDeck,safeDeck,0,14,7,right,0,0,39,present,safeDeck,1603,1959
vhxtg6u2wr,13502,04/04/2022@15:36:25,"Mozilla/5.0 (Macintosh; Intel Mac OS X 10_15_7) AppleWebKit/537.36 (KHTML, like Gecko) Chrome/99.0.4844.83 Safari/537.36",1440,900,1440,789,main,1535329,33,8,25,22,HM,Moderate,Harder than Reference,F,k,riskyDeck,safeDeck,0,14,7,right,0,0,39,absent,safeDeck,1603,2546
vhxtg6u2wr,13502,04/04/2022@15:36:25,"Mozilla/5.0 (Macintosh; Intel Mac OS X 10_15_7) AppleWebKit/537.36 (KHTML, like Gecko) Chrome/99.0.4844.83 Safari/537.36",1440,900,1440,789,main,1535329,33,9,25,22,HM,Moderate,Harder than Reference,F,k,riskyDeck,safeDeck,0,14,7,right,0,0,39,absent,safeDeck,1603,2898
vhxtg6u2wr,13502,04/04/2022@15:36:25,"Mozilla/5.0 (Macintosh; Intel Mac OS X 10_15_7) AppleWebKit/537.36 (KHTML, like Gecko) Chrome/99.0.4844.83 Safari/537.36",1440,900,1440,789,main,1535329,34,1,25,22,EM,Moderate,Easier than Reference,D,k,riskyDeck,safeDeck,-28,0,-14,left,1,0,4,absent,riskyDeck,1596,1120
vhxtg6u2wr,13502,04/04/2022@15:36:25,"Mozilla/5.0 (Macintosh; Intel Mac OS X 10_15_7) AppleWebKit/537.36 (KHTML, like Gecko) Chrome/99.0.4844.83 Safari/537.36",1440,900,1440,789,main,1535329,34,2,25,22,EM,Moderate,Easier than Reference,D,j,riskyDeck,safeDeck,-28,0,-14,left,1,0,4,present,riskyDeck,1596,634
vhxtg6u2wr,13502,04/04/2022@15:36:25,"Mozilla/5.0 (Macintosh; Intel Mac OS X 10_15_7) AppleWebKit/537.36 (KHTML, like Gecko) Chrome/99.0.4844.83 Safari/537.36",1440,900,1440,789,main,1535329,34,3,25,22,EM,Moderate,Easier than Reference,D,j,riskyDeck,safeDeck,-28,0,-14,left,1,0,4,present,riskyDeck,1596,563
vhxtg6u2wr,13502,04/04/2022@15:36:25,"Mozilla/5.0 (Macintosh; Intel Mac OS X 10_15_7) AppleWebKit/537.36 (KHTML, like Gecko) Chrome/99.0.4844.83 Safari/537.36",1440,900,1440,789,main,1535329,34,4,25,22,EM,Moderate,Easier than Reference,D,j,riskyDeck,safeDeck,-28,0,-14,left,1,0,4,present,riskyDeck,1596,1331
vhxtg6u2wr,13502,04/04/2022@15:36:25,"Mozilla/5.0 (Macintosh; Intel Mac OS X 10_15_7) AppleWebKit/537.36 (KHTML, like Gecko) Chrome/99.0.4844.83 Safari/537.36",1440,900,1440,789,main,1535329,34,5,25,22,EM,Moderate,Easier than Reference,D,j,riskyDeck,safeDeck,-28,0,-14,left,1,0,4,present,riskyDeck,1596,656
vhxtg6u2wr,13502,04/04/2022@15:36:25,"Mozilla/5.0 (Macintosh; Intel Mac OS X 10_15_7) AppleWebKit/537.36 (KHTML, like Gecko) Chrome/99.0.4844.83 Safari/537.36",1440,900,1440,789,main,1535329,34,6,25,23,EM,Moderate,Easier than Reference,D,j,riskyDeck,safeDeck,-28,0,-14,left,1,0,4,present,riskyDeck,1596,555
vhxtg6u2wr,13502,04/04/2022@15:36:25,"Mozilla/5.0 (Macintosh; Intel Mac OS X 10_15_7) AppleWebKit/537.36 (KHTML, like Gecko) Chrome/99.0.4844.83 Safari/537.36",1440,900,1440,789,main,1535329,34,7,25,23,EM,Moderate,Easier than Reference,D,j,riskyDeck,safeDeck,-28,0,-14,left,1,0,4,present,riskyDeck,1596,1322
vhxtg6u2wr,13502,04/04/2022@15:36:25,"Mozilla/5.0 (Macintosh; Intel Mac OS X 10_15_7) AppleWebKit/537.36 (KHTML, like Gecko) Chrome/99.0.4844.83 Safari/537.36",1440,900,1440,789,main,1535329,34,8,25,23,EM,Moderate,Easier than Reference,D,k,riskyDeck,safeDeck,-28,0,-14,left,1,0,4,absent,riskyDeck,1596,1051
vhxtg6u2wr,13502,04/04/2022@15:36:25,"Mozilla/5.0 (Macintosh; Intel Mac OS X 10_15_7) AppleWebKit/537.36 (KHTML, like Gecko) Chrome/99.0.4844.83 Safari/537.36",1440,900,1440,789,main,1535329,34,9,25,23,EM,Moderate,Easier than Reference,D,k,riskyDeck,safeDeck,-28,0,-14,left,1,0,4,absent,riskyDeck,1596,1555
vhxtg6u2wr,13502,04/04/2022@15:36:25,"Mozilla/5.0 (Macintosh; Intel Mac OS X 10_15_7) AppleWebKit/537.36 (KHTML, like Gecko) Chrome/99.0.4844.83 Safari/537.36",1440,900,1440,789,main,1535329,35,1,25,23,HE,Extreme,Harder than Reference,D,k,riskyDeck,safeDeck,0,28,14,left,1,0,32,absent,riskyDeck,4888,2757
vhxtg6u2wr,13502,04/04/2022@15:36:25,"Mozilla/5.0 (Macintosh; Intel Mac OS X 10_15_7) AppleWebKit/537.36 (KHTML, like Gecko) Chrome/99.0.4844.83 Safari/537.36",1440,900,1440,789,main,1535329,35,2,25,23,HE,Extreme,Harder than Reference,D,j,riskyDeck,safeDeck,0,28,14,left,1,0,32,present,riskyDeck,4888,1524
vhxtg6u2wr,13502,04/04/2022@15:36:25,"Mozilla/5.0 (Macintosh; Intel Mac OS X 10_15_7) AppleWebKit/537.36 (KHTML, like Gecko) Chrome/99.0.4844.83 Safari/537.36",1440,900,1440,789,main,1535329,35,3,25,23,HE,Extreme,Harder than Reference,D,j,riskyDeck,safeDeck,0,28,14,left,1,0,32,present,riskyDeck,4888,1349
vhxtg6u2wr,13502,04/04/2022@15:36:25,"Mozilla/5.0 (Macintosh; Intel Mac OS X 10_15_7) AppleWebKit/537.36 (KHTML, like Gecko) Chrome/99.0.4844.83 Safari/537.36",1440,900,1440,789,main,1535329,35,4,25,23,HE,Extreme,Harder than Reference,D,k,riskyDeck,safeDeck,0,28,14,left,1,0,32,absent,riskyDeck,4888,3154
vhxtg6u2wr,13502,04/04/2022@15:36:25,"Mozilla/5.0 (Macintosh; Intel Mac OS X 10_15_7) AppleWebKit/537.36 (KHTML, like Gecko) Chrome/99.0.4844.83 Safari/537.36",1440,900,1440,789,main,1535329,35,5,25,23,HE,Extreme,Harder than Reference,D,j,riskyDeck,safeDeck,0,28,14,left,1,0,32,present,riskyDeck,4888,1252
vhxtg6u2wr,13502,04/04/2022@15:36:25,"Mozilla/5.0 (Macintosh; Intel Mac OS X 10_15_7) AppleWebKit/537.36 (KHTML, like Gecko) Chrome/99.0.4844.83 Safari/537.36",1440,900,1440,789,main,1535329,35,6,25,23,HE,Extreme,Harder than Reference,D,k,riskyDeck,safeDeck,0,28,14,left,1,0,32,absent,riskyDeck,4888,1919
vhxtg6u2wr,13502,04/04/2022@15:36:25,"Mozilla/5.0 (Macintosh; Intel Mac OS X 10_15_7) AppleWebKit/537.36 (KHTML, like Gecko) Chrome/99.0.4844.83 Safari/537.36",1440,900,1440,789,main,1535329,35,7,25,23,HE,Extreme,Harder than Reference,D,j,riskyDeck,safeDeck,0,28,14,left,1,0,32,present,riskyDeck,4888,3006
vhxtg6u2wr,13502,04/04/2022@15:36:25,"Mozilla/5.0 (Macintosh; Intel Mac OS X 10_15_7) AppleWebKit/537.36 (KHTML, like Gecko) Chrome/99.0.4844.83 Safari/537.36",1440,900,1440,789,main,1535329,35,8,25,23,HE,Extreme,Harder than Reference,D,k,riskyDeck,safeDeck,0,28,14,left,1,0,32,absent,riskyDeck,4888,3206
vhxtg6u2wr,13502,04/04/2022@15:36:25,"Mozilla/5.0 (Macintosh; Intel Mac OS X 10_15_7) AppleWebKit/537.36 (KHTML, like Gecko) Chrome/99.0.4844.83 Safari/537.36",1440,900,1440,789,main,1535329,35,9,26,23,HE,Extreme,Harder than Reference,D,k,riskyDeck,safeDeck,0,28,14,left,1,1,32,present,riskyDeck,4888,3202
vhxtg6u2wr,13502,04/04/2022@15:36:25,"Mozilla/5.0 (Macintosh; Intel Mac OS X 10_15_7) AppleWebKit/537.36 (KHTML, like Gecko) Chrome/99.0.4844.83 Safari/537.36",1440,900,1440,789,main,1535329,36,1,26,23,EE,Extreme,Easier than Reference,D,j,riskyDeck,safeDeck,-14,0,-7,left,1,0,32,present,riskyDeck,1148,1783
vhxtg6u2wr,13502,04/04/2022@15:36:25,"Mozilla/5.0 (Macintosh; Intel Mac OS X 10_15_7) AppleWebKit/537.36 (KHTML, like Gecko) Chrome/99.0.4844.83 Safari/537.36",1440,900,1440,789,main,1535329,36,2,26,23,EE,Extreme,Easier than Reference,D,k,riskyDeck,safeDeck,-14,0,-7,left,1,0,32,absent,riskyDeck,1148,2475
vhxtg6u2wr,13502,04/04/2022@15:36:25,"Mozilla/5.0 (Macintosh; Intel Mac OS X 10_15_7) AppleWebKit/537.36 (KHTML, like Gecko) Chrome/99.0.4844.83 Safari/537.36",1440,900,1440,789,main,1535329,36,3,26,23,EE,Extreme,Easier than Reference,D,j,riskyDeck,safeDeck,-14,0,-7,left,1,0,32,present,riskyDeck,1148,1296
vhxtg6u2wr,13502,04/04/2022@15:36:25,"Mozilla/5.0 (Macintosh; Intel Mac OS X 10_15_7) AppleWebKit/537.36 (KHTML, like Gecko) Chrome/99.0.4844.83 Safari/537.36",1440,900,1440,789,main,1535329,36,4,26,23,EE,Extreme,Easier than Reference,D,k,riskyDeck,safeDeck,-14,0,-7,left,1,0,32,absent,riskyDeck,1148,2591
vhxtg6u2wr,13502,04/04/2022@15:36:25,"Mozilla/5.0 (Macintosh; Intel Mac OS X 10_15_7) AppleWebKit/537.36 (KHTML, like Gecko) Chrome/99.0.4844.83 Safari/537.36",1440,900,1440,789,main,1535329,36,5,26,23,EE,Extreme,Easier than Reference,D,j,riskyDeck,safeDeck,-14,0,-7,left,1,0,32,present,riskyDeck,1148,1240
vhxtg6u2wr,13502,04/04/2022@15:36:25,"Mozilla/5.0 (Macintosh; Intel Mac OS X 10_15_7) AppleWebKit/537.36 (KHTML, like Gecko) Chrome/99.0.4844.83 Safari/537.36",1440,900,1440,789,main,1535329,36,6,26,23,EE,Extreme,Easier than Reference,D,k,riskyDeck,safeDeck,-14,0,-7,left,1,0,32,absent,riskyDeck,1148,2214
vhxtg6u2wr,13502,04/04/2022@15:36:25,"Mozilla/5.0 (Macintosh; Intel Mac OS X 10_15_7) AppleWebKit/537.36 (KHTML, like Gecko) Chrome/99.0.4844.83 Safari/537.36",1440,900,1440,789,main,1535329,36,7,26,23,EE,Extreme,Easier than Reference,D,j,riskyDeck,safeDeck,-14,0,-7,left,1,0,32,present,riskyDeck,1148,1390
vhxtg6u2wr,13502,04/04/2022@15:36:25,"Mozilla/5.0 (Macintosh; Intel Mac OS X 10_15_7) AppleWebKit/537.36 (KHTML, like Gecko) Chrome/99.0.4844.83 Safari/537.36",1440,900,1440,789,main,1535329,36,8,26,23,EE,Extreme,Easier than Reference,D,j,riskyDeck,safeDeck,-14,0,-7,left,1,0,32,present,riskyDeck,1148,1344
vhxtg6u2wr,13502,04/04/2022@15:36:25,"Mozilla/5.0 (Macintosh; Intel Mac OS X 10_15_7) AppleWebKit/537.36 (KHTML, like Gecko) Chrome/99.0.4844.83 Safari/537.36",1440,900,1440,789,main,1535329,36,9,26,23,EE,Extreme,Easier than Reference,D,k,riskyDeck,safeDeck,-14,0,-7,left,1,1,32,present,riskyDeck,1148,1484
vhxtg6u2wr,13502,04/04/2022@15:36:25,"Mozilla/5.0 (Macintosh; Intel Mac OS X 10_15_7) AppleWebKit/537.36 (KHTML, like Gecko) Chrome/99.0.4844.83 Safari/537.36",1440,900,1440,789,main,1535329,37,1,26,24,EM,Moderate,Easier than Reference,D,j,safeDeck,riskyDeck,0,-28,-14,left,0,0,18,present,safeDeck,1612,1575
