"subject","choice_rt_m","choice_rt_sd","sona_id","curTime","userAgent","screenWidth","screenHeight","windowWidth","windowHeight","phase","phase_run_time","choice_trial","search_trial","exp_runtime_mins","phase_runtime_mins","condition","magnitude","direction","choice_response_key","search_response_key","left_deck_id","right_deck_id","risky_deck_outcome_top","risky_deck_outcome_bottom","safe_deck_outcome","selected_deck_location","selectedRiskyDeck","error","n_stimuli","present_or_absent","chosenDeckId","choice_rt","search_rt","selected_deck_location_num","ssd"
"1w43d9e7kn",1471.5,672.796384451018,13384,"04/04/2022@14:34:39","Mozilla/5.0 (Macintosh; Intel Mac OS X 10_15_7) AppleWebKit/537.36 (KHTML, like Gecko) Chrome/99.0.4844.51 Safari/537.36",1440,900,1298,705,"main",992182,1,1,6,3,"EM","Moderate","Easier than Reference","F","j","riskyDeck","safeDeck",0,-28,-14,"right",0,0,18,"present","safeDeck",2109,1405,1,1
"1w43d9e7kn",1471.5,672.796384451018,13384,"04/04/2022@14:34:39","Mozilla/5.0 (Macintosh; Intel Mac OS X 10_15_7) AppleWebKit/537.36 (KHTML, like Gecko) Chrome/99.0.4844.51 Safari/537.36",1440,900,1298,705,"main",992182,1,2,6,3,"EM","Moderate","Easier than Reference","F","j","riskyDeck","safeDeck",0,-28,-14,"right",0,0,18,"present","safeDeck",2109,1569,1,1
"1w43d9e7kn",1471.5,672.796384451018,13384,"04/04/2022@14:34:39","Mozilla/5.0 (Macintosh; Intel Mac OS X 10_15_7) AppleWebKit/537.36 (KHTML, like Gecko) Chrome/99.0.4844.51 Safari/537.36",1440,900,1298,705,"main",992182,1,3,6,3,"EM","Moderate","Easier than Reference","F","k","riskyDeck","safeDeck",0,-28,-14,"right",0,0,18,"absent","safeDeck",2109,1824,1,1
"1w43d9e7kn",1471.5,672.796384451018,13384,"04/04/2022@14:34:39","Mozilla/5.0 (Macintosh; Intel Mac OS X 10_15_7) AppleWebKit/537.36 (KHTML, like Gecko) Chrome/99.0.4844.51 Safari/537.36",1440,900,1298,705,"main",992182,1,4,6,3,"EM","Moderate","Easier than Reference","F","j","riskyDeck","safeDeck",0,-28,-14,"right",0,0,18,"present","safeDeck",2109,2009,1,1
"1w43d9e7kn",1471.5,672.796384451018,13384,"04/04/2022@14:34:39","Mozilla/5.0 (Macintosh; Intel Mac OS X 10_15_7) AppleWebKit/537.36 (KHTML, like Gecko) Chrome/99.0.4844.51 Safari/537.36",1440,900,1298,705,"main",992182,1,5,6,3,"EM","Moderate","Easier than Reference","F","k","riskyDeck","safeDeck",0,-28,-14,"right",0,0,18,"absent","safeDeck",2109,1996,1,1
"1w43d9e7kn",1471.5,672.796384451018,13384,"04/04/2022@14:34:39","Mozilla/5.0 (Macintosh; Intel Mac OS X 10_15_7) AppleWebKit/537.36 (KHTML, like Gecko) Chrome/99.0.4844.51 Safari/537.36",1440,900,1298,705,"main",992182,1,6,6,3,"EM","Moderate","Easier than Reference","F","k","riskyDeck","safeDeck",0,-28,-14,"right",0,0,18,"absent","safeDeck",2109,1736,1,1
"1w43d9e7kn",1471.5,672.796384451018,13384,"04/04/2022@14:34:39","Mozilla/5.0 (Macintosh; Intel Mac OS X 10_15_7) AppleWebKit/537.36 (KHTML, like Gecko) Chrome/99.0.4844.51 Safari/537.36",1440,900,1298,705,"main",992182,1,7,6,3,"EM","Moderate","Easier than Reference","F","k","riskyDeck","safeDeck",0,-28,-14,"right",0,0,18,"absent","safeDeck",2109,1694,1,1
"1w43d9e7kn",1471.5,672.796384451018,13384,"04/04/2022@14:34:39","Mozilla/5.0 (Macintosh; Intel Mac OS X 10_15_7) AppleWebKit/537.36 (KHTML, like Gecko) Chrome/99.0.4844.51 Safari/537.36",1440,900,1298,705,"main",992182,1,8,6,3,"EM","Moderate","Easier than Reference","F","k","riskyDeck","safeDeck",0,-28,-14,"right",0,1,18,"present","safeDeck",2109,1305,1,1
"1w43d9e7kn",1471.5,672.796384451018,13384,"04/04/2022@14:34:39","Mozilla/5.0 (Macintosh; Intel Mac OS X 10_15_7) AppleWebKit/537.36 (KHTML, like Gecko) Chrome/99.0.4844.51 Safari/537.36",1440,900,1298,705,"main",992182,1,9,6,3,"EM","Moderate","Easier than Reference","F","k","riskyDeck","safeDeck",0,-28,-14,"right",0,0,18,"absent","safeDeck",2109,2276,1,1
"1w43d9e7kn",1471.5,672.796384451018,13384,"04/04/2022@14:34:39","Mozilla/5.0 (Macintosh; Intel Mac OS X 10_15_7) AppleWebKit/537.36 (KHTML, like Gecko) Chrome/99.0.4844.51 Safari/537.36",1440,900,1298,705,"main",992182,2,1,6,3,"EE","Extreme","Easier than Reference","F","k","riskyDeck","safeDeck",0,-14,-7,"right",0,0,25,"absent","safeDeck",1802,2587,1,1
"1w43d9e7kn",1471.5,672.796384451018,13384,"04/04/2022@14:34:39","Mozilla/5.0 (Macintosh; Intel Mac OS X 10_15_7) AppleWebKit/537.36 (KHTML, like Gecko) Chrome/99.0.4844.51 Safari/537.36",1440,900,1298,705,"main",992182,2,2,6,3,"EE","Extreme","Easier than Reference","F","j","riskyDeck","safeDeck",0,-14,-7,"right",0,0,25,"present","safeDeck",1802,1024,1,1
"1w43d9e7kn",1471.5,672.796384451018,13384,"04/04/2022@14:34:39","Mozilla/5.0 (Macintosh; Intel Mac OS X 10_15_7) AppleWebKit/537.36 (KHTML, like Gecko) Chrome/99.0.4844.51 Safari/537.36",1440,900,1298,705,"main",992182,2,3,6,3,"EE","Extreme","Easier than Reference","F","j","riskyDeck","safeDeck",0,-14,-7,"right",0,0,25,"present","safeDeck",1802,1551,1,1
"1w43d9e7kn",1471.5,672.796384451018,13384,"04/04/2022@14:34:39","Mozilla/5.0 (Macintosh; Intel Mac OS X 10_15_7) AppleWebKit/537.36 (KHTML, like Gecko) Chrome/99.0.4844.51 Safari/537.36",1440,900,1298,705,"main",992182,2,4,6,3,"EE","Extreme","Easier than Reference","F","j","riskyDeck","safeDeck",0,-14,-7,"right",0,0,25,"present","safeDeck",1802,1641,1,1
"1w43d9e7kn",1471.5,672.796384451018,13384,"04/04/2022@14:34:39","Mozilla/5.0 (Macintosh; Intel Mac OS X 10_15_7) AppleWebKit/537.36 (KHTML, like Gecko) Chrome/99.0.4844.51 Safari/537.36",1440,900,1298,705,"main",992182,2,5,6,3,"EE","Extreme","Easier than Reference","F","k","riskyDeck","safeDeck",0,-14,-7,"right",0,0,25,"absent","safeDeck",1802,2674,1,1
"1w43d9e7kn",1471.5,672.796384451018,13384,"04/04/2022@14:34:39","Mozilla/5.0 (Macintosh; Intel Mac OS X 10_15_7) AppleWebKit/537.36 (KHTML, like Gecko) Chrome/99.0.4844.51 Safari/537.36",1440,900,1298,705,"main",992182,2,6,6,3,"EE","Extreme","Easier than Reference","F","j","riskyDeck","safeDeck",0,-14,-7,"right",0,0,25,"present","safeDeck",1802,2200,1,1
"1w43d9e7kn",1471.5,672.796384451018,13384,"04/04/2022@14:34:39","Mozilla/5.0 (Macintosh; Intel Mac OS X 10_15_7) AppleWebKit/537.36 (KHTML, like Gecko) Chrome/99.0.4844.51 Safari/537.36",1440,900,1298,705,"main",992182,2,7,6,3,"EE","Extreme","Easier than Reference","F","j","riskyDeck","safeDeck",0,-14,-7,"right",0,0,25,"present","safeDeck",1802,895,1,1
"1w43d9e7kn",1471.5,672.796384451018,13384,"04/04/2022@14:34:39","Mozilla/5.0 (Macintosh; Intel Mac OS X 10_15_7) AppleWebKit/537.36 (KHTML, like Gecko) Chrome/99.0.4844.51 Safari/537.36",1440,900,1298,705,"main",992182,2,8,6,3,"EE","Extreme","Easier than Reference","F","j","riskyDeck","safeDeck",0,-14,-7,"right",0,0,25,"present","safeDeck",1802,1276,1,1
"1w43d9e7kn",1471.5,672.796384451018,13384,"04/04/2022@14:34:39","Mozilla/5.0 (Macintosh; Intel Mac OS X 10_15_7) AppleWebKit/537.36 (KHTML, like Gecko) Chrome/99.0.4844.51 Safari/537.36",1440,900,1298,705,"main",992182,2,9,7,3,"EE","Extreme","Easier than Reference","F","k","riskyDeck","safeDeck",0,-14,-7,"right",0,0,25,"absent","safeDeck",1802,2397,1,1
"1w43d9e7kn",1471.5,672.796384451018,13384,"04/04/2022@14:34:39","Mozilla/5.0 (Macintosh; Intel Mac OS X 10_15_7) AppleWebKit/537.36 (KHTML, like Gecko) Chrome/99.0.4844.51 Safari/537.36",1440,900,1298,705,"main",992182,3,1,7,3,"HM","Moderate","Harder than Reference","D","j","safeDeck","riskyDeck",14,0,7,"left",0,0,39,"present","safeDeck",2114,1520,-1,1
"1w43d9e7kn",1471.5,672.796384451018,13384,"04/04/2022@14:34:39","Mozilla/5.0 (Macintosh; Intel Mac OS X 10_15_7) AppleWebKit/537.36 (KHTML, like Gecko) Chrome/99.0.4844.51 Safari/537.36",1440,900,1298,705,"main",992182,3,2,7,3,"HM","Moderate","Harder than Reference","D","k","safeDeck","riskyDeck",14,0,7,"left",0,0,39,"absent","safeDeck",2114,7051,-1,1
"1w43d9e7kn",1471.5,672.796384451018,13384,"04/04/2022@14:34:39","Mozilla/5.0 (Macintosh; Intel Mac OS X 10_15_7) AppleWebKit/537.36 (KHTML, like Gecko) Chrome/99.0.4844.51 Safari/537.36",1440,900,1298,705,"main",992182,3,3,7,3,"HM","Moderate","Harder than Reference","D","k","safeDeck","riskyDeck",14,0,7,"left",0,0,39,"absent","safeDeck",2114,2519,-1,1
"1w43d9e7kn",1471.5,672.796384451018,13384,"04/04/2022@14:34:39","Mozilla/5.0 (Macintosh; Intel Mac OS X 10_15_7) AppleWebKit/537.36 (KHTML, like Gecko) Chrome/99.0.4844.51 Safari/537.36",1440,900,1298,705,"main",992182,3,4,7,4,"HM","Moderate","Harder than Reference","D","k","safeDeck","riskyDeck",14,0,7,"left",0,0,39,"absent","safeDeck",2114,2416,-1,1
"1w43d9e7kn",1471.5,672.796384451018,13384,"04/04/2022@14:34:39","Mozilla/5.0 (Macintosh; Intel Mac OS X 10_15_7) AppleWebKit/537.36 (KHTML, like Gecko) Chrome/99.0.4844.51 Safari/537.36",1440,900,1298,705,"main",992182,3,5,7,4,"HM","Moderate","Harder than Reference","D","j","safeDeck","riskyDeck",14,0,7,"left",0,0,39,"present","safeDeck",2114,1302,-1,1
"1w43d9e7kn",1471.5,672.796384451018,13384,"04/04/2022@14:34:39","Mozilla/5.0 (Macintosh; Intel Mac OS X 10_15_7) AppleWebKit/537.36 (KHTML, like Gecko) Chrome/99.0.4844.51 Safari/537.36",1440,900,1298,705,"main",992182,3,6,7,4,"HM","Moderate","Harder than Reference","D","k","safeDeck","riskyDeck",14,0,7,"left",0,1,39,"present","safeDeck",2114,3378,-1,1
"1w43d9e7kn",1471.5,672.796384451018,13384,"04/04/2022@14:34:39","Mozilla/5.0 (Macintosh; Intel Mac OS X 10_15_7) AppleWebKit/537.36 (KHTML, like Gecko) Chrome/99.0.4844.51 Safari/537.36",1440,900,1298,705,"main",992182,3,7,7,4,"HM","Moderate","Harder than Reference","D","j","safeDeck","riskyDeck",14,0,7,"left",0,0,39,"present","safeDeck",2114,2007,-1,1
"1w43d9e7kn",1471.5,672.796384451018,13384,"04/04/2022@14:34:39","Mozilla/5.0 (Macintosh; Intel Mac OS X 10_15_7) AppleWebKit/537.36 (KHTML, like Gecko) Chrome/99.0.4844.51 Safari/537.36",1440,900,1298,705,"main",992182,3,8,7,4,"HM","Moderate","Harder than Reference","D","j","safeDeck","riskyDeck",14,0,7,"left",0,0,39,"present","safeDeck",2114,1605,-1,1
"1w43d9e7kn",1471.5,672.796384451018,13384,"04/04/2022@14:34:39","Mozilla/5.0 (Macintosh; Intel Mac OS X 10_15_7) AppleWebKit/537.36 (KHTML, like Gecko) Chrome/99.0.4844.51 Safari/537.36",1440,900,1298,705,"main",992182,3,9,7,4,"HM","Moderate","Harder than Reference","D","j","safeDeck","riskyDeck",14,0,7,"left",0,0,39,"present","safeDeck",2114,1215,-1,1
"1w43d9e7kn",1471.5,672.796384451018,13384,"04/04/2022@14:34:39","Mozilla/5.0 (Macintosh; Intel Mac OS X 10_15_7) AppleWebKit/537.36 (KHTML, like Gecko) Chrome/99.0.4844.51 Safari/537.36",1440,900,1298,705,"main",992182,5,1,8,4,"HE","Extreme","Harder than Reference","D","j","safeDeck","riskyDeck",0,28,14,"left",0,0,46,"present","safeDeck",1204,1847,-1,1
"1w43d9e7kn",1471.5,672.796384451018,13384,"04/04/2022@14:34:39","Mozilla/5.0 (Macintosh; Intel Mac OS X 10_15_7) AppleWebKit/537.36 (KHTML, like Gecko) Chrome/99.0.4844.51 Safari/537.36",1440,900,1298,705,"main",992182,5,2,8,4,"HE","Extreme","Harder than Reference","D","j","safeDeck","riskyDeck",0,28,14,"left",0,0,46,"present","safeDeck",1204,2147,-1,1
"1w43d9e7kn",1471.5,672.796384451018,13384,"04/04/2022@14:34:39","Mozilla/5.0 (Macintosh; Intel Mac OS X 10_15_7) AppleWebKit/537.36 (KHTML, like Gecko) Chrome/99.0.4844.51 Safari/537.36",1440,900,1298,705,"main",992182,5,3,8,4,"HE","Extreme","Harder than Reference","D","k","safeDeck","riskyDeck",0,28,14,"left",0,1,46,"present","safeDeck",1204,3133,-1,1
"1w43d9e7kn",1471.5,672.796384451018,13384,"04/04/2022@14:34:39","Mozilla/5.0 (Macintosh; Intel Mac OS X 10_15_7) AppleWebKit/537.36 (KHTML, like Gecko) Chrome/99.0.4844.51 Safari/537.36",1440,900,1298,705,"main",992182,5,4,8,5,"HE","Extreme","Harder than Reference","D","k","safeDeck","riskyDeck",0,28,14,"left",0,0,46,"absent","safeDeck",1204,3281,-1,1
"1w43d9e7kn",1471.5,672.796384451018,13384,"04/04/2022@14:34:39","Mozilla/5.0 (Macintosh; Intel Mac OS X 10_15_7) AppleWebKit/537.36 (KHTML, like Gecko) Chrome/99.0.4844.51 Safari/537.36",1440,900,1298,705,"main",992182,5,5,8,5,"HE","Extreme","Harder than Reference","D","k","safeDeck","riskyDeck",0,28,14,"left",0,0,46,"absent","safeDeck",1204,2026,-1,1
"1w43d9e7kn",1471.5,672.796384451018,13384,"04/04/2022@14:34:39","Mozilla/5.0 (Macintosh; Intel Mac OS X 10_15_7) AppleWebKit/537.36 (KHTML, like Gecko) Chrome/99.0.4844.51 Safari/537.36",1440,900,1298,705,"main",992182,5,6,8,5,"HE","Extreme","Harder than Reference","D","k","safeDeck","riskyDeck",0,28,14,"left",0,0,46,"absent","safeDeck",1204,1820,-1,1
"1w43d9e7kn",1471.5,672.796384451018,13384,"04/04/2022@14:34:39","Mozilla/5.0 (Macintosh; Intel Mac OS X 10_15_7) AppleWebKit/537.36 (KHTML, like Gecko) Chrome/99.0.4844.51 Safari/537.36",1440,900,1298,705,"main",992182,5,7,8,5,"HE","Extreme","Harder than Reference","D","j","safeDeck","riskyDeck",0,28,14,"left",0,0,46,"present","safeDeck",1204,1805,-1,1
"1w43d9e7kn",1471.5,672.796384451018,13384,"04/04/2022@14:34:39","Mozilla/5.0 (Macintosh; Intel Mac OS X 10_15_7) AppleWebKit/537.36 (KHTML, like Gecko) Chrome/99.0.4844.51 Safari/537.36",1440,900,1298,705,"main",992182,5,8,8,5,"HE","Extreme","Harder than Reference","D","k","safeDeck","riskyDeck",0,28,14,"left",0,1,46,"present","safeDeck",1204,1856,-1,1
"1w43d9e7kn",1471.5,672.796384451018,13384,"04/04/2022@14:34:39","Mozilla/5.0 (Macintosh; Intel Mac OS X 10_15_7) AppleWebKit/537.36 (KHTML, like Gecko) Chrome/99.0.4844.51 Safari/537.36",1440,900,1298,705,"main",992182,5,9,8,5,"HE","Extreme","Harder than Reference","D","k","safeDeck","riskyDeck",0,28,14,"left",0,0,46,"absent","safeDeck",1204,2552,-1,1
"1w43d9e7kn",1471.5,672.796384451018,13384,"04/04/2022@14:34:39","Mozilla/5.0 (Macintosh; Intel Mac OS X 10_15_7) AppleWebKit/537.36 (KHTML, like Gecko) Chrome/99.0.4844.51 Safari/537.36",1440,900,1298,705,"main",992182,6,1,8,5,"EE","Extreme","Easier than Reference","F","k","riskyDeck","safeDeck",0,-14,-7,"right",0,1,25,"present","safeDeck",1409,2433,1,1
"1w43d9e7kn",1471.5,672.796384451018,13384,"04/04/2022@14:34:39","Mozilla/5.0 (Macintosh; Intel Mac OS X 10_15_7) AppleWebKit/537.36 (KHTML, like Gecko) Chrome/99.0.4844.51 Safari/537.36",1440,900,1298,705,"main",992182,6,2,8,5,"EE","Extreme","Easier than Reference","F","j","riskyDeck","safeDeck",0,-14,-7,"right",0,0,25,"present","safeDeck",1409,1589,1,1
"1w43d9e7kn",1471.5,672.796384451018,13384,"04/04/2022@14:34:39","Mozilla/5.0 (Macintosh; Intel Mac OS X 10_15_7) AppleWebKit/537.36 (KHTML, like Gecko) Chrome/99.0.4844.51 Safari/537.36",1440,900,1298,705,"main",992182,6,3,8,5,"EE","Extreme","Easier than Reference","F","k","riskyDeck","safeDeck",0,-14,-7,"right",0,0,25,"absent","safeDeck",1409,1956,1,1
"1w43d9e7kn",1471.5,672.796384451018,13384,"04/04/2022@14:34:39","Mozilla/5.0 (Macintosh; Intel Mac OS X 10_15_7) AppleWebKit/537.36 (KHTML, like Gecko) Chrome/99.0.4844.51 Safari/537.36",1440,900,1298,705,"main",992182,6,4,8,5,"EE","Extreme","Easier than Reference","F","k","riskyDeck","safeDeck",0,-14,-7,"right",0,0,25,"absent","safeDeck",1409,1277,1,1
"1w43d9e7kn",1471.5,672.796384451018,13384,"04/04/2022@14:34:39","Mozilla/5.0 (Macintosh; Intel Mac OS X 10_15_7) AppleWebKit/537.36 (KHTML, like Gecko) Chrome/99.0.4844.51 Safari/537.36",1440,900,1298,705,"main",992182,6,5,8,5,"EE","Extreme","Easier than Reference","F","j","riskyDeck","safeDeck",0,-14,-7,"right",0,0,25,"present","safeDeck",1409,1015,1,1
"1w43d9e7kn",1471.5,672.796384451018,13384,"04/04/2022@14:34:39","Mozilla/5.0 (Macintosh; Intel Mac OS X 10_15_7) AppleWebKit/537.36 (KHTML, like Gecko) Chrome/99.0.4844.51 Safari/537.36",1440,900,1298,705,"main",992182,6,6,8,5,"EE","Extreme","Easier than Reference","F","k","riskyDeck","safeDeck",0,-14,-7,"right",0,0,25,"absent","safeDeck",1409,1530,1,1
"1w43d9e7kn",1471.5,672.796384451018,13384,"04/04/2022@14:34:39","Mozilla/5.0 (Macintosh; Intel Mac OS X 10_15_7) AppleWebKit/537.36 (KHTML, like Gecko) Chrome/99.0.4844.51 Safari/537.36",1440,900,1298,705,"main",992182,6,7,8,5,"EE","Extreme","Easier than Reference","F","j","riskyDeck","safeDeck",0,-14,-7,"right",0,0,25,"present","safeDeck",1409,1684,1,1
"1w43d9e7kn",1471.5,672.796384451018,13384,"04/04/2022@14:34:39","Mozilla/5.0 (Macintosh; Intel Mac OS X 10_15_7) AppleWebKit/537.36 (KHTML, like Gecko) Chrome/99.0.4844.51 Safari/537.36",1440,900,1298,705,"main",992182,6,8,8,5,"EE","Extreme","Easier than Reference","F","j","riskyDeck","safeDeck",0,-14,-7,"right",0,0,25,"present","safeDeck",1409,831,1,1
"1w43d9e7kn",1471.5,672.796384451018,13384,"04/04/2022@14:34:39","Mozilla/5.0 (Macintosh; Intel Mac OS X 10_15_7) AppleWebKit/537.36 (KHTML, like Gecko) Chrome/99.0.4844.51 Safari/537.36",1440,900,1298,705,"main",992182,6,9,8,5,"EE","Extreme","Easier than Reference","F","k","riskyDeck","safeDeck",0,-14,-7,"right",0,0,25,"absent","safeDeck",1409,1471,1,1
"1w43d9e7kn",1471.5,672.796384451018,13384,"04/04/2022@14:34:39","Mozilla/5.0 (Macintosh; Intel Mac OS X 10_15_7) AppleWebKit/537.36 (KHTML, like Gecko) Chrome/99.0.4844.51 Safari/537.36",1440,900,1298,705,"main",992182,7,1,9,5,"HM","Moderate","Harder than Reference","F","k","riskyDeck","safeDeck",14,0,7,"right",0,0,39,"absent","safeDeck",932,2018,1,1
"1w43d9e7kn",1471.5,672.796384451018,13384,"04/04/2022@14:34:39","Mozilla/5.0 (Macintosh; Intel Mac OS X 10_15_7) AppleWebKit/537.36 (KHTML, like Gecko) Chrome/99.0.4844.51 Safari/537.36",1440,900,1298,705,"main",992182,7,2,9,5,"HM","Moderate","Harder than Reference","F","k","riskyDeck","safeDeck",14,0,7,"right",0,0,39,"absent","safeDeck",932,2416,1,1
"1w43d9e7kn",1471.5,672.796384451018,13384,"04/04/2022@14:34:39","Mozilla/5.0 (Macintosh; Intel Mac OS X 10_15_7) AppleWebKit/537.36 (KHTML, like Gecko) Chrome/99.0.4844.51 Safari/537.36",1440,900,1298,705,"main",992182,7,3,9,5,"HM","Moderate","Harder than Reference","F","k","riskyDeck","safeDeck",14,0,7,"right",0,0,39,"absent","safeDeck",932,2537,1,1
"1w43d9e7kn",1471.5,672.796384451018,13384,"04/04/2022@14:34:39","Mozilla/5.0 (Macintosh; Intel Mac OS X 10_15_7) AppleWebKit/537.36 (KHTML, like Gecko) Chrome/99.0.4844.51 Safari/537.36",1440,900,1298,705,"main",992182,7,4,9,5,"HM","Moderate","Harder than Reference","F","j","riskyDeck","safeDeck",14,0,7,"right",0,0,39,"present","safeDeck",932,849,1,1
"1w43d9e7kn",1471.5,672.796384451018,13384,"04/04/2022@14:34:39","Mozilla/5.0 (Macintosh; Intel Mac OS X 10_15_7) AppleWebKit/537.36 (KHTML, like Gecko) Chrome/99.0.4844.51 Safari/537.36",1440,900,1298,705,"main",992182,7,5,9,5,"HM","Moderate","Harder than Reference","F","k","riskyDeck","safeDeck",14,0,7,"right",0,0,39,"absent","safeDeck",932,2024,1,1
"1w43d9e7kn",1471.5,672.796384451018,13384,"04/04/2022@14:34:39","Mozilla/5.0 (Macintosh; Intel Mac OS X 10_15_7) AppleWebKit/537.36 (KHTML, like Gecko) Chrome/99.0.4844.51 Safari/537.36",1440,900,1298,705,"main",992182,7,6,9,5,"HM","Moderate","Harder than Reference","F","k","riskyDeck","safeDeck",14,0,7,"right",0,0,39,"absent","safeDeck",932,1981,1,1
"1w43d9e7kn",1471.5,672.796384451018,13384,"04/04/2022@14:34:39","Mozilla/5.0 (Macintosh; Intel Mac OS X 10_15_7) AppleWebKit/537.36 (KHTML, like Gecko) Chrome/99.0.4844.51 Safari/537.36",1440,900,1298,705,"main",992182,7,7,9,5,"HM","Moderate","Harder than Reference","F","j","riskyDeck","safeDeck",14,0,7,"right",0,0,39,"present","safeDeck",932,1817,1,1
"1w43d9e7kn",1471.5,672.796384451018,13384,"04/04/2022@14:34:39","Mozilla/5.0 (Macintosh; Intel Mac OS X 10_15_7) AppleWebKit/537.36 (KHTML, like Gecko) Chrome/99.0.4844.51 Safari/537.36",1440,900,1298,705,"main",992182,7,8,9,6,"HM","Moderate","Harder than Reference","F","j","riskyDeck","safeDeck",14,0,7,"right",0,0,39,"present","safeDeck",932,2248,1,1
"1w43d9e7kn",1471.5,672.796384451018,13384,"04/04/2022@14:34:39","Mozilla/5.0 (Macintosh; Intel Mac OS X 10_15_7) AppleWebKit/537.36 (KHTML, like Gecko) Chrome/99.0.4844.51 Safari/537.36",1440,900,1298,705,"main",992182,7,9,9,6,"HM","Moderate","Harder than Reference","F","j","riskyDeck","safeDeck",14,0,7,"right",0,0,39,"present","safeDeck",932,1058,1,1
"1w43d9e7kn",1471.5,672.796384451018,13384,"04/04/2022@14:34:39","Mozilla/5.0 (Macintosh; Intel Mac OS X 10_15_7) AppleWebKit/537.36 (KHTML, like Gecko) Chrome/99.0.4844.51 Safari/537.36",1440,900,1298,705,"main",992182,8,1,9,6,"EM","Moderate","Easier than Reference","D","k","riskyDeck","safeDeck",-28,0,-14,"left",1,0,4,"absent","riskyDeck",1176,2100,-1,0
"1w43d9e7kn",1471.5,672.796384451018,13384,"04/04/2022@14:34:39","Mozilla/5.0 (Macintosh; Intel Mac OS X 10_15_7) AppleWebKit/537.36 (KHTML, like Gecko) Chrome/99.0.4844.51 Safari/537.36",1440,900,1298,705,"main",992182,8,2,9,6,"EM","Moderate","Easier than Reference","D","k","riskyDeck","safeDeck",-28,0,-14,"left",1,0,4,"absent","riskyDeck",1176,975,-1,0
"1w43d9e7kn",1471.5,672.796384451018,13384,"04/04/2022@14:34:39","Mozilla/5.0 (Macintosh; Intel Mac OS X 10_15_7) AppleWebKit/537.36 (KHTML, like Gecko) Chrome/99.0.4844.51 Safari/537.36",1440,900,1298,705,"main",992182,8,3,9,6,"EM","Moderate","Easier than Reference","D","j","riskyDeck","safeDeck",-28,0,-14,"left",1,0,4,"present","riskyDeck",1176,850,-1,0
"1w43d9e7kn",1471.5,672.796384451018,13384,"04/04/2022@14:34:39","Mozilla/5.0 (Macintosh; Intel Mac OS X 10_15_7) AppleWebKit/537.36 (KHTML, like Gecko) Chrome/99.0.4844.51 Safari/537.36",1440,900,1298,705,"main",992182,8,4,9,6,"EM","Moderate","Easier than Reference","D","k","riskyDeck","safeDeck",-28,0,-14,"left",1,0,4,"absent","riskyDeck",1176,1318,-1,0
"1w43d9e7kn",1471.5,672.796384451018,13384,"04/04/2022@14:34:39","Mozilla/5.0 (Macintosh; Intel Mac OS X 10_15_7) AppleWebKit/537.36 (KHTML, like Gecko) Chrome/99.0.4844.51 Safari/537.36",1440,900,1298,705,"main",992182,8,5,9,6,"EM","Moderate","Easier than Reference","D","k","riskyDeck","safeDeck",-28,0,-14,"left",1,0,4,"absent","riskyDeck",1176,1558,-1,0
"1w43d9e7kn",1471.5,672.796384451018,13384,"04/04/2022@14:34:39","Mozilla/5.0 (Macintosh; Intel Mac OS X 10_15_7) AppleWebKit/537.36 (KHTML, like Gecko) Chrome/99.0.4844.51 Safari/537.36",1440,900,1298,705,"main",992182,8,6,9,6,"EM","Moderate","Easier than Reference","D","k","riskyDeck","safeDeck",-28,0,-14,"left",1,0,4,"absent","riskyDeck",1176,1096,-1,0
"1w43d9e7kn",1471.5,672.796384451018,13384,"04/04/2022@14:34:39","Mozilla/5.0 (Macintosh; Intel Mac OS X 10_15_7) AppleWebKit/537.36 (KHTML, like Gecko) Chrome/99.0.4844.51 Safari/537.36",1440,900,1298,705,"main",992182,8,7,9,6,"EM","Moderate","Easier than Reference","D","j","riskyDeck","safeDeck",-28,0,-14,"left",1,0,4,"present","riskyDeck",1176,835,-1,0
"1w43d9e7kn",1471.5,672.796384451018,13384,"04/04/2022@14:34:39","Mozilla/5.0 (Macintosh; Intel Mac OS X 10_15_7) AppleWebKit/537.36 (KHTML, like Gecko) Chrome/99.0.4844.51 Safari/537.36",1440,900,1298,705,"main",992182,8,8,9,6,"EM","Moderate","Easier than Reference","D","k","riskyDeck","safeDeck",-28,0,-14,"left",1,0,4,"absent","riskyDeck",1176,759,-1,0
"1w43d9e7kn",1471.5,672.796384451018,13384,"04/04/2022@14:34:39","Mozilla/5.0 (Macintosh; Intel Mac OS X 10_15_7) AppleWebKit/537.36 (KHTML, like Gecko) Chrome/99.0.4844.51 Safari/537.36",1440,900,1298,705,"main",992182,8,9,9,6,"EM","Moderate","Easier than Reference","D","k","riskyDeck","safeDeck",-28,0,-14,"left",1,0,4,"absent","riskyDeck",1176,602,-1,0
"1w43d9e7kn",1471.5,672.796384451018,13384,"04/04/2022@14:34:39","Mozilla/5.0 (Macintosh; Intel Mac OS X 10_15_7) AppleWebKit/537.36 (KHTML, like Gecko) Chrome/99.0.4844.51 Safari/537.36",1440,900,1298,705,"main",992182,9,1,9,6,"HE","Extreme","Harder than Reference","F","j","riskyDeck","safeDeck",28,0,14,"right",0,0,46,"present","safeDeck",1253,1120,1,1
"1w43d9e7kn",1471.5,672.796384451018,13384,"04/04/2022@14:34:39","Mozilla/5.0 (Macintosh; Intel Mac OS X 10_15_7) AppleWebKit/537.36 (KHTML, like Gecko) Chrome/99.0.4844.51 Safari/537.36",1440,900,1298,705,"main",992182,9,2,9,6,"HE","Extreme","Harder than Reference","F","j","riskyDeck","safeDeck",28,0,14,"right",0,0,46,"present","safeDeck",1253,1267,1,1
"1w43d9e7kn",1471.5,672.796384451018,13384,"04/04/2022@14:34:39","Mozilla/5.0 (Macintosh; Intel Mac OS X 10_15_7) AppleWebKit/537.36 (KHTML, like Gecko) Chrome/99.0.4844.51 Safari/537.36",1440,900,1298,705,"main",992182,9,3,9,6,"HE","Extreme","Harder than Reference","F","j","riskyDeck","safeDeck",28,0,14,"right",0,0,46,"present","safeDeck",1253,1760,1,1
"1w43d9e7kn",1471.5,672.796384451018,13384,"04/04/2022@14:34:39","Mozilla/5.0 (Macintosh; Intel Mac OS X 10_15_7) AppleWebKit/537.36 (KHTML, like Gecko) Chrome/99.0.4844.51 Safari/537.36",1440,900,1298,705,"main",992182,9,4,9,6,"HE","Extreme","Harder than Reference","F","k","riskyDeck","safeDeck",28,0,14,"right",0,0,46,"absent","safeDeck",1253,2498,1,1
"1w43d9e7kn",1471.5,672.796384451018,13384,"04/04/2022@14:34:39","Mozilla/5.0 (Macintosh; Intel Mac OS X 10_15_7) AppleWebKit/537.36 (KHTML, like Gecko) Chrome/99.0.4844.51 Safari/537.36",1440,900,1298,705,"main",992182,9,5,9,6,"HE","Extreme","Harder than Reference","F","k","riskyDeck","safeDeck",28,0,14,"right",0,0,46,"absent","safeDeck",1253,1824,1,1
"1w43d9e7kn",1471.5,672.796384451018,13384,"04/04/2022@14:34:39","Mozilla/5.0 (Macintosh; Intel Mac OS X 10_15_7) AppleWebKit/537.36 (KHTML, like Gecko) Chrome/99.0.4844.51 Safari/537.36",1440,900,1298,705,"main",992182,9,6,9,6,"HE","Extreme","Harder than Reference","F","k","riskyDeck","safeDeck",28,0,14,"right",0,0,46,"absent","safeDeck",1253,2217,1,1
"1w43d9e7kn",1471.5,672.796384451018,13384,"04/04/2022@14:34:39","Mozilla/5.0 (Macintosh; Intel Mac OS X 10_15_7) AppleWebKit/537.36 (KHTML, like Gecko) Chrome/99.0.4844.51 Safari/537.36",1440,900,1298,705,"main",992182,9,7,9,6,"HE","Extreme","Harder than Reference","F","k","riskyDeck","safeDeck",28,0,14,"right",0,0,46,"absent","safeDeck",1253,1958,1,1
"1w43d9e7kn",1471.5,672.796384451018,13384,"04/04/2022@14:34:39","Mozilla/5.0 (Macintosh; Intel Mac OS X 10_15_7) AppleWebKit/537.36 (KHTML, like Gecko) Chrome/99.0.4844.51 Safari/537.36",1440,900,1298,705,"main",992182,9,8,9,6,"HE","Extreme","Harder than Reference","F","k","riskyDeck","safeDeck",28,0,14,"right",0,1,46,"present","safeDeck",1253,1473,1,1
"1w43d9e7kn",1471.5,672.796384451018,13384,"04/04/2022@14:34:39","Mozilla/5.0 (Macintosh; Intel Mac OS X 10_15_7) AppleWebKit/537.36 (KHTML, like Gecko) Chrome/99.0.4844.51 Safari/537.36",1440,900,1298,705,"main",992182,9,9,9,6,"HE","Extreme","Harder than Reference","F","k","riskyDeck","safeDeck",28,0,14,"right",0,0,46,"absent","safeDeck",1253,1915,1,1
"1w43d9e7kn",1471.5,672.796384451018,13384,"04/04/2022@14:34:39","Mozilla/5.0 (Macintosh; Intel Mac OS X 10_15_7) AppleWebKit/537.36 (KHTML, like Gecko) Chrome/99.0.4844.51 Safari/537.36",1440,900,1298,705,"main",992182,10,1,10,6,"HM","Moderate","Harder than Reference","F","k","safeDeck","riskyDeck",14,0,7,"right",1,0,46,"absent","riskyDeck",1753,2562,1,0
"1w43d9e7kn",1471.5,672.796384451018,13384,"04/04/2022@14:34:39","Mozilla/5.0 (Macintosh; Intel Mac OS X 10_15_7) AppleWebKit/537.36 (KHTML, like Gecko) Chrome/99.0.4844.51 Safari/537.36",1440,900,1298,705,"main",992182,10,2,10,6,"HM","Moderate","Harder than Reference","F","k","safeDeck","riskyDeck",14,0,7,"right",1,0,46,"absent","riskyDeck",1753,2656,1,0
"1w43d9e7kn",1471.5,672.796384451018,13384,"04/04/2022@14:34:39","Mozilla/5.0 (Macintosh; Intel Mac OS X 10_15_7) AppleWebKit/537.36 (KHTML, like Gecko) Chrome/99.0.4844.51 Safari/537.36",1440,900,1298,705,"main",992182,10,3,10,6,"HM","Moderate","Harder than Reference","F","j","safeDeck","riskyDeck",14,0,7,"right",1,0,46,"present","riskyDeck",1753,781,1,0
"1w43d9e7kn",1471.5,672.796384451018,13384,"04/04/2022@14:34:39","Mozilla/5.0 (Macintosh; Intel Mac OS X 10_15_7) AppleWebKit/537.36 (KHTML, like Gecko) Chrome/99.0.4844.51 Safari/537.36",1440,900,1298,705,"main",992182,10,4,10,6,"HM","Moderate","Harder than Reference","F","k","safeDeck","riskyDeck",14,0,7,"right",1,1,46,"present","riskyDeck",1753,1901,1,0
"1w43d9e7kn",1471.5,672.796384451018,13384,"04/04/2022@14:34:39","Mozilla/5.0 (Macintosh; Intel Mac OS X 10_15_7) AppleWebKit/537.36 (KHTML, like Gecko) Chrome/99.0.4844.51 Safari/537.36",1440,900,1298,705,"main",992182,10,5,10,6,"HM","Moderate","Harder than Reference","F","k","safeDeck","riskyDeck",14,0,7,"right",1,0,46,"absent","riskyDeck",1753,2725,1,0
"1w43d9e7kn",1471.5,672.796384451018,13384,"04/04/2022@14:34:39","Mozilla/5.0 (Macintosh; Intel Mac OS X 10_15_7) AppleWebKit/537.36 (KHTML, like Gecko) Chrome/99.0.4844.51 Safari/537.36",1440,900,1298,705,"main",992182,10,6,10,7,"HM","Moderate","Harder than Reference","F","k","safeDeck","riskyDeck",14,0,7,"right",1,0,46,"absent","riskyDeck",1753,2980,1,0
"1w43d9e7kn",1471.5,672.796384451018,13384,"04/04/2022@14:34:39","Mozilla/5.0 (Macintosh; Intel Mac OS X 10_15_7) AppleWebKit/537.36 (KHTML, like Gecko) Chrome/99.0.4844.51 Safari/537.36",1440,900,1298,705,"main",992182,10,7,10,7,"HM","Moderate","Harder than Reference","F","k","safeDeck","riskyDeck",14,0,7,"right",1,0,46,"absent","riskyDeck",1753,2149,1,0
"1w43d9e7kn",1471.5,672.796384451018,13384,"04/04/2022@14:34:39","Mozilla/5.0 (Macintosh; Intel Mac OS X 10_15_7) AppleWebKit/537.36 (KHTML, like Gecko) Chrome/99.0.4844.51 Safari/537.36",1440,900,1298,705,"main",992182,10,8,10,7,"HM","Moderate","Harder than Reference","F","j","safeDeck","riskyDeck",14,0,7,"right",1,0,46,"present","riskyDeck",1753,1968,1,0
"1w43d9e7kn",1471.5,672.796384451018,13384,"04/04/2022@14:34:39","Mozilla/5.0 (Macintosh; Intel Mac OS X 10_15_7) AppleWebKit/537.36 (KHTML, like Gecko) Chrome/99.0.4844.51 Safari/537.36",1440,900,1298,705,"main",992182,10,9,10,7,"HM","Moderate","Harder than Reference","F","k","safeDeck","riskyDeck",14,0,7,"right",1,0,46,"absent","riskyDeck",1753,1783,1,0
"1w43d9e7kn",1471.5,672.796384451018,13384,"04/04/2022@14:34:39","Mozilla/5.0 (Macintosh; Intel Mac OS X 10_15_7) AppleWebKit/537.36 (KHTML, like Gecko) Chrome/99.0.4844.51 Safari/537.36",1440,900,1298,705,"main",992182,13,1,11,8,"EM","Moderate","Easier than Reference","D","j","riskyDeck","safeDeck",0,-28,-14,"left",1,0,4,"present","riskyDeck",1501,951,-1,0
"1w43d9e7kn",1471.5,672.796384451018,13384,"04/04/2022@14:34:39","Mozilla/5.0 (Macintosh; Intel Mac OS X 10_15_7) AppleWebKit/537.36 (KHTML, like Gecko) Chrome/99.0.4844.51 Safari/537.36",1440,900,1298,705,"main",992182,13,2,11,8,"EM","Moderate","Easier than Reference","D","j","riskyDeck","safeDeck",0,-28,-14,"left",1,0,4,"present","riskyDeck",1501,647,-1,0
"1w43d9e7kn",1471.5,672.796384451018,13384,"04/04/2022@14:34:39","Mozilla/5.0 (Macintosh; Intel Mac OS X 10_15_7) AppleWebKit/537.36 (KHTML, like Gecko) Chrome/99.0.4844.51 Safari/537.36",1440,900,1298,705,"main",992182,13,3,11,8,"EM","Moderate","Easier than Reference","D","k","riskyDeck","safeDeck",0,-28,-14,"left",1,0,4,"absent","riskyDeck",1501,698,-1,0
"1w43d9e7kn",1471.5,672.796384451018,13384,"04/04/2022@14:34:39","Mozilla/5.0 (Macintosh; Intel Mac OS X 10_15_7) AppleWebKit/537.36 (KHTML, like Gecko) Chrome/99.0.4844.51 Safari/537.36",1440,900,1298,705,"main",992182,13,4,11,8,"EM","Moderate","Easier than Reference","D","j","riskyDeck","safeDeck",0,-28,-14,"left",1,0,4,"present","riskyDeck",1501,712,-1,0
"1w43d9e7kn",1471.5,672.796384451018,13384,"04/04/2022@14:34:39","Mozilla/5.0 (Macintosh; Intel Mac OS X 10_15_7) AppleWebKit/537.36 (KHTML, like Gecko) Chrome/99.0.4844.51 Safari/537.36",1440,900,1298,705,"main",992182,13,5,11,8,"EM","Moderate","Easier than Reference","D","k","riskyDeck","safeDeck",0,-28,-14,"left",1,0,4,"absent","riskyDeck",1501,682,-1,0
"1w43d9e7kn",1471.5,672.796384451018,13384,"04/04/2022@14:34:39","Mozilla/5.0 (Macintosh; Intel Mac OS X 10_15_7) AppleWebKit/537.36 (KHTML, like Gecko) Chrome/99.0.4844.51 Safari/537.36",1440,900,1298,705,"main",992182,13,6,11,8,"EM","Moderate","Easier than Reference","D","k","riskyDeck","safeDeck",0,-28,-14,"left",1,0,4,"absent","riskyDeck",1501,861,-1,0
"1w43d9e7kn",1471.5,672.796384451018,13384,"04/04/2022@14:34:39","Mozilla/5.0 (Macintosh; Intel Mac OS X 10_15_7) AppleWebKit/537.36 (KHTML, like Gecko) Chrome/99.0.4844.51 Safari/537.36",1440,900,1298,705,"main",992182,13,7,11,8,"EM","Moderate","Easier than Reference","D","k","riskyDeck","safeDeck",0,-28,-14,"left",1,0,4,"absent","riskyDeck",1501,636,-1,0
"1w43d9e7kn",1471.5,672.796384451018,13384,"04/04/2022@14:34:39","Mozilla/5.0 (Macintosh; Intel Mac OS X 10_15_7) AppleWebKit/537.36 (KHTML, like Gecko) Chrome/99.0.4844.51 Safari/537.36",1440,900,1298,705,"main",992182,13,8,11,8,"EM","Moderate","Easier than Reference","D","j","riskyDeck","safeDeck",0,-28,-14,"left",1,0,4,"present","riskyDeck",1501,742,-1,0
"1w43d9e7kn",1471.5,672.796384451018,13384,"04/04/2022@14:34:39","Mozilla/5.0 (Macintosh; Intel Mac OS X 10_15_7) AppleWebKit/537.36 (KHTML, like Gecko) Chrome/99.0.4844.51 Safari/537.36",1440,900,1298,705,"main",992182,13,9,11,8,"EM","Moderate","Easier than Reference","D","k","riskyDeck","safeDeck",0,-28,-14,"left",1,1,4,"present","riskyDeck",1501,766,-1,0
"1w43d9e7kn",1471.5,672.796384451018,13384,"04/04/2022@14:34:39","Mozilla/5.0 (Macintosh; Intel Mac OS X 10_15_7) AppleWebKit/537.36 (KHTML, like Gecko) Chrome/99.0.4844.51 Safari/537.36",1440,900,1298,705,"main",992182,14,1,11,8,"HM","Moderate","Harder than Reference","D","k","safeDeck","riskyDeck",0,14,7,"left",0,0,39,"absent","safeDeck",1286,1889,-1,1
"1w43d9e7kn",1471.5,672.796384451018,13384,"04/04/2022@14:34:39","Mozilla/5.0 (Macintosh; Intel Mac OS X 10_15_7) AppleWebKit/537.36 (KHTML, like Gecko) Chrome/99.0.4844.51 Safari/537.36",1440,900,1298,705,"main",992182,14,2,11,8,"HM","Moderate","Harder than Reference","D","k","safeDeck","riskyDeck",0,14,7,"left",0,0,39,"absent","safeDeck",1286,1507,-1,1
"1w43d9e7kn",1471.5,672.796384451018,13384,"04/04/2022@14:34:39","Mozilla/5.0 (Macintosh; Intel Mac OS X 10_15_7) AppleWebKit/537.36 (KHTML, like Gecko) Chrome/99.0.4844.51 Safari/537.36",1440,900,1298,705,"main",992182,14,3,11,8,"HM","Moderate","Harder than Reference","D","k","safeDeck","riskyDeck",0,14,7,"left",0,0,39,"absent","safeDeck",1286,1665,-1,1
"1w43d9e7kn",1471.5,672.796384451018,13384,"04/04/2022@14:34:39","Mozilla/5.0 (Macintosh; Intel Mac OS X 10_15_7) AppleWebKit/537.36 (KHTML, like Gecko) Chrome/99.0.4844.51 Safari/537.36",1440,900,1298,705,"main",992182,14,4,11,8,"HM","Moderate","Harder than Reference","D","j","safeDeck","riskyDeck",0,14,7,"left",0,0,39,"present","safeDeck",1286,1255,-1,1
"1w43d9e7kn",1471.5,672.796384451018,13384,"04/04/2022@14:34:39","Mozilla/5.0 (Macintosh; Intel Mac OS X 10_15_7) AppleWebKit/537.36 (KHTML, like Gecko) Chrome/99.0.4844.51 Safari/537.36",1440,900,1298,705,"main",992182,14,5,11,8,"HM","Moderate","Harder than Reference","D","j","safeDeck","riskyDeck",0,14,7,"left",0,0,39,"present","safeDeck",1286,1749,-1,1
"1w43d9e7kn",1471.5,672.796384451018,13384,"04/04/2022@14:34:39","Mozilla/5.0 (Macintosh; Intel Mac OS X 10_15_7) AppleWebKit/537.36 (KHTML, like Gecko) Chrome/99.0.4844.51 Safari/537.36",1440,900,1298,705,"main",992182,14,6,11,8,"HM","Moderate","Harder than Reference","D","k","safeDeck","riskyDeck",0,14,7,"left",0,1,39,"present","safeDeck",1286,1806,-1,1
"1w43d9e7kn",1471.5,672.796384451018,13384,"04/04/2022@14:34:39","Mozilla/5.0 (Macintosh; Intel Mac OS X 10_15_7) AppleWebKit/537.36 (KHTML, like Gecko) Chrome/99.0.4844.51 Safari/537.36",1440,900,1298,705,"main",992182,14,7,11,8,"HM","Moderate","Harder than Reference","D","k","safeDeck","riskyDeck",0,14,7,"left",0,0,39,"absent","safeDeck",1286,1432,-1,1
"1w43d9e7kn",1471.5,672.796384451018,13384,"04/04/2022@14:34:39","Mozilla/5.0 (Macintosh; Intel Mac OS X 10_15_7) AppleWebKit/537.36 (KHTML, like Gecko) Chrome/99.0.4844.51 Safari/537.36",1440,900,1298,705,"main",992182,14,8,11,8,"HM","Moderate","Harder than Reference","D","k","safeDeck","riskyDeck",0,14,7,"left",0,0,39,"absent","safeDeck",1286,1202,-1,1
"1w43d9e7kn",1471.5,672.796384451018,13384,"04/04/2022@14:34:39","Mozilla/5.0 (Macintosh; Intel Mac OS X 10_15_7) AppleWebKit/537.36 (KHTML, like Gecko) Chrome/99.0.4844.51 Safari/537.36",1440,900,1298,705,"main",992182,14,9,11,8,"HM","Moderate","Harder than Reference","D","k","safeDeck","riskyDeck",0,14,7,"left",0,1,39,"present","safeDeck",1286,1455,-1,1
"1w43d9e7kn",1471.5,672.796384451018,13384,"04/04/2022@14:34:39","Mozilla/5.0 (Macintosh; Intel Mac OS X 10_15_7) AppleWebKit/537.36 (KHTML, like Gecko) Chrome/99.0.4844.51 Safari/537.36",1440,900,1298,705,"main",992182,15,1,12,8,"EE","Extreme","Easier than Reference","F","j","safeDeck","riskyDeck",-14,0,-7,"right",1,0,32,"present","riskyDeck",1211,1501,1,0
"1w43d9e7kn",1471.5,672.796384451018,13384,"04/04/2022@14:34:39","Mozilla/5.0 (Macintosh; Intel Mac OS X 10_15_7) AppleWebKit/537.36 (KHTML, like Gecko) Chrome/99.0.4844.51 Safari/537.36",1440,900,1298,705,"main",992182,15,2,12,8,"EE","Extreme","Easier than Reference","F","j","safeDeck","riskyDeck",-14,0,-7,"right",1,0,32,"present","riskyDeck",1211,1239,1,0
"1w43d9e7kn",1471.5,672.796384451018,13384,"04/04/2022@14:34:39","Mozilla/5.0 (Macintosh; Intel Mac OS X 10_15_7) AppleWebKit/537.36 (KHTML, like Gecko) Chrome/99.0.4844.51 Safari/537.36",1440,900,1298,705,"main",992182,15,3,12,8,"EE","Extreme","Easier than Reference","F","j","safeDeck","riskyDeck",-14,0,-7,"right",1,0,32,"present","riskyDeck",1211,831,1,0
"1w43d9e7kn",1471.5,672.796384451018,13384,"04/04/2022@14:34:39","Mozilla/5.0 (Macintosh; Intel Mac OS X 10_15_7) AppleWebKit/537.36 (KHTML, like Gecko) Chrome/99.0.4844.51 Safari/537.36",1440,900,1298,705,"main",992182,15,4,12,8,"EE","Extreme","Easier than Reference","F","k","safeDeck","riskyDeck",-14,0,-7,"right",1,0,32,"absent","riskyDeck",1211,2194,1,0
"1w43d9e7kn",1471.5,672.796384451018,13384,"04/04/2022@14:34:39","Mozilla/5.0 (Macintosh; Intel Mac OS X 10_15_7) AppleWebKit/537.36 (KHTML, like Gecko) Chrome/99.0.4844.51 Safari/537.36",1440,900,1298,705,"main",992182,15,5,12,8,"EE","Extreme","Easier than Reference","F","j","safeDeck","riskyDeck",-14,0,-7,"right",1,0,32,"present","riskyDeck",1211,1667,1,0
"1w43d9e7kn",1471.5,672.796384451018,13384,"04/04/2022@14:34:39","Mozilla/5.0 (Macintosh; Intel Mac OS X 10_15_7) AppleWebKit/537.36 (KHTML, like Gecko) Chrome/99.0.4844.51 Safari/537.36",1440,900,1298,705,"main",992182,15,6,12,8,"EE","Extreme","Easier than Reference","F","k","safeDeck","riskyDeck",-14,0,-7,"right",1,0,32,"absent","riskyDeck",1211,3230,1,0
"1w43d9e7kn",1471.5,672.796384451018,13384,"04/04/2022@14:34:39","Mozilla/5.0 (Macintosh; Intel Mac OS X 10_15_7) AppleWebKit/537.36 (KHTML, like Gecko) Chrome/99.0.4844.51 Safari/537.36",1440,900,1298,705,"main",992182,15,7,12,8,"EE","Extreme","Easier than Reference","F","k","safeDeck","riskyDeck",-14,0,-7,"right",1,0,32,"absent","riskyDeck",1211,1671,1,0
"1w43d9e7kn",1471.5,672.796384451018,13384,"04/04/2022@14:34:39","Mozilla/5.0 (Macintosh; Intel Mac OS X 10_15_7) AppleWebKit/537.36 (KHTML, like Gecko) Chrome/99.0.4844.51 Safari/537.36",1440,900,1298,705,"main",992182,15,8,12,8,"EE","Extreme","Easier than Reference","F","j","safeDeck","riskyDeck",-14,0,-7,"right",1,0,32,"present","riskyDeck",1211,1386,1,0
"1w43d9e7kn",1471.5,672.796384451018,13384,"04/04/2022@14:34:39","Mozilla/5.0 (Macintosh; Intel Mac OS X 10_15_7) AppleWebKit/537.36 (KHTML, like Gecko) Chrome/99.0.4844.51 Safari/537.36",1440,900,1298,705,"main",992182,15,9,12,8,"EE","Extreme","Easier than Reference","F","j","safeDeck","riskyDeck",-14,0,-7,"right",1,0,32,"present","riskyDeck",1211,812,1,0
"1w43d9e7kn",1471.5,672.796384451018,13384,"04/04/2022@14:34:39","Mozilla/5.0 (Macintosh; Intel Mac OS X 10_15_7) AppleWebKit/537.36 (KHTML, like Gecko) Chrome/99.0.4844.51 Safari/537.36",1440,900,1298,705,"main",992182,16,1,12,9,"HE","Extreme","Harder than Reference","D","k","riskyDeck","safeDeck",28,0,14,"left",1,0,32,"absent","riskyDeck",2259,2073,-1,0
"1w43d9e7kn",1471.5,672.796384451018,13384,"04/04/2022@14:34:39","Mozilla/5.0 (Macintosh; Intel Mac OS X 10_15_7) AppleWebKit/537.36 (KHTML, like Gecko) Chrome/99.0.4844.51 Safari/537.36",1440,900,1298,705,"main",992182,16,2,12,9,"HE","Extreme","Harder than Reference","D","j","riskyDeck","safeDeck",28,0,14,"left",1,0,32,"present","riskyDeck",2259,943,-1,0
"1w43d9e7kn",1471.5,672.796384451018,13384,"04/04/2022@14:34:39","Mozilla/5.0 (Macintosh; Intel Mac OS X 10_15_7) AppleWebKit/537.36 (KHTML, like Gecko) Chrome/99.0.4844.51 Safari/537.36",1440,900,1298,705,"main",992182,16,3,12,9,"HE","Extreme","Harder than Reference","D","k","riskyDeck","safeDeck",28,0,14,"left",1,0,32,"absent","riskyDeck",2259,1742,-1,0
"1w43d9e7kn",1471.5,672.796384451018,13384,"04/04/2022@14:34:39","Mozilla/5.0 (Macintosh; Intel Mac OS X 10_15_7) AppleWebKit/537.36 (KHTML, like Gecko) Chrome/99.0.4844.51 Safari/537.36",1440,900,1298,705,"main",992182,16,4,12,9,"HE","Extreme","Harder than Reference","D","k","riskyDeck","safeDeck",28,0,14,"left",1,0,32,"absent","riskyDeck",2259,2013,-1,0
"1w43d9e7kn",1471.5,672.796384451018,13384,"04/04/2022@14:34:39","Mozilla/5.0 (Macintosh; Intel Mac OS X 10_15_7) AppleWebKit/537.36 (KHTML, like Gecko) Chrome/99.0.4844.51 Safari/537.36",1440,900,1298,705,"main",992182,16,5,12,9,"HE","Extreme","Harder than Reference","D","k","riskyDeck","safeDeck",28,0,14,"left",1,0,32,"absent","riskyDeck",2259,1961,-1,0
"1w43d9e7kn",1471.5,672.796384451018,13384,"04/04/2022@14:34:39","Mozilla/5.0 (Macintosh; Intel Mac OS X 10_15_7) AppleWebKit/537.36 (KHTML, like Gecko) Chrome/99.0.4844.51 Safari/537.36",1440,900,1298,705,"main",992182,16,6,12,9,"HE","Extreme","Harder than Reference","D","k","riskyDeck","safeDeck",28,0,14,"left",1,0,32,"absent","riskyDeck",2259,1898,-1,0
"1w43d9e7kn",1471.5,672.796384451018,13384,"04/04/2022@14:34:39","Mozilla/5.0 (Macintosh; Intel Mac OS X 10_15_7) AppleWebKit/537.36 (KHTML, like Gecko) Chrome/99.0.4844.51 Safari/537.36",1440,900,1298,705,"main",992182,16,7,12,9,"HE","Extreme","Harder than Reference","D","j","riskyDeck","safeDeck",28,0,14,"left",1,0,32,"present","riskyDeck",2259,965,-1,0
"1w43d9e7kn",1471.5,672.796384451018,13384,"04/04/2022@14:34:39","Mozilla/5.0 (Macintosh; Intel Mac OS X 10_15_7) AppleWebKit/537.36 (KHTML, like Gecko) Chrome/99.0.4844.51 Safari/537.36",1440,900,1298,705,"main",992182,16,8,12,9,"HE","Extreme","Harder than Reference","D","j","riskyDeck","safeDeck",28,0,14,"left",1,0,32,"present","riskyDeck",2259,1892,-1,0
"1w43d9e7kn",1471.5,672.796384451018,13384,"04/04/2022@14:34:39","Mozilla/5.0 (Macintosh; Intel Mac OS X 10_15_7) AppleWebKit/537.36 (KHTML, like Gecko) Chrome/99.0.4844.51 Safari/537.36",1440,900,1298,705,"main",992182,16,9,12,9,"HE","Extreme","Harder than Reference","D","k","riskyDeck","safeDeck",28,0,14,"left",1,0,32,"absent","riskyDeck",2259,1589,-1,0
"1w43d9e7kn",1471.5,672.796384451018,13384,"04/04/2022@14:34:39","Mozilla/5.0 (Macintosh; Intel Mac OS X 10_15_7) AppleWebKit/537.36 (KHTML, like Gecko) Chrome/99.0.4844.51 Safari/537.36",1440,900,1298,705,"main",992182,17,1,12,9,"HM","Moderate","Harder than Reference","F","k","safeDeck","riskyDeck",14,0,7,"right",1,0,32,"absent","riskyDeck",1494,1141,1,0
"1w43d9e7kn",1471.5,672.796384451018,13384,"04/04/2022@14:34:39","Mozilla/5.0 (Macintosh; Intel Mac OS X 10_15_7) AppleWebKit/537.36 (KHTML, like Gecko) Chrome/99.0.4844.51 Safari/537.36",1440,900,1298,705,"main",992182,17,2,12,9,"HM","Moderate","Harder than Reference","F","j","safeDeck","riskyDeck",14,0,7,"right",1,0,32,"present","riskyDeck",1494,805,1,0
"1w43d9e7kn",1471.5,672.796384451018,13384,"04/04/2022@14:34:39","Mozilla/5.0 (Macintosh; Intel Mac OS X 10_15_7) AppleWebKit/537.36 (KHTML, like Gecko) Chrome/99.0.4844.51 Safari/537.36",1440,900,1298,705,"main",992182,17,3,12,9,"HM","Moderate","Harder than Reference","F","k","safeDeck","riskyDeck",14,0,7,"right",1,0,32,"absent","riskyDeck",1494,1258,1,0
"1w43d9e7kn",1471.5,672.796384451018,13384,"04/04/2022@14:34:39","Mozilla/5.0 (Macintosh; Intel Mac OS X 10_15_7) AppleWebKit/537.36 (KHTML, like Gecko) Chrome/99.0.4844.51 Safari/537.36",1440,900,1298,705,"main",992182,17,4,12,9,"HM","Moderate","Harder than Reference","F","j","safeDeck","riskyDeck",14,0,7,"right",1,0,32,"present","riskyDeck",1494,828,1,0
"1w43d9e7kn",1471.5,672.796384451018,13384,"04/04/2022@14:34:39","Mozilla/5.0 (Macintosh; Intel Mac OS X 10_15_7) AppleWebKit/537.36 (KHTML, like Gecko) Chrome/99.0.4844.51 Safari/537.36",1440,900,1298,705,"main",992182,17,5,12,9,"HM","Moderate","Harder than Reference","F","j","safeDeck","riskyDeck",14,0,7,"right",1,0,32,"present","riskyDeck",1494,918,1,0
"1w43d9e7kn",1471.5,672.796384451018,13384,"04/04/2022@14:34:39","Mozilla/5.0 (Macintosh; Intel Mac OS X 10_15_7) AppleWebKit/537.36 (KHTML, like Gecko) Chrome/99.0.4844.51 Safari/537.36",1440,900,1298,705,"main",992182,17,6,12,9,"HM","Moderate","Harder than Reference","F","k","safeDeck","riskyDeck",14,0,7,"right",1,0,32,"absent","riskyDeck",1494,1105,1,0
"1w43d9e7kn",1471.5,672.796384451018,13384,"04/04/2022@14:34:39","Mozilla/5.0 (Macintosh; Intel Mac OS X 10_15_7) AppleWebKit/537.36 (KHTML, like Gecko) Chrome/99.0.4844.51 Safari/537.36",1440,900,1298,705,"main",992182,17,7,12,9,"HM","Moderate","Harder than Reference","F","j","safeDeck","riskyDeck",14,0,7,"right",1,0,32,"present","riskyDeck",1494,1319,1,0
"1w43d9e7kn",1471.5,672.796384451018,13384,"04/04/2022@14:34:39","Mozilla/5.0 (Macintosh; Intel Mac OS X 10_15_7) AppleWebKit/537.36 (KHTML, like Gecko) Chrome/99.0.4844.51 Safari/537.36",1440,900,1298,705,"main",992182,17,8,12,9,"HM","Moderate","Harder than Reference","F","k","safeDeck","riskyDeck",14,0,7,"right",1,1,32,"present","riskyDeck",1494,1422,1,0
"1w43d9e7kn",1471.5,672.796384451018,13384,"04/04/2022@14:34:39","Mozilla/5.0 (Macintosh; Intel Mac OS X 10_15_7) AppleWebKit/537.36 (KHTML, like Gecko) Chrome/99.0.4844.51 Safari/537.36",1440,900,1298,705,"main",992182,17,9,12,9,"HM","Moderate","Harder than Reference","F","k","safeDeck","riskyDeck",14,0,7,"right",1,0,32,"absent","riskyDeck",1494,1551,1,0
"1w43d9e7kn",1471.5,672.796384451018,13384,"04/04/2022@14:34:39","Mozilla/5.0 (Macintosh; Intel Mac OS X 10_15_7) AppleWebKit/537.36 (KHTML, like Gecko) Chrome/99.0.4844.51 Safari/537.36",1440,900,1298,705,"main",992182,18,1,13,9,"HE","Extreme","Harder than Reference","F","k","safeDeck","riskyDeck",0,28,14,"right",1,0,60,"absent","riskyDeck",1392,2958,1,0
"1w43d9e7kn",1471.5,672.796384451018,13384,"04/04/2022@14:34:39","Mozilla/5.0 (Macintosh; Intel Mac OS X 10_15_7) AppleWebKit/537.36 (KHTML, like Gecko) Chrome/99.0.4844.51 Safari/537.36",1440,900,1298,705,"main",992182,18,2,13,9,"HE","Extreme","Harder than Reference","F","k","safeDeck","riskyDeck",0,28,14,"right",1,0,60,"absent","riskyDeck",1392,2327,1,0
"1w43d9e7kn",1471.5,672.796384451018,13384,"04/04/2022@14:34:39","Mozilla/5.0 (Macintosh; Intel Mac OS X 10_15_7) AppleWebKit/537.36 (KHTML, like Gecko) Chrome/99.0.4844.51 Safari/537.36",1440,900,1298,705,"main",992182,18,3,13,9,"HE","Extreme","Harder than Reference","F","k","safeDeck","riskyDeck",0,28,14,"right",1,0,60,"absent","riskyDeck",1392,2312,1,0
"1w43d9e7kn",1471.5,672.796384451018,13384,"04/04/2022@14:34:39","Mozilla/5.0 (Macintosh; Intel Mac OS X 10_15_7) AppleWebKit/537.36 (KHTML, like Gecko) Chrome/99.0.4844.51 Safari/537.36",1440,900,1298,705,"main",992182,18,4,13,9,"HE","Extreme","Harder than Reference","F","k","safeDeck","riskyDeck",0,28,14,"right",1,0,60,"absent","riskyDeck",1392,2493,1,0
"1w43d9e7kn",1471.5,672.796384451018,13384,"04/04/2022@14:34:39","Mozilla/5.0 (Macintosh; Intel Mac OS X 10_15_7) AppleWebKit/537.36 (KHTML, like Gecko) Chrome/99.0.4844.51 Safari/537.36",1440,900,1298,705,"main",992182,18,5,13,9,"HE","Extreme","Harder than Reference","F","k","safeDeck","riskyDeck",0,28,14,"right",1,0,60,"absent","riskyDeck",1392,2286,1,0
"1w43d9e7kn",1471.5,672.796384451018,13384,"04/04/2022@14:34:39","Mozilla/5.0 (Macintosh; Intel Mac OS X 10_15_7) AppleWebKit/537.36 (KHTML, like Gecko) Chrome/99.0.4844.51 Safari/537.36",1440,900,1298,705,"main",992182,18,6,13,9,"HE","Extreme","Harder than Reference","F","k","safeDeck","riskyDeck",0,28,14,"right",1,0,60,"absent","riskyDeck",1392,2059,1,0
"1w43d9e7kn",1471.5,672.796384451018,13384,"04/04/2022@14:34:39","Mozilla/5.0 (Macintosh; Intel Mac OS X 10_15_7) AppleWebKit/537.36 (KHTML, like Gecko) Chrome/99.0.4844.51 Safari/537.36",1440,900,1298,705,"main",992182,18,7,13,10,"HE","Extreme","Harder than Reference","F","k","safeDeck","riskyDeck",0,28,14,"right",1,1,60,"present","riskyDeck",1392,2370,1,0
"1w43d9e7kn",1471.5,672.796384451018,13384,"04/04/2022@14:34:39","Mozilla/5.0 (Macintosh; Intel Mac OS X 10_15_7) AppleWebKit/537.36 (KHTML, like Gecko) Chrome/99.0.4844.51 Safari/537.36",1440,900,1298,705,"main",992182,18,8,13,10,"HE","Extreme","Harder than Reference","F","j","safeDeck","riskyDeck",0,28,14,"right",1,0,60,"present","riskyDeck",1392,1599,1,0
"1w43d9e7kn",1471.5,672.796384451018,13384,"04/04/2022@14:34:39","Mozilla/5.0 (Macintosh; Intel Mac OS X 10_15_7) AppleWebKit/537.36 (KHTML, like Gecko) Chrome/99.0.4844.51 Safari/537.36",1440,900,1298,705,"main",992182,18,9,13,10,"HE","Extreme","Harder than Reference","F","k","safeDeck","riskyDeck",0,28,14,"right",1,1,60,"present","riskyDeck",1392,2394,1,0
"1w43d9e7kn",1471.5,672.796384451018,13384,"04/04/2022@14:34:39","Mozilla/5.0 (Macintosh; Intel Mac OS X 10_15_7) AppleWebKit/537.36 (KHTML, like Gecko) Chrome/99.0.4844.51 Safari/537.36",1440,900,1298,705,"main",992182,19,1,13,10,"EE","Extreme","Easier than Reference","D","k","riskyDeck","safeDeck",0,-14,-7,"left",1,0,18,"absent","riskyDeck",1389,1612,-1,0
"1w43d9e7kn",1471.5,672.796384451018,13384,"04/04/2022@14:34:39","Mozilla/5.0 (Macintosh; Intel Mac OS X 10_15_7) AppleWebKit/537.36 (KHTML, like Gecko) Chrome/99.0.4844.51 Safari/537.36",1440,900,1298,705,"main",992182,19,2,13,10,"EE","Extreme","Easier than Reference","D","j","riskyDeck","safeDeck",0,-14,-7,"left",1,0,18,"present","riskyDeck",1389,780,-1,0
"1w43d9e7kn",1471.5,672.796384451018,13384,"04/04/2022@14:34:39","Mozilla/5.0 (Macintosh; Intel Mac OS X 10_15_7) AppleWebKit/537.36 (KHTML, like Gecko) Chrome/99.0.4844.51 Safari/537.36",1440,900,1298,705,"main",992182,19,3,13,10,"EE","Extreme","Easier than Reference","D","j","riskyDeck","safeDeck",0,-14,-7,"left",1,0,18,"present","riskyDeck",1389,906,-1,0
"1w43d9e7kn",1471.5,672.796384451018,13384,"04/04/2022@14:34:39","Mozilla/5.0 (Macintosh; Intel Mac OS X 10_15_7) AppleWebKit/537.36 (KHTML, like Gecko) Chrome/99.0.4844.51 Safari/537.36",1440,900,1298,705,"main",992182,19,4,13,10,"EE","Extreme","Easier than Reference","D","j","riskyDeck","safeDeck",0,-14,-7,"left",1,0,18,"present","riskyDeck",1389,978,-1,0
"1w43d9e7kn",1471.5,672.796384451018,13384,"04/04/2022@14:34:39","Mozilla/5.0 (Macintosh; Intel Mac OS X 10_15_7) AppleWebKit/537.36 (KHTML, like Gecko) Chrome/99.0.4844.51 Safari/537.36",1440,900,1298,705,"main",992182,19,5,13,10,"EE","Extreme","Easier than Reference","D","k","riskyDeck","safeDeck",0,-14,-7,"left",1,0,18,"absent","riskyDeck",1389,1320,-1,0
"1w43d9e7kn",1471.5,672.796384451018,13384,"04/04/2022@14:34:39","Mozilla/5.0 (Macintosh; Intel Mac OS X 10_15_7) AppleWebKit/537.36 (KHTML, like Gecko) Chrome/99.0.4844.51 Safari/537.36",1440,900,1298,705,"main",992182,19,6,13,10,"EE","Extreme","Easier than Reference","D","k","riskyDeck","safeDeck",0,-14,-7,"left",1,0,18,"absent","riskyDeck",1389,1283,-1,0
"1w43d9e7kn",1471.5,672.796384451018,13384,"04/04/2022@14:34:39","Mozilla/5.0 (Macintosh; Intel Mac OS X 10_15_7) AppleWebKit/537.36 (KHTML, like Gecko) Chrome/99.0.4844.51 Safari/537.36",1440,900,1298,705,"main",992182,19,7,13,10,"EE","Extreme","Easier than Reference","D","j","riskyDeck","safeDeck",0,-14,-7,"left",1,0,18,"present","riskyDeck",1389,1361,-1,0
"1w43d9e7kn",1471.5,672.796384451018,13384,"04/04/2022@14:34:39","Mozilla/5.0 (Macintosh; Intel Mac OS X 10_15_7) AppleWebKit/537.36 (KHTML, like Gecko) Chrome/99.0.4844.51 Safari/537.36",1440,900,1298,705,"main",992182,19,8,13,10,"EE","Extreme","Easier than Reference","D","k","riskyDeck","safeDeck",0,-14,-7,"left",1,0,18,"absent","riskyDeck",1389,1116,-1,0
"1w43d9e7kn",1471.5,672.796384451018,13384,"04/04/2022@14:34:39","Mozilla/5.0 (Macintosh; Intel Mac OS X 10_15_7) AppleWebKit/537.36 (KHTML, like Gecko) Chrome/99.0.4844.51 Safari/537.36",1440,900,1298,705,"main",992182,19,9,13,10,"EE","Extreme","Easier than Reference","D","j","riskyDeck","safeDeck",0,-14,-7,"left",1,0,18,"present","riskyDeck",1389,712,-1,0
"1w43d9e7kn",1471.5,672.796384451018,13384,"04/04/2022@14:34:39","Mozilla/5.0 (Macintosh; Intel Mac OS X 10_15_7) AppleWebKit/537.36 (KHTML, like Gecko) Chrome/99.0.4844.51 Safari/537.36",1440,900,1298,705,"main",992182,20,1,13,10,"EM","Moderate","Easier than Reference","F","k","safeDeck","riskyDeck",0,-28,-14,"right",1,0,4,"absent","riskyDeck",819,769,1,0
"1w43d9e7kn",1471.5,672.796384451018,13384,"04/04/2022@14:34:39","Mozilla/5.0 (Macintosh; Intel Mac OS X 10_15_7) AppleWebKit/537.36 (KHTML, like Gecko) Chrome/99.0.4844.51 Safari/537.36",1440,900,1298,705,"main",992182,20,2,13,10,"EM","Moderate","Easier than Reference","F","j","safeDeck","riskyDeck",0,-28,-14,"right",1,0,4,"present","riskyDeck",819,753,1,0
"1w43d9e7kn",1471.5,672.796384451018,13384,"04/04/2022@14:34:39","Mozilla/5.0 (Macintosh; Intel Mac OS X 10_15_7) AppleWebKit/537.36 (KHTML, like Gecko) Chrome/99.0.4844.51 Safari/537.36",1440,900,1298,705,"main",992182,20,3,13,10,"EM","Moderate","Easier than Reference","F","j","safeDeck","riskyDeck",0,-28,-14,"right",1,0,4,"present","riskyDeck",819,562,1,0
"1w43d9e7kn",1471.5,672.796384451018,13384,"04/04/2022@14:34:39","Mozilla/5.0 (Macintosh; Intel Mac OS X 10_15_7) AppleWebKit/537.36 (KHTML, like Gecko) Chrome/99.0.4844.51 Safari/537.36",1440,900,1298,705,"main",992182,20,4,13,10,"EM","Moderate","Easier than Reference","F","k","safeDeck","riskyDeck",0,-28,-14,"right",1,0,4,"absent","riskyDeck",819,684,1,0
"1w43d9e7kn",1471.5,672.796384451018,13384,"04/04/2022@14:34:39","Mozilla/5.0 (Macintosh; Intel Mac OS X 10_15_7) AppleWebKit/537.36 (KHTML, like Gecko) Chrome/99.0.4844.51 Safari/537.36",1440,900,1298,705,"main",992182,20,5,13,10,"EM","Moderate","Easier than Reference","F","j","safeDeck","riskyDeck",0,-28,-14,"right",1,1,4,"absent","riskyDeck",819,659,1,0
"1w43d9e7kn",1471.5,672.796384451018,13384,"04/04/2022@14:34:39","Mozilla/5.0 (Macintosh; Intel Mac OS X 10_15_7) AppleWebKit/537.36 (KHTML, like Gecko) Chrome/99.0.4844.51 Safari/537.36",1440,900,1298,705,"main",992182,20,6,13,10,"EM","Moderate","Easier than Reference","F","j","safeDeck","riskyDeck",0,-28,-14,"right",1,0,4,"present","riskyDeck",819,626,1,0
"1w43d9e7kn",1471.5,672.796384451018,13384,"04/04/2022@14:34:39","Mozilla/5.0 (Macintosh; Intel Mac OS X 10_15_7) AppleWebKit/537.36 (KHTML, like Gecko) Chrome/99.0.4844.51 Safari/537.36",1440,900,1298,705,"main",992182,20,7,13,10,"EM","Moderate","Easier than Reference","F","k","safeDeck","riskyDeck",0,-28,-14,"right",1,0,4,"absent","riskyDeck",819,743,1,0
"1w43d9e7kn",1471.5,672.796384451018,13384,"04/04/2022@14:34:39","Mozilla/5.0 (Macintosh; Intel Mac OS X 10_15_7) AppleWebKit/537.36 (KHTML, like Gecko) Chrome/99.0.4844.51 Safari/537.36",1440,900,1298,705,"main",992182,20,8,13,10,"EM","Moderate","Easier than Reference","F","k","safeDeck","riskyDeck",0,-28,-14,"right",1,0,4,"absent","riskyDeck",819,843,1,0
"1w43d9e7kn",1471.5,672.796384451018,13384,"04/04/2022@14:34:39","Mozilla/5.0 (Macintosh; Intel Mac OS X 10_15_7) AppleWebKit/537.36 (KHTML, like Gecko) Chrome/99.0.4844.51 Safari/537.36",1440,900,1298,705,"main",992182,20,9,13,10,"EM","Moderate","Easier than Reference","F","k","safeDeck","riskyDeck",0,-28,-14,"right",1,0,4,"absent","riskyDeck",819,653,1,0
"1w43d9e7kn",1471.5,672.796384451018,13384,"04/04/2022@14:34:39","Mozilla/5.0 (Macintosh; Intel Mac OS X 10_15_7) AppleWebKit/537.36 (KHTML, like Gecko) Chrome/99.0.4844.51 Safari/537.36",1440,900,1298,705,"main",992182,21,1,14,10,"EE","Extreme","Easier than Reference","D","k","riskyDeck","safeDeck",-14,0,-7,"left",1,0,32,"absent","riskyDeck",1952,1203,-1,0
"1w43d9e7kn",1471.5,672.796384451018,13384,"04/04/2022@14:34:39","Mozilla/5.0 (Macintosh; Intel Mac OS X 10_15_7) AppleWebKit/537.36 (KHTML, like Gecko) Chrome/99.0.4844.51 Safari/537.36",1440,900,1298,705,"main",992182,21,2,14,10,"EE","Extreme","Easier than Reference","D","k","riskyDeck","safeDeck",-14,0,-7,"left",1,0,32,"absent","riskyDeck",1952,1067,-1,0
"1w43d9e7kn",1471.5,672.796384451018,13384,"04/04/2022@14:34:39","Mozilla/5.0 (Macintosh; Intel Mac OS X 10_15_7) AppleWebKit/537.36 (KHTML, like Gecko) Chrome/99.0.4844.51 Safari/537.36",1440,900,1298,705,"main",992182,21,3,14,10,"EE","Extreme","Easier than Reference","D","k","riskyDeck","safeDeck",-14,0,-7,"left",1,1,32,"present","riskyDeck",1952,1063,-1,0
"1w43d9e7kn",1471.5,672.796384451018,13384,"04/04/2022@14:34:39","Mozilla/5.0 (Macintosh; Intel Mac OS X 10_15_7) AppleWebKit/537.36 (KHTML, like Gecko) Chrome/99.0.4844.51 Safari/537.36",1440,900,1298,705,"main",992182,21,4,14,10,"EE","Extreme","Easier than Reference","D","j","riskyDeck","safeDeck",-14,0,-7,"left",1,0,32,"present","riskyDeck",1952,872,-1,0
"1w43d9e7kn",1471.5,672.796384451018,13384,"04/04/2022@14:34:39","Mozilla/5.0 (Macintosh; Intel Mac OS X 10_15_7) AppleWebKit/537.36 (KHTML, like Gecko) Chrome/99.0.4844.51 Safari/537.36",1440,900,1298,705,"main",992182,21,5,14,10,"EE","Extreme","Easier than Reference","D","j","riskyDeck","safeDeck",-14,0,-7,"left",1,0,32,"present","riskyDeck",1952,740,-1,0
"1w43d9e7kn",1471.5,672.796384451018,13384,"04/04/2022@14:34:39","Mozilla/5.0 (Macintosh; Intel Mac OS X 10_15_7) AppleWebKit/537.36 (KHTML, like Gecko) Chrome/99.0.4844.51 Safari/537.36",1440,900,1298,705,"main",992182,21,6,14,10,"EE","Extreme","Easier than Reference","D","k","riskyDeck","safeDeck",-14,0,-7,"left",1,1,32,"present","riskyDeck",1952,1052,-1,0
"1w43d9e7kn",1471.5,672.796384451018,13384,"04/04/2022@14:34:39","Mozilla/5.0 (Macintosh; Intel Mac OS X 10_15_7) AppleWebKit/537.36 (KHTML, like Gecko) Chrome/99.0.4844.51 Safari/537.36",1440,900,1298,705,"main",992182,21,7,14,10,"EE","Extreme","Easier than Reference","D","j","riskyDeck","safeDeck",-14,0,-7,"left",1,0,32,"present","riskyDeck",1952,874,-1,0
"1w43d9e7kn",1471.5,672.796384451018,13384,"04/04/2022@14:34:39","Mozilla/5.0 (Macintosh; Intel Mac OS X 10_15_7) AppleWebKit/537.36 (KHTML, like Gecko) Chrome/99.0.4844.51 Safari/537.36",1440,900,1298,705,"main",992182,21,8,14,10,"EE","Extreme","Easier than Reference","D","k","riskyDeck","safeDeck",-14,0,-7,"left",1,1,32,"present","riskyDeck",1952,958,-1,0
"1w43d9e7kn",1471.5,672.796384451018,13384,"04/04/2022@14:34:39","Mozilla/5.0 (Macintosh; Intel Mac OS X 10_15_7) AppleWebKit/537.36 (KHTML, like Gecko) Chrome/99.0.4844.51 Safari/537.36",1440,900,1298,705,"main",992182,21,9,14,11,"EE","Extreme","Easier than Reference","D","j","riskyDeck","safeDeck",-14,0,-7,"left",1,0,32,"present","riskyDeck",1952,1461,-1,0
"1w43d9e7kn",1471.5,672.796384451018,13384,"04/04/2022@14:34:39","Mozilla/5.0 (Macintosh; Intel Mac OS X 10_15_7) AppleWebKit/537.36 (KHTML, like Gecko) Chrome/99.0.4844.51 Safari/537.36",1440,900,1298,705,"main",992182,22,1,14,11,"HE","Extreme","Harder than Reference","F","k","safeDeck","riskyDeck",0,28,14,"right",1,0,60,"absent","riskyDeck",1276,4300,1,0
"1w43d9e7kn",1471.5,672.796384451018,13384,"04/04/2022@14:34:39","Mozilla/5.0 (Macintosh; Intel Mac OS X 10_15_7) AppleWebKit/537.36 (KHTML, like Gecko) Chrome/99.0.4844.51 Safari/537.36",1440,900,1298,705,"main",992182,22,2,14,11,"HE","Extreme","Harder than Reference","F","k","safeDeck","riskyDeck",0,28,14,"right",1,1,60,"present","riskyDeck",1276,1441,1,0
"1w43d9e7kn",1471.5,672.796384451018,13384,"04/04/2022@14:34:39","Mozilla/5.0 (Macintosh; Intel Mac OS X 10_15_7) AppleWebKit/537.36 (KHTML, like Gecko) Chrome/99.0.4844.51 Safari/537.36",1440,900,1298,705,"main",992182,22,3,14,11,"HE","Extreme","Harder than Reference","F","k","safeDeck","riskyDeck",0,28,14,"right",1,1,60,"present","riskyDeck",1276,2580,1,0
"1w43d9e7kn",1471.5,672.796384451018,13384,"04/04/2022@14:34:39","Mozilla/5.0 (Macintosh; Intel Mac OS X 10_15_7) AppleWebKit/537.36 (KHTML, like Gecko) Chrome/99.0.4844.51 Safari/537.36",1440,900,1298,705,"main",992182,22,4,14,11,"HE","Extreme","Harder than Reference","F","k","safeDeck","riskyDeck",0,28,14,"right",1,0,60,"absent","riskyDeck",1276,1686,1,0
"1w43d9e7kn",1471.5,672.796384451018,13384,"04/04/2022@14:34:39","Mozilla/5.0 (Macintosh; Intel Mac OS X 10_15_7) AppleWebKit/537.36 (KHTML, like Gecko) Chrome/99.0.4844.51 Safari/537.36",1440,900,1298,705,"main",992182,22,5,14,11,"HE","Extreme","Harder than Reference","F","k","safeDeck","riskyDeck",0,28,14,"right",1,1,60,"present","riskyDeck",1276,1554,1,0
"1w43d9e7kn",1471.5,672.796384451018,13384,"04/04/2022@14:34:39","Mozilla/5.0 (Macintosh; Intel Mac OS X 10_15_7) AppleWebKit/537.36 (KHTML, like Gecko) Chrome/99.0.4844.51 Safari/537.36",1440,900,1298,705,"main",992182,22,6,14,11,"HE","Extreme","Harder than Reference","F","k","safeDeck","riskyDeck",0,28,14,"right",1,0,60,"absent","riskyDeck",1276,1820,1,0
"1w43d9e7kn",1471.5,672.796384451018,13384,"04/04/2022@14:34:39","Mozilla/5.0 (Macintosh; Intel Mac OS X 10_15_7) AppleWebKit/537.36 (KHTML, like Gecko) Chrome/99.0.4844.51 Safari/537.36",1440,900,1298,705,"main",992182,22,7,14,11,"HE","Extreme","Harder than Reference","F","k","safeDeck","riskyDeck",0,28,14,"right",1,1,60,"present","riskyDeck",1276,2384,1,0
"1w43d9e7kn",1471.5,672.796384451018,13384,"04/04/2022@14:34:39","Mozilla/5.0 (Macintosh; Intel Mac OS X 10_15_7) AppleWebKit/537.36 (KHTML, like Gecko) Chrome/99.0.4844.51 Safari/537.36",1440,900,1298,705,"main",992182,22,8,14,11,"HE","Extreme","Harder than Reference","F","k","safeDeck","riskyDeck",0,28,14,"right",1,0,60,"absent","riskyDeck",1276,1522,1,0
"1w43d9e7kn",1471.5,672.796384451018,13384,"04/04/2022@14:34:39","Mozilla/5.0 (Macintosh; Intel Mac OS X 10_15_7) AppleWebKit/537.36 (KHTML, like Gecko) Chrome/99.0.4844.51 Safari/537.36",1440,900,1298,705,"main",992182,22,9,14,11,"HE","Extreme","Harder than Reference","F","j","safeDeck","riskyDeck",0,28,14,"right",1,0,60,"present","riskyDeck",1276,1878,1,0
"1w43d9e7kn",1471.5,672.796384451018,13384,"04/04/2022@14:34:39","Mozilla/5.0 (Macintosh; Intel Mac OS X 10_15_7) AppleWebKit/537.36 (KHTML, like Gecko) Chrome/99.0.4844.51 Safari/537.36",1440,900,1298,705,"main",992182,23,1,14,11,"EM","Moderate","Easier than Reference","F","k","safeDeck","riskyDeck",-28,0,-14,"right",1,0,32,"absent","riskyDeck",1568,3089,1,0
"1w43d9e7kn",1471.5,672.796384451018,13384,"04/04/2022@14:34:39","Mozilla/5.0 (Macintosh; Intel Mac OS X 10_15_7) AppleWebKit/537.36 (KHTML, like Gecko) Chrome/99.0.4844.51 Safari/537.36",1440,900,1298,705,"main",992182,23,2,14,11,"EM","Moderate","Easier than Reference","F","k","safeDeck","riskyDeck",-28,0,-14,"right",1,0,32,"absent","riskyDeck",1568,1588,1,0
"1w43d9e7kn",1471.5,672.796384451018,13384,"04/04/2022@14:34:39","Mozilla/5.0 (Macintosh; Intel Mac OS X 10_15_7) AppleWebKit/537.36 (KHTML, like Gecko) Chrome/99.0.4844.51 Safari/537.36",1440,900,1298,705,"main",992182,23,3,15,11,"EM","Moderate","Easier than Reference","F","j","safeDeck","riskyDeck",-28,0,-14,"right",1,0,32,"present","riskyDeck",1568,1247,1,0
"1w43d9e7kn",1471.5,672.796384451018,13384,"04/04/2022@14:34:39","Mozilla/5.0 (Macintosh; Intel Mac OS X 10_15_7) AppleWebKit/537.36 (KHTML, like Gecko) Chrome/99.0.4844.51 Safari/537.36",1440,900,1298,705,"main",992182,23,4,15,11,"EM","Moderate","Easier than Reference","F","k","safeDeck","riskyDeck",-28,0,-14,"right",1,0,32,"absent","riskyDeck",1568,1901,1,0
"1w43d9e7kn",1471.5,672.796384451018,13384,"04/04/2022@14:34:39","Mozilla/5.0 (Macintosh; Intel Mac OS X 10_15_7) AppleWebKit/537.36 (KHTML, like Gecko) Chrome/99.0.4844.51 Safari/537.36",1440,900,1298,705,"main",992182,23,5,15,11,"EM","Moderate","Easier than Reference","F","k","safeDeck","riskyDeck",-28,0,-14,"right",1,0,32,"absent","riskyDeck",1568,1380,1,0
"1w43d9e7kn",1471.5,672.796384451018,13384,"04/04/2022@14:34:39","Mozilla/5.0 (Macintosh; Intel Mac OS X 10_15_7) AppleWebKit/537.36 (KHTML, like Gecko) Chrome/99.0.4844.51 Safari/537.36",1440,900,1298,705,"main",992182,23,6,15,11,"EM","Moderate","Easier than Reference","F","k","safeDeck","riskyDeck",-28,0,-14,"right",1,0,32,"absent","riskyDeck",1568,1652,1,0
"1w43d9e7kn",1471.5,672.796384451018,13384,"04/04/2022@14:34:39","Mozilla/5.0 (Macintosh; Intel Mac OS X 10_15_7) AppleWebKit/537.36 (KHTML, like Gecko) Chrome/99.0.4844.51 Safari/537.36",1440,900,1298,705,"main",992182,23,7,15,11,"EM","Moderate","Easier than Reference","F","j","safeDeck","riskyDeck",-28,0,-14,"right",1,0,32,"present","riskyDeck",1568,1210,1,0
"1w43d9e7kn",1471.5,672.796384451018,13384,"04/04/2022@14:34:39","Mozilla/5.0 (Macintosh; Intel Mac OS X 10_15_7) AppleWebKit/537.36 (KHTML, like Gecko) Chrome/99.0.4844.51 Safari/537.36",1440,900,1298,705,"main",992182,23,8,15,11,"EM","Moderate","Easier than Reference","F","k","safeDeck","riskyDeck",-28,0,-14,"right",1,1,32,"present","riskyDeck",1568,1139,1,0
"1w43d9e7kn",1471.5,672.796384451018,13384,"04/04/2022@14:34:39","Mozilla/5.0 (Macintosh; Intel Mac OS X 10_15_7) AppleWebKit/537.36 (KHTML, like Gecko) Chrome/99.0.4844.51 Safari/537.36",1440,900,1298,705,"main",992182,23,9,15,11,"EM","Moderate","Easier than Reference","F","k","safeDeck","riskyDeck",-28,0,-14,"right",1,0,32,"absent","riskyDeck",1568,1818,1,0
"1w43d9e7kn",1471.5,672.796384451018,13384,"04/04/2022@14:34:39","Mozilla/5.0 (Macintosh; Intel Mac OS X 10_15_7) AppleWebKit/537.36 (KHTML, like Gecko) Chrome/99.0.4844.51 Safari/537.36",1440,900,1298,705,"main",992182,24,1,15,12,"HM","Moderate","Harder than Reference","D","k","riskyDeck","safeDeck",14,0,7,"left",1,0,46,"absent","riskyDeck",1292,1884,-1,0
"1w43d9e7kn",1471.5,672.796384451018,13384,"04/04/2022@14:34:39","Mozilla/5.0 (Macintosh; Intel Mac OS X 10_15_7) AppleWebKit/537.36 (KHTML, like Gecko) Chrome/99.0.4844.51 Safari/537.36",1440,900,1298,705,"main",992182,24,2,15,12,"HM","Moderate","Harder than Reference","D","k","riskyDeck","safeDeck",14,0,7,"left",1,0,46,"absent","riskyDeck",1292,1352,-1,0
"1w43d9e7kn",1471.5,672.796384451018,13384,"04/04/2022@14:34:39","Mozilla/5.0 (Macintosh; Intel Mac OS X 10_15_7) AppleWebKit/537.36 (KHTML, like Gecko) Chrome/99.0.4844.51 Safari/537.36",1440,900,1298,705,"main",992182,24,3,15,12,"HM","Moderate","Harder than Reference","D","j","riskyDeck","safeDeck",14,0,7,"left",1,0,46,"present","riskyDeck",1292,1718,-1,0
"1w43d9e7kn",1471.5,672.796384451018,13384,"04/04/2022@14:34:39","Mozilla/5.0 (Macintosh; Intel Mac OS X 10_15_7) AppleWebKit/537.36 (KHTML, like Gecko) Chrome/99.0.4844.51 Safari/537.36",1440,900,1298,705,"main",992182,24,4,15,12,"HM","Moderate","Harder than Reference","D","k","riskyDeck","safeDeck",14,0,7,"left",1,1,46,"present","riskyDeck",1292,1241,-1,0
"1w43d9e7kn",1471.5,672.796384451018,13384,"04/04/2022@14:34:39","Mozilla/5.0 (Macintosh; Intel Mac OS X 10_15_7) AppleWebKit/537.36 (KHTML, like Gecko) Chrome/99.0.4844.51 Safari/537.36",1440,900,1298,705,"main",992182,24,5,15,12,"HM","Moderate","Harder than Reference","D","k","riskyDeck","safeDeck",14,0,7,"left",1,0,46,"absent","riskyDeck",1292,2665,-1,0
"1w43d9e7kn",1471.5,672.796384451018,13384,"04/04/2022@14:34:39","Mozilla/5.0 (Macintosh; Intel Mac OS X 10_15_7) AppleWebKit/537.36 (KHTML, like Gecko) Chrome/99.0.4844.51 Safari/537.36",1440,900,1298,705,"main",992182,24,6,15,12,"HM","Moderate","Harder than Reference","D","j","riskyDeck","safeDeck",14,0,7,"left",1,0,46,"present","riskyDeck",1292,991,-1,0
"1w43d9e7kn",1471.5,672.796384451018,13384,"04/04/2022@14:34:39","Mozilla/5.0 (Macintosh; Intel Mac OS X 10_15_7) AppleWebKit/537.36 (KHTML, like Gecko) Chrome/99.0.4844.51 Safari/537.36",1440,900,1298,705,"main",992182,24,7,15,12,"HM","Moderate","Harder than Reference","D","k","riskyDeck","safeDeck",14,0,7,"left",1,0,46,"absent","riskyDeck",1292,2098,-1,0
"1w43d9e7kn",1471.5,672.796384451018,13384,"04/04/2022@14:34:39","Mozilla/5.0 (Macintosh; Intel Mac OS X 10_15_7) AppleWebKit/537.36 (KHTML, like Gecko) Chrome/99.0.4844.51 Safari/537.36",1440,900,1298,705,"main",992182,24,8,15,12,"HM","Moderate","Harder than Reference","D","k","riskyDeck","safeDeck",14,0,7,"left",1,0,46,"absent","riskyDeck",1292,2555,-1,0
"1w43d9e7kn",1471.5,672.796384451018,13384,"04/04/2022@14:34:39","Mozilla/5.0 (Macintosh; Intel Mac OS X 10_15_7) AppleWebKit/537.36 (KHTML, like Gecko) Chrome/99.0.4844.51 Safari/537.36",1440,900,1298,705,"main",992182,24,9,15,12,"HM","Moderate","Harder than Reference","D","k","riskyDeck","safeDeck",14,0,7,"left",1,0,46,"absent","riskyDeck",1292,1854,-1,0
"1w43d9e7kn",1471.5,672.796384451018,13384,"04/04/2022@14:34:39","Mozilla/5.0 (Macintosh; Intel Mac OS X 10_15_7) AppleWebKit/537.36 (KHTML, like Gecko) Chrome/99.0.4844.51 Safari/537.36",1440,900,1298,705,"main",992182,25,1,15,12,"EE","Extreme","Easier than Reference","D","k","riskyDeck","safeDeck",-14,0,-7,"left",1,0,18,"absent","riskyDeck",1932,1642,-1,0
"1w43d9e7kn",1471.5,672.796384451018,13384,"04/04/2022@14:34:39","Mozilla/5.0 (Macintosh; Intel Mac OS X 10_15_7) AppleWebKit/537.36 (KHTML, like Gecko) Chrome/99.0.4844.51 Safari/537.36",1440,900,1298,705,"main",992182,25,2,15,12,"EE","Extreme","Easier than Reference","D","j","riskyDeck","safeDeck",-14,0,-7,"left",1,0,18,"present","riskyDeck",1932,784,-1,0
"1w43d9e7kn",1471.5,672.796384451018,13384,"04/04/2022@14:34:39","Mozilla/5.0 (Macintosh; Intel Mac OS X 10_15_7) AppleWebKit/537.36 (KHTML, like Gecko) Chrome/99.0.4844.51 Safari/537.36",1440,900,1298,705,"main",992182,25,3,15,12,"EE","Extreme","Easier than Reference","D","k","riskyDeck","safeDeck",-14,0,-7,"left",1,0,18,"absent","riskyDeck",1932,1055,-1,0
"1w43d9e7kn",1471.5,672.796384451018,13384,"04/04/2022@14:34:39","Mozilla/5.0 (Macintosh; Intel Mac OS X 10_15_7) AppleWebKit/537.36 (KHTML, like Gecko) Chrome/99.0.4844.51 Safari/537.36",1440,900,1298,705,"main",992182,25,4,15,12,"EE","Extreme","Easier than Reference","D","k","riskyDeck","safeDeck",-14,0,-7,"left",1,0,18,"absent","riskyDeck",1932,1305,-1,0
"1w43d9e7kn",1471.5,672.796384451018,13384,"04/04/2022@14:34:39","Mozilla/5.0 (Macintosh; Intel Mac OS X 10_15_7) AppleWebKit/537.36 (KHTML, like Gecko) Chrome/99.0.4844.51 Safari/537.36",1440,900,1298,705,"main",992182,25,5,15,12,"EE","Extreme","Easier than Reference","D","k","riskyDeck","safeDeck",-14,0,-7,"left",1,0,18,"absent","riskyDeck",1932,1485,-1,0
"1w43d9e7kn",1471.5,672.796384451018,13384,"04/04/2022@14:34:39","Mozilla/5.0 (Macintosh; Intel Mac OS X 10_15_7) AppleWebKit/537.36 (KHTML, like Gecko) Chrome/99.0.4844.51 Safari/537.36",1440,900,1298,705,"main",992182,25,6,15,12,"EE","Extreme","Easier than Reference","D","j","riskyDeck","safeDeck",-14,0,-7,"left",1,0,18,"present","riskyDeck",1932,1187,-1,0
"1w43d9e7kn",1471.5,672.796384451018,13384,"04/04/2022@14:34:39","Mozilla/5.0 (Macintosh; Intel Mac OS X 10_15_7) AppleWebKit/537.36 (KHTML, like Gecko) Chrome/99.0.4844.51 Safari/537.36",1440,900,1298,705,"main",992182,25,7,15,12,"EE","Extreme","Easier than Reference","D","k","riskyDeck","safeDeck",-14,0,-7,"left",1,0,18,"absent","riskyDeck",1932,1552,-1,0
"1w43d9e7kn",1471.5,672.796384451018,13384,"04/04/2022@14:34:39","Mozilla/5.0 (Macintosh; Intel Mac OS X 10_15_7) AppleWebKit/537.36 (KHTML, like Gecko) Chrome/99.0.4844.51 Safari/537.36",1440,900,1298,705,"main",992182,25,8,15,12,"EE","Extreme","Easier than Reference","D","j","riskyDeck","safeDeck",-14,0,-7,"left",1,0,18,"present","riskyDeck",1932,919,-1,0
"1w43d9e7kn",1471.5,672.796384451018,13384,"04/04/2022@14:34:39","Mozilla/5.0 (Macintosh; Intel Mac OS X 10_15_7) AppleWebKit/537.36 (KHTML, like Gecko) Chrome/99.0.4844.51 Safari/537.36",1440,900,1298,705,"main",992182,25,9,15,12,"EE","Extreme","Easier than Reference","D","k","riskyDeck","safeDeck",-14,0,-7,"left",1,0,18,"absent","riskyDeck",1932,1107,-1,0
"1w43d9e7kn",1471.5,672.796384451018,13384,"04/04/2022@14:34:39","Mozilla/5.0 (Macintosh; Intel Mac OS X 10_15_7) AppleWebKit/537.36 (KHTML, like Gecko) Chrome/99.0.4844.51 Safari/537.36",1440,900,1298,705,"main",992182,26,1,15,12,"EM","Moderate","Easier than Reference","F","j","safeDeck","riskyDeck",-28,0,-14,"right",1,0,4,"present","riskyDeck",844,733,1,0
"1w43d9e7kn",1471.5,672.796384451018,13384,"04/04/2022@14:34:39","Mozilla/5.0 (Macintosh; Intel Mac OS X 10_15_7) AppleWebKit/537.36 (KHTML, like Gecko) Chrome/99.0.4844.51 Safari/537.36",1440,900,1298,705,"main",992182,26,2,15,12,"EM","Moderate","Easier than Reference","F","j","safeDeck","riskyDeck",-28,0,-14,"right",1,0,4,"present","riskyDeck",844,637,1,0
"1w43d9e7kn",1471.5,672.796384451018,13384,"04/04/2022@14:34:39","Mozilla/5.0 (Macintosh; Intel Mac OS X 10_15_7) AppleWebKit/537.36 (KHTML, like Gecko) Chrome/99.0.4844.51 Safari/537.36",1440,900,1298,705,"main",992182,26,3,16,12,"EM","Moderate","Easier than Reference","F","k","safeDeck","riskyDeck",-28,0,-14,"right",1,0,4,"absent","riskyDeck",844,630,1,0
"1w43d9e7kn",1471.5,672.796384451018,13384,"04/04/2022@14:34:39","Mozilla/5.0 (Macintosh; Intel Mac OS X 10_15_7) AppleWebKit/537.36 (KHTML, like Gecko) Chrome/99.0.4844.51 Safari/537.36",1440,900,1298,705,"main",992182,26,4,16,12,"EM","Moderate","Easier than Reference","F","k","safeDeck","riskyDeck",-28,0,-14,"right",1,0,4,"absent","riskyDeck",844,756,1,0
"1w43d9e7kn",1471.5,672.796384451018,13384,"04/04/2022@14:34:39","Mozilla/5.0 (Macintosh; Intel Mac OS X 10_15_7) AppleWebKit/537.36 (KHTML, like Gecko) Chrome/99.0.4844.51 Safari/537.36",1440,900,1298,705,"main",992182,26,5,16,12,"EM","Moderate","Easier than Reference","F","j","safeDeck","riskyDeck",-28,0,-14,"right",1,0,4,"present","riskyDeck",844,602,1,0
"1w43d9e7kn",1471.5,672.796384451018,13384,"04/04/2022@14:34:39","Mozilla/5.0 (Macintosh; Intel Mac OS X 10_15_7) AppleWebKit/537.36 (KHTML, like Gecko) Chrome/99.0.4844.51 Safari/537.36",1440,900,1298,705,"main",992182,26,6,16,12,"EM","Moderate","Easier than Reference","F","k","safeDeck","riskyDeck",-28,0,-14,"right",1,0,4,"absent","riskyDeck",844,795,1,0
"1w43d9e7kn",1471.5,672.796384451018,13384,"04/04/2022@14:34:39","Mozilla/5.0 (Macintosh; Intel Mac OS X 10_15_7) AppleWebKit/537.36 (KHTML, like Gecko) Chrome/99.0.4844.51 Safari/537.36",1440,900,1298,705,"main",992182,26,7,16,12,"EM","Moderate","Easier than Reference","F","j","safeDeck","riskyDeck",-28,0,-14,"right",1,0,4,"present","riskyDeck",844,718,1,0
"1w43d9e7kn",1471.5,672.796384451018,13384,"04/04/2022@14:34:39","Mozilla/5.0 (Macintosh; Intel Mac OS X 10_15_7) AppleWebKit/537.36 (KHTML, like Gecko) Chrome/99.0.4844.51 Safari/537.36",1440,900,1298,705,"main",992182,26,8,16,12,"EM","Moderate","Easier than Reference","F","k","safeDeck","riskyDeck",-28,0,-14,"right",1,0,4,"absent","riskyDeck",844,583,1,0
"1w43d9e7kn",1471.5,672.796384451018,13384,"04/04/2022@14:34:39","Mozilla/5.0 (Macintosh; Intel Mac OS X 10_15_7) AppleWebKit/537.36 (KHTML, like Gecko) Chrome/99.0.4844.51 Safari/537.36",1440,900,1298,705,"main",992182,26,9,16,12,"EM","Moderate","Easier than Reference","F","k","safeDeck","riskyDeck",-28,0,-14,"right",1,0,4,"absent","riskyDeck",844,849,1,0
"1w43d9e7kn",1471.5,672.796384451018,13384,"04/04/2022@14:34:39","Mozilla/5.0 (Macintosh; Intel Mac OS X 10_15_7) AppleWebKit/537.36 (KHTML, like Gecko) Chrome/99.0.4844.51 Safari/537.36",1440,900,1298,705,"main",992182,27,1,16,12,"HE","Extreme","Harder than Reference","D","k","riskyDeck","safeDeck",0,28,14,"left",1,0,60,"absent","riskyDeck",1309,2041,-1,0
"1w43d9e7kn",1471.5,672.796384451018,13384,"04/04/2022@14:34:39","Mozilla/5.0 (Macintosh; Intel Mac OS X 10_15_7) AppleWebKit/537.36 (KHTML, like Gecko) Chrome/99.0.4844.51 Safari/537.36",1440,900,1298,705,"main",992182,27,2,16,12,"HE","Extreme","Harder than Reference","D","j","riskyDeck","safeDeck",0,28,14,"left",1,0,60,"present","riskyDeck",1309,1444,-1,0
"1w43d9e7kn",1471.5,672.796384451018,13384,"04/04/2022@14:34:39","Mozilla/5.0 (Macintosh; Intel Mac OS X 10_15_7) AppleWebKit/537.36 (KHTML, like Gecko) Chrome/99.0.4844.51 Safari/537.36",1440,900,1298,705,"main",992182,27,3,16,12,"HE","Extreme","Harder than Reference","D","k","riskyDeck","safeDeck",0,28,14,"left",1,0,60,"absent","riskyDeck",1309,2802,-1,0
"1w43d9e7kn",1471.5,672.796384451018,13384,"04/04/2022@14:34:39","Mozilla/5.0 (Macintosh; Intel Mac OS X 10_15_7) AppleWebKit/537.36 (KHTML, like Gecko) Chrome/99.0.4844.51 Safari/537.36",1440,900,1298,705,"main",992182,27,4,16,13,"HE","Extreme","Harder than Reference","D","k","riskyDeck","safeDeck",0,28,14,"left",1,0,60,"absent","riskyDeck",1309,1902,-1,0
"1w43d9e7kn",1471.5,672.796384451018,13384,"04/04/2022@14:34:39","Mozilla/5.0 (Macintosh; Intel Mac OS X 10_15_7) AppleWebKit/537.36 (KHTML, like Gecko) Chrome/99.0.4844.51 Safari/537.36",1440,900,1298,705,"main",992182,27,5,16,13,"HE","Extreme","Harder than Reference","D","j","riskyDeck","safeDeck",0,28,14,"left",1,0,60,"present","riskyDeck",1309,2110,-1,0
"1w43d9e7kn",1471.5,672.796384451018,13384,"04/04/2022@14:34:39","Mozilla/5.0 (Macintosh; Intel Mac OS X 10_15_7) AppleWebKit/537.36 (KHTML, like Gecko) Chrome/99.0.4844.51 Safari/537.36",1440,900,1298,705,"main",992182,27,6,16,13,"HE","Extreme","Harder than Reference","D","k","riskyDeck","safeDeck",0,28,14,"left",1,1,60,"present","riskyDeck",1309,2795,-1,0
"1w43d9e7kn",1471.5,672.796384451018,13384,"04/04/2022@14:34:39","Mozilla/5.0 (Macintosh; Intel Mac OS X 10_15_7) AppleWebKit/537.36 (KHTML, like Gecko) Chrome/99.0.4844.51 Safari/537.36",1440,900,1298,705,"main",992182,27,7,16,13,"HE","Extreme","Harder than Reference","D","k","riskyDeck","safeDeck",0,28,14,"left",1,1,60,"present","riskyDeck",1309,2105,-1,0
"1w43d9e7kn",1471.5,672.796384451018,13384,"04/04/2022@14:34:39","Mozilla/5.0 (Macintosh; Intel Mac OS X 10_15_7) AppleWebKit/537.36 (KHTML, like Gecko) Chrome/99.0.4844.51 Safari/537.36",1440,900,1298,705,"main",992182,27,8,16,13,"HE","Extreme","Harder than Reference","D","k","riskyDeck","safeDeck",0,28,14,"left",1,0,60,"absent","riskyDeck",1309,2116,-1,0
"1w43d9e7kn",1471.5,672.796384451018,13384,"04/04/2022@14:34:39","Mozilla/5.0 (Macintosh; Intel Mac OS X 10_15_7) AppleWebKit/537.36 (KHTML, like Gecko) Chrome/99.0.4844.51 Safari/537.36",1440,900,1298,705,"main",992182,27,9,16,13,"HE","Extreme","Harder than Reference","D","k","riskyDeck","safeDeck",0,28,14,"left",1,0,60,"absent","riskyDeck",1309,1704,-1,0
"1w43d9e7kn",1471.5,672.796384451018,13384,"04/04/2022@14:34:39","Mozilla/5.0 (Macintosh; Intel Mac OS X 10_15_7) AppleWebKit/537.36 (KHTML, like Gecko) Chrome/99.0.4844.51 Safari/537.36",1440,900,1298,705,"main",992182,28,1,16,13,"HM","Moderate","Harder than Reference","D","k","riskyDeck","safeDeck",0,14,7,"left",1,0,32,"absent","riskyDeck",1141,1506,-1,0
"1w43d9e7kn",1471.5,672.796384451018,13384,"04/04/2022@14:34:39","Mozilla/5.0 (Macintosh; Intel Mac OS X 10_15_7) AppleWebKit/537.36 (KHTML, like Gecko) Chrome/99.0.4844.51 Safari/537.36",1440,900,1298,705,"main",992182,28,2,16,13,"HM","Moderate","Harder than Reference","D","j","riskyDeck","safeDeck",0,14,7,"left",1,0,32,"present","riskyDeck",1141,1155,-1,0
"1w43d9e7kn",1471.5,672.796384451018,13384,"04/04/2022@14:34:39","Mozilla/5.0 (Macintosh; Intel Mac OS X 10_15_7) AppleWebKit/537.36 (KHTML, like Gecko) Chrome/99.0.4844.51 Safari/537.36",1440,900,1298,705,"main",992182,28,3,16,13,"HM","Moderate","Harder than Reference","D","k","riskyDeck","safeDeck",0,14,7,"left",1,0,32,"absent","riskyDeck",1141,1211,-1,0
"1w43d9e7kn",1471.5,672.796384451018,13384,"04/04/2022@14:34:39","Mozilla/5.0 (Macintosh; Intel Mac OS X 10_15_7) AppleWebKit/537.36 (KHTML, like Gecko) Chrome/99.0.4844.51 Safari/537.36",1440,900,1298,705,"main",992182,28,4,16,13,"HM","Moderate","Harder than Reference","D","k","riskyDeck","safeDeck",0,14,7,"left",1,0,32,"absent","riskyDeck",1141,1672,-1,0
"1w43d9e7kn",1471.5,672.796384451018,13384,"04/04/2022@14:34:39","Mozilla/5.0 (Macintosh; Intel Mac OS X 10_15_7) AppleWebKit/537.36 (KHTML, like Gecko) Chrome/99.0.4844.51 Safari/537.36",1440,900,1298,705,"main",992182,28,5,16,13,"HM","Moderate","Harder than Reference","D","k","riskyDeck","safeDeck",0,14,7,"left",1,0,32,"absent","riskyDeck",1141,2263,-1,0
"1w43d9e7kn",1471.5,672.796384451018,13384,"04/04/2022@14:34:39","Mozilla/5.0 (Macintosh; Intel Mac OS X 10_15_7) AppleWebKit/537.36 (KHTML, like Gecko) Chrome/99.0.4844.51 Safari/537.36",1440,900,1298,705,"main",992182,28,6,16,13,"HM","Moderate","Harder than Reference","D","k","riskyDeck","safeDeck",0,14,7,"left",1,0,32,"absent","riskyDeck",1141,1920,-1,0
"1w43d9e7kn",1471.5,672.796384451018,13384,"04/04/2022@14:34:39","Mozilla/5.0 (Macintosh; Intel Mac OS X 10_15_7) AppleWebKit/537.36 (KHTML, like Gecko) Chrome/99.0.4844.51 Safari/537.36",1440,900,1298,705,"main",992182,28,7,16,13,"HM","Moderate","Harder than Reference","D","k","riskyDeck","safeDeck",0,14,7,"left",1,0,32,"absent","riskyDeck",1141,2567,-1,0
"1w43d9e7kn",1471.5,672.796384451018,13384,"04/04/2022@14:34:39","Mozilla/5.0 (Macintosh; Intel Mac OS X 10_15_7) AppleWebKit/537.36 (KHTML, like Gecko) Chrome/99.0.4844.51 Safari/537.36",1440,900,1298,705,"main",992182,28,8,16,13,"HM","Moderate","Harder than Reference","D","j","riskyDeck","safeDeck",0,14,7,"left",1,0,32,"present","riskyDeck",1141,805,-1,0
"1w43d9e7kn",1471.5,672.796384451018,13384,"04/04/2022@14:34:39","Mozilla/5.0 (Macintosh; Intel Mac OS X 10_15_7) AppleWebKit/537.36 (KHTML, like Gecko) Chrome/99.0.4844.51 Safari/537.36",1440,900,1298,705,"main",992182,28,9,16,13,"HM","Moderate","Harder than Reference","D","k","riskyDeck","safeDeck",0,14,7,"left",1,0,32,"absent","riskyDeck",1141,1860,-1,0
"1w43d9e7kn",1471.5,672.796384451018,13384,"04/04/2022@14:34:39","Mozilla/5.0 (Macintosh; Intel Mac OS X 10_15_7) AppleWebKit/537.36 (KHTML, like Gecko) Chrome/99.0.4844.51 Safari/537.36",1440,900,1298,705,"main",992182,29,1,16,13,"HM","Moderate","Harder than Reference","D","j","riskyDeck","safeDeck",14,0,7,"left",1,0,32,"present","riskyDeck",915,1382,-1,0
"1w43d9e7kn",1471.5,672.796384451018,13384,"04/04/2022@14:34:39","Mozilla/5.0 (Macintosh; Intel Mac OS X 10_15_7) AppleWebKit/537.36 (KHTML, like Gecko) Chrome/99.0.4844.51 Safari/537.36",1440,900,1298,705,"main",992182,29,2,17,13,"HM","Moderate","Harder than Reference","D","j","riskyDeck","safeDeck",14,0,7,"left",1,0,32,"present","riskyDeck",915,1110,-1,0
"1w43d9e7kn",1471.5,672.796384451018,13384,"04/04/2022@14:34:39","Mozilla/5.0 (Macintosh; Intel Mac OS X 10_15_7) AppleWebKit/537.36 (KHTML, like Gecko) Chrome/99.0.4844.51 Safari/537.36",1440,900,1298,705,"main",992182,29,3,17,13,"HM","Moderate","Harder than Reference","D","j","riskyDeck","safeDeck",14,0,7,"left",1,0,32,"present","riskyDeck",915,969,-1,0
"1w43d9e7kn",1471.5,672.796384451018,13384,"04/04/2022@14:34:39","Mozilla/5.0 (Macintosh; Intel Mac OS X 10_15_7) AppleWebKit/537.36 (KHTML, like Gecko) Chrome/99.0.4844.51 Safari/537.36",1440,900,1298,705,"main",992182,29,4,17,13,"HM","Moderate","Harder than Reference","D","k","riskyDeck","safeDeck",14,0,7,"left",1,0,32,"absent","riskyDeck",915,1329,-1,0
"1w43d9e7kn",1471.5,672.796384451018,13384,"04/04/2022@14:34:39","Mozilla/5.0 (Macintosh; Intel Mac OS X 10_15_7) AppleWebKit/537.36 (KHTML, like Gecko) Chrome/99.0.4844.51 Safari/537.36",1440,900,1298,705,"main",992182,29,5,17,13,"HM","Moderate","Harder than Reference","D","k","riskyDeck","safeDeck",14,0,7,"left",1,1,32,"present","riskyDeck",915,1372,-1,0
"1w43d9e7kn",1471.5,672.796384451018,13384,"04/04/2022@14:34:39","Mozilla/5.0 (Macintosh; Intel Mac OS X 10_15_7) AppleWebKit/537.36 (KHTML, like Gecko) Chrome/99.0.4844.51 Safari/537.36",1440,900,1298,705,"main",992182,29,6,17,13,"HM","Moderate","Harder than Reference","D","k","riskyDeck","safeDeck",14,0,7,"left",1,0,32,"absent","riskyDeck",915,1674,-1,0
"1w43d9e7kn",1471.5,672.796384451018,13384,"04/04/2022@14:34:39","Mozilla/5.0 (Macintosh; Intel Mac OS X 10_15_7) AppleWebKit/537.36 (KHTML, like Gecko) Chrome/99.0.4844.51 Safari/537.36",1440,900,1298,705,"main",992182,29,7,17,13,"HM","Moderate","Harder than Reference","D","k","riskyDeck","safeDeck",14,0,7,"left",1,1,32,"present","riskyDeck",915,1333,-1,0
"1w43d9e7kn",1471.5,672.796384451018,13384,"04/04/2022@14:34:39","Mozilla/5.0 (Macintosh; Intel Mac OS X 10_15_7) AppleWebKit/537.36 (KHTML, like Gecko) Chrome/99.0.4844.51 Safari/537.36",1440,900,1298,705,"main",992182,29,8,17,13,"HM","Moderate","Harder than Reference","D","j","riskyDeck","safeDeck",14,0,7,"left",1,0,32,"present","riskyDeck",915,1272,-1,0
"1w43d9e7kn",1471.5,672.796384451018,13384,"04/04/2022@14:34:39","Mozilla/5.0 (Macintosh; Intel Mac OS X 10_15_7) AppleWebKit/537.36 (KHTML, like Gecko) Chrome/99.0.4844.51 Safari/537.36",1440,900,1298,705,"main",992182,29,9,17,13,"HM","Moderate","Harder than Reference","D","k","riskyDeck","safeDeck",14,0,7,"left",1,0,32,"absent","riskyDeck",915,1109,-1,0
"1w43d9e7kn",1471.5,672.796384451018,13384,"04/04/2022@14:34:39","Mozilla/5.0 (Macintosh; Intel Mac OS X 10_15_7) AppleWebKit/537.36 (KHTML, like Gecko) Chrome/99.0.4844.51 Safari/537.36",1440,900,1298,705,"main",992182,30,1,17,14,"HE","Extreme","Harder than Reference","F","k","safeDeck","riskyDeck",28,0,14,"right",1,1,32,"present","riskyDeck",725,847,1,0
"1w43d9e7kn",1471.5,672.796384451018,13384,"04/04/2022@14:34:39","Mozilla/5.0 (Macintosh; Intel Mac OS X 10_15_7) AppleWebKit/537.36 (KHTML, like Gecko) Chrome/99.0.4844.51 Safari/537.36",1440,900,1298,705,"main",992182,30,2,17,14,"HE","Extreme","Harder than Reference","F","j","safeDeck","riskyDeck",28,0,14,"right",1,0,32,"present","riskyDeck",725,1238,1,0
"1w43d9e7kn",1471.5,672.796384451018,13384,"04/04/2022@14:34:39","Mozilla/5.0 (Macintosh; Intel Mac OS X 10_15_7) AppleWebKit/537.36 (KHTML, like Gecko) Chrome/99.0.4844.51 Safari/537.36",1440,900,1298,705,"main",992182,30,3,17,14,"HE","Extreme","Harder than Reference","F","k","safeDeck","riskyDeck",28,0,14,"right",1,0,32,"absent","riskyDeck",725,2687,1,0
"1w43d9e7kn",1471.5,672.796384451018,13384,"04/04/2022@14:34:39","Mozilla/5.0 (Macintosh; Intel Mac OS X 10_15_7) AppleWebKit/537.36 (KHTML, like Gecko) Chrome/99.0.4844.51 Safari/537.36",1440,900,1298,705,"main",992182,30,4,17,14,"HE","Extreme","Harder than Reference","F","j","safeDeck","riskyDeck",28,0,14,"right",1,0,32,"present","riskyDeck",725,937,1,0
"1w43d9e7kn",1471.5,672.796384451018,13384,"04/04/2022@14:34:39","Mozilla/5.0 (Macintosh; Intel Mac OS X 10_15_7) AppleWebKit/537.36 (KHTML, like Gecko) Chrome/99.0.4844.51 Safari/537.36",1440,900,1298,705,"main",992182,30,5,17,14,"HE","Extreme","Harder than Reference","F","k","safeDeck","riskyDeck",28,0,14,"right",1,0,32,"absent","riskyDeck",725,1140,1,0
"1w43d9e7kn",1471.5,672.796384451018,13384,"04/04/2022@14:34:39","Mozilla/5.0 (Macintosh; Intel Mac OS X 10_15_7) AppleWebKit/537.36 (KHTML, like Gecko) Chrome/99.0.4844.51 Safari/537.36",1440,900,1298,705,"main",992182,30,6,17,14,"HE","Extreme","Harder than Reference","F","k","safeDeck","riskyDeck",28,0,14,"right",1,0,32,"absent","riskyDeck",725,1657,1,0
"1w43d9e7kn",1471.5,672.796384451018,13384,"04/04/2022@14:34:39","Mozilla/5.0 (Macintosh; Intel Mac OS X 10_15_7) AppleWebKit/537.36 (KHTML, like Gecko) Chrome/99.0.4844.51 Safari/537.36",1440,900,1298,705,"main",992182,30,7,17,14,"HE","Extreme","Harder than Reference","F","k","safeDeck","riskyDeck",28,0,14,"right",1,0,32,"absent","riskyDeck",725,786,1,0
"1w43d9e7kn",1471.5,672.796384451018,13384,"04/04/2022@14:34:39","Mozilla/5.0 (Macintosh; Intel Mac OS X 10_15_7) AppleWebKit/537.36 (KHTML, like Gecko) Chrome/99.0.4844.51 Safari/537.36",1440,900,1298,705,"main",992182,30,8,17,14,"HE","Extreme","Harder than Reference","F","j","safeDeck","riskyDeck",28,0,14,"right",1,0,32,"present","riskyDeck",725,1544,1,0
"1w43d9e7kn",1471.5,672.796384451018,13384,"04/04/2022@14:34:39","Mozilla/5.0 (Macintosh; Intel Mac OS X 10_15_7) AppleWebKit/537.36 (KHTML, like Gecko) Chrome/99.0.4844.51 Safari/537.36",1440,900,1298,705,"main",992182,30,9,17,14,"HE","Extreme","Harder than Reference","F","k","safeDeck","riskyDeck",28,0,14,"right",1,0,32,"absent","riskyDeck",725,2719,1,0
"1w43d9e7kn",1471.5,672.796384451018,13384,"04/04/2022@14:34:39","Mozilla/5.0 (Macintosh; Intel Mac OS X 10_15_7) AppleWebKit/537.36 (KHTML, like Gecko) Chrome/99.0.4844.51 Safari/537.36",1440,900,1298,705,"main",992182,31,1,17,14,"EE","Extreme","Easier than Reference","F","k","safeDeck","riskyDeck",-14,0,-7,"right",1,0,18,"absent","riskyDeck",2123,1279,1,0
"1w43d9e7kn",1471.5,672.796384451018,13384,"04/04/2022@14:34:39","Mozilla/5.0 (Macintosh; Intel Mac OS X 10_15_7) AppleWebKit/537.36 (KHTML, like Gecko) Chrome/99.0.4844.51 Safari/537.36",1440,900,1298,705,"main",992182,31,2,17,14,"EE","Extreme","Easier than Reference","F","k","safeDeck","riskyDeck",-14,0,-7,"right",1,0,18,"absent","riskyDeck",2123,1584,1,0
"1w43d9e7kn",1471.5,672.796384451018,13384,"04/04/2022@14:34:39","Mozilla/5.0 (Macintosh; Intel Mac OS X 10_15_7) AppleWebKit/537.36 (KHTML, like Gecko) Chrome/99.0.4844.51 Safari/537.36",1440,900,1298,705,"main",992182,31,3,17,14,"EE","Extreme","Easier than Reference","F","k","safeDeck","riskyDeck",-14,0,-7,"right",1,0,18,"absent","riskyDeck",2123,915,1,0
"1w43d9e7kn",1471.5,672.796384451018,13384,"04/04/2022@14:34:39","Mozilla/5.0 (Macintosh; Intel Mac OS X 10_15_7) AppleWebKit/537.36 (KHTML, like Gecko) Chrome/99.0.4844.51 Safari/537.36",1440,900,1298,705,"main",992182,31,4,17,14,"EE","Extreme","Easier than Reference","F","k","safeDeck","riskyDeck",-14,0,-7,"right",1,0,18,"absent","riskyDeck",2123,848,1,0
"1w43d9e7kn",1471.5,672.796384451018,13384,"04/04/2022@14:34:39","Mozilla/5.0 (Macintosh; Intel Mac OS X 10_15_7) AppleWebKit/537.36 (KHTML, like Gecko) Chrome/99.0.4844.51 Safari/537.36",1440,900,1298,705,"main",992182,31,5,17,14,"EE","Extreme","Easier than Reference","F","k","safeDeck","riskyDeck",-14,0,-7,"right",1,0,18,"absent","riskyDeck",2123,889,1,0
"1w43d9e7kn",1471.5,672.796384451018,13384,"04/04/2022@14:34:39","Mozilla/5.0 (Macintosh; Intel Mac OS X 10_15_7) AppleWebKit/537.36 (KHTML, like Gecko) Chrome/99.0.4844.51 Safari/537.36",1440,900,1298,705,"main",992182,31,6,17,14,"EE","Extreme","Easier than Reference","F","j","safeDeck","riskyDeck",-14,0,-7,"right",1,0,18,"present","riskyDeck",2123,1374,1,0
"1w43d9e7kn",1471.5,672.796384451018,13384,"04/04/2022@14:34:39","Mozilla/5.0 (Macintosh; Intel Mac OS X 10_15_7) AppleWebKit/537.36 (KHTML, like Gecko) Chrome/99.0.4844.51 Safari/537.36",1440,900,1298,705,"main",992182,31,7,17,14,"EE","Extreme","Easier than Reference","F","k","safeDeck","riskyDeck",-14,0,-7,"right",1,0,18,"absent","riskyDeck",2123,1790,1,0
"1w43d9e7kn",1471.5,672.796384451018,13384,"04/04/2022@14:34:39","Mozilla/5.0 (Macintosh; Intel Mac OS X 10_15_7) AppleWebKit/537.36 (KHTML, like Gecko) Chrome/99.0.4844.51 Safari/537.36",1440,900,1298,705,"main",992182,31,8,17,14,"EE","Extreme","Easier than Reference","F","k","safeDeck","riskyDeck",-14,0,-7,"right",1,0,18,"absent","riskyDeck",2123,1229,1,0
"1w43d9e7kn",1471.5,672.796384451018,13384,"04/04/2022@14:34:39","Mozilla/5.0 (Macintosh; Intel Mac OS X 10_15_7) AppleWebKit/537.36 (KHTML, like Gecko) Chrome/99.0.4844.51 Safari/537.36",1440,900,1298,705,"main",992182,31,9,17,14,"EE","Extreme","Easier than Reference","F","j","safeDeck","riskyDeck",-14,0,-7,"right",1,0,18,"present","riskyDeck",2123,933,1,0
"1w43d9e7kn",1471.5,672.796384451018,13384,"04/04/2022@14:34:39","Mozilla/5.0 (Macintosh; Intel Mac OS X 10_15_7) AppleWebKit/537.36 (KHTML, like Gecko) Chrome/99.0.4844.51 Safari/537.36",1440,900,1298,705,"main",992182,32,1,17,14,"EM","Moderate","Easier than Reference","F","k","safeDeck","riskyDeck",-28,0,-14,"right",1,0,32,"absent","riskyDeck",620,1872,1,0
"1w43d9e7kn",1471.5,672.796384451018,13384,"04/04/2022@14:34:39","Mozilla/5.0 (Macintosh; Intel Mac OS X 10_15_7) AppleWebKit/537.36 (KHTML, like Gecko) Chrome/99.0.4844.51 Safari/537.36",1440,900,1298,705,"main",992182,32,2,18,14,"EM","Moderate","Easier than Reference","F","k","safeDeck","riskyDeck",-28,0,-14,"right",1,0,32,"absent","riskyDeck",620,1540,1,0
"1w43d9e7kn",1471.5,672.796384451018,13384,"04/04/2022@14:34:39","Mozilla/5.0 (Macintosh; Intel Mac OS X 10_15_7) AppleWebKit/537.36 (KHTML, like Gecko) Chrome/99.0.4844.51 Safari/537.36",1440,900,1298,705,"main",992182,32,3,18,14,"EM","Moderate","Easier than Reference","F","j","safeDeck","riskyDeck",-28,0,-14,"right",1,0,32,"present","riskyDeck",620,1135,1,0
"1w43d9e7kn",1471.5,672.796384451018,13384,"04/04/2022@14:34:39","Mozilla/5.0 (Macintosh; Intel Mac OS X 10_15_7) AppleWebKit/537.36 (KHTML, like Gecko) Chrome/99.0.4844.51 Safari/537.36",1440,900,1298,705,"main",992182,32,4,18,14,"EM","Moderate","Easier than Reference","F","k","safeDeck","riskyDeck",-28,0,-14,"right",1,0,32,"absent","riskyDeck",620,1489,1,0
"1w43d9e7kn",1471.5,672.796384451018,13384,"04/04/2022@14:34:39","Mozilla/5.0 (Macintosh; Intel Mac OS X 10_15_7) AppleWebKit/537.36 (KHTML, like Gecko) Chrome/99.0.4844.51 Safari/537.36",1440,900,1298,705,"main",992182,32,5,18,14,"EM","Moderate","Easier than Reference","F","j","safeDeck","riskyDeck",-28,0,-14,"right",1,0,32,"present","riskyDeck",620,932,1,0
"1w43d9e7kn",1471.5,672.796384451018,13384,"04/04/2022@14:34:39","Mozilla/5.0 (Macintosh; Intel Mac OS X 10_15_7) AppleWebKit/537.36 (KHTML, like Gecko) Chrome/99.0.4844.51 Safari/537.36",1440,900,1298,705,"main",992182,32,6,18,14,"EM","Moderate","Easier than Reference","F","j","safeDeck","riskyDeck",-28,0,-14,"right",1,0,32,"present","riskyDeck",620,1414,1,0
"1w43d9e7kn",1471.5,672.796384451018,13384,"04/04/2022@14:34:39","Mozilla/5.0 (Macintosh; Intel Mac OS X 10_15_7) AppleWebKit/537.36 (KHTML, like Gecko) Chrome/99.0.4844.51 Safari/537.36",1440,900,1298,705,"main",992182,32,7,18,14,"EM","Moderate","Easier than Reference","F","k","safeDeck","riskyDeck",-28,0,-14,"right",1,0,32,"absent","riskyDeck",620,1470,1,0
"1w43d9e7kn",1471.5,672.796384451018,13384,"04/04/2022@14:34:39","Mozilla/5.0 (Macintosh; Intel Mac OS X 10_15_7) AppleWebKit/537.36 (KHTML, like Gecko) Chrome/99.0.4844.51 Safari/537.36",1440,900,1298,705,"main",992182,32,8,18,14,"EM","Moderate","Easier than Reference","F","j","safeDeck","riskyDeck",-28,0,-14,"right",1,0,32,"present","riskyDeck",620,955,1,0
"1w43d9e7kn",1471.5,672.796384451018,13384,"04/04/2022@14:34:39","Mozilla/5.0 (Macintosh; Intel Mac OS X 10_15_7) AppleWebKit/537.36 (KHTML, like Gecko) Chrome/99.0.4844.51 Safari/537.36",1440,900,1298,705,"main",992182,32,9,18,14,"EM","Moderate","Easier than Reference","F","j","safeDeck","riskyDeck",-28,0,-14,"right",1,0,32,"present","riskyDeck",620,848,1,0
"1w43d9e7kn",1471.5,672.796384451018,13384,"04/04/2022@14:34:39","Mozilla/5.0 (Macintosh; Intel Mac OS X 10_15_7) AppleWebKit/537.36 (KHTML, like Gecko) Chrome/99.0.4844.51 Safari/537.36",1440,900,1298,705,"main",992182,33,1,18,14,"HE","Extreme","Harder than Reference","F","j","safeDeck","riskyDeck",0,28,14,"right",1,0,32,"present","riskyDeck",1105,1091,1,0
"1w43d9e7kn",1471.5,672.796384451018,13384,"04/04/2022@14:34:39","Mozilla/5.0 (Macintosh; Intel Mac OS X 10_15_7) AppleWebKit/537.36 (KHTML, like Gecko) Chrome/99.0.4844.51 Safari/537.36",1440,900,1298,705,"main",992182,33,2,18,15,"HE","Extreme","Harder than Reference","F","k","safeDeck","riskyDeck",0,28,14,"right",1,0,32,"absent","riskyDeck",1105,1173,1,0
"1w43d9e7kn",1471.5,672.796384451018,13384,"04/04/2022@14:34:39","Mozilla/5.0 (Macintosh; Intel Mac OS X 10_15_7) AppleWebKit/537.36 (KHTML, like Gecko) Chrome/99.0.4844.51 Safari/537.36",1440,900,1298,705,"main",992182,33,3,18,15,"HE","Extreme","Harder than Reference","F","k","safeDeck","riskyDeck",0,28,14,"right",1,0,32,"absent","riskyDeck",1105,1630,1,0
"1w43d9e7kn",1471.5,672.796384451018,13384,"04/04/2022@14:34:39","Mozilla/5.0 (Macintosh; Intel Mac OS X 10_15_7) AppleWebKit/537.36 (KHTML, like Gecko) Chrome/99.0.4844.51 Safari/537.36",1440,900,1298,705,"main",992182,33,4,18,15,"HE","Extreme","Harder than Reference","F","j","safeDeck","riskyDeck",0,28,14,"right",1,0,32,"present","riskyDeck",1105,1541,1,0
"1w43d9e7kn",1471.5,672.796384451018,13384,"04/04/2022@14:34:39","Mozilla/5.0 (Macintosh; Intel Mac OS X 10_15_7) AppleWebKit/537.36 (KHTML, like Gecko) Chrome/99.0.4844.51 Safari/537.36",1440,900,1298,705,"main",992182,33,5,18,15,"HE","Extreme","Harder than Reference","F","j","safeDeck","riskyDeck",0,28,14,"right",1,0,32,"present","riskyDeck",1105,904,1,0
"1w43d9e7kn",1471.5,672.796384451018,13384,"04/04/2022@14:34:39","Mozilla/5.0 (Macintosh; Intel Mac OS X 10_15_7) AppleWebKit/537.36 (KHTML, like Gecko) Chrome/99.0.4844.51 Safari/537.36",1440,900,1298,705,"main",992182,33,6,18,15,"HE","Extreme","Harder than Reference","F","k","safeDeck","riskyDeck",0,28,14,"right",1,0,32,"absent","riskyDeck",1105,1302,1,0
"1w43d9e7kn",1471.5,672.796384451018,13384,"04/04/2022@14:34:39","Mozilla/5.0 (Macintosh; Intel Mac OS X 10_15_7) AppleWebKit/537.36 (KHTML, like Gecko) Chrome/99.0.4844.51 Safari/537.36",1440,900,1298,705,"main",992182,33,7,18,15,"HE","Extreme","Harder than Reference","F","k","safeDeck","riskyDeck",0,28,14,"right",1,0,32,"absent","riskyDeck",1105,1348,1,0
"1w43d9e7kn",1471.5,672.796384451018,13384,"04/04/2022@14:34:39","Mozilla/5.0 (Macintosh; Intel Mac OS X 10_15_7) AppleWebKit/537.36 (KHTML, like Gecko) Chrome/99.0.4844.51 Safari/537.36",1440,900,1298,705,"main",992182,33,8,18,15,"HE","Extreme","Harder than Reference","F","k","safeDeck","riskyDeck",0,28,14,"right",1,0,32,"absent","riskyDeck",1105,1533,1,0
"1w43d9e7kn",1471.5,672.796384451018,13384,"04/04/2022@14:34:39","Mozilla/5.0 (Macintosh; Intel Mac OS X 10_15_7) AppleWebKit/537.36 (KHTML, like Gecko) Chrome/99.0.4844.51 Safari/537.36",1440,900,1298,705,"main",992182,33,9,18,15,"HE","Extreme","Harder than Reference","F","j","safeDeck","riskyDeck",0,28,14,"right",1,0,32,"present","riskyDeck",1105,1131,1,0
"1w43d9e7kn",1471.5,672.796384451018,13384,"04/04/2022@14:34:39","Mozilla/5.0 (Macintosh; Intel Mac OS X 10_15_7) AppleWebKit/537.36 (KHTML, like Gecko) Chrome/99.0.4844.51 Safari/537.36",1440,900,1298,705,"main",992182,34,1,18,15,"HM","Moderate","Harder than Reference","F","j","safeDeck","riskyDeck",0,14,7,"right",1,0,32,"present","riskyDeck",1348,930,1,0
"1w43d9e7kn",1471.5,672.796384451018,13384,"04/04/2022@14:34:39","Mozilla/5.0 (Macintosh; Intel Mac OS X 10_15_7) AppleWebKit/537.36 (KHTML, like Gecko) Chrome/99.0.4844.51 Safari/537.36",1440,900,1298,705,"main",992182,34,2,18,15,"HM","Moderate","Harder than Reference","F","j","safeDeck","riskyDeck",0,14,7,"right",1,0,32,"present","riskyDeck",1348,762,1,0
"1w43d9e7kn",1471.5,672.796384451018,13384,"04/04/2022@14:34:39","Mozilla/5.0 (Macintosh; Intel Mac OS X 10_15_7) AppleWebKit/537.36 (KHTML, like Gecko) Chrome/99.0.4844.51 Safari/537.36",1440,900,1298,705,"main",992182,34,3,18,15,"HM","Moderate","Harder than Reference","F","k","safeDeck","riskyDeck",0,14,7,"right",1,0,32,"absent","riskyDeck",1348,968,1,0
"1w43d9e7kn",1471.5,672.796384451018,13384,"04/04/2022@14:34:39","Mozilla/5.0 (Macintosh; Intel Mac OS X 10_15_7) AppleWebKit/537.36 (KHTML, like Gecko) Chrome/99.0.4844.51 Safari/537.36",1440,900,1298,705,"main",992182,34,4,18,15,"HM","Moderate","Harder than Reference","F","k","safeDeck","riskyDeck",0,14,7,"right",1,0,32,"absent","riskyDeck",1348,1049,1,0
"1w43d9e7kn",1471.5,672.796384451018,13384,"04/04/2022@14:34:39","Mozilla/5.0 (Macintosh; Intel Mac OS X 10_15_7) AppleWebKit/537.36 (KHTML, like Gecko) Chrome/99.0.4844.51 Safari/537.36",1440,900,1298,705,"main",992182,34,5,18,15,"HM","Moderate","Harder than Reference","F","j","safeDeck","riskyDeck",0,14,7,"right",1,0,32,"present","riskyDeck",1348,1098,1,0
"1w43d9e7kn",1471.5,672.796384451018,13384,"04/04/2022@14:34:39","Mozilla/5.0 (Macintosh; Intel Mac OS X 10_15_7) AppleWebKit/537.36 (KHTML, like Gecko) Chrome/99.0.4844.51 Safari/537.36",1440,900,1298,705,"main",992182,34,6,18,15,"HM","Moderate","Harder than Reference","F","j","safeDeck","riskyDeck",0,14,7,"right",1,0,32,"present","riskyDeck",1348,1009,1,0
"1w43d9e7kn",1471.5,672.796384451018,13384,"04/04/2022@14:34:39","Mozilla/5.0 (Macintosh; Intel Mac OS X 10_15_7) AppleWebKit/537.36 (KHTML, like Gecko) Chrome/99.0.4844.51 Safari/537.36",1440,900,1298,705,"main",992182,34,7,18,15,"HM","Moderate","Harder than Reference","F","k","safeDeck","riskyDeck",0,14,7,"right",1,0,32,"absent","riskyDeck",1348,1251,1,0
