subject,sona_id,curTime,userAgent,screenWidth,screenHeight,windowWidth,windowHeight,phase,phase_run_time,choice_trial,search_trial,exp_runtime_mins,phase_runtime_mins,condition,magnitude,direction,choice_response_key,search_response_key,left_deck_id,right_deck_id,risky_deck_outcome_top,risky_deck_outcome_bottom,safe_deck_outcome,selected_deck_location,selectedRiskyDeck,error,n_stimuli,present_or_absent,chosenDeckId,choice_rt,search_rt
tmg28q4kgys,13577,01/04/2022@18:23:50,"Mozilla/5.0 (Macintosh; Intel Mac OS X 10_15_7) AppleWebKit/537.36 (KHTML, like Gecko) Chrome/99.0.4844.83 Safari/537.36",1440,900,1440,702,main,975528,1,1,3,2,EM,Moderate,Easier than Reference,D,j,safeDeck,riskyDeck,0,-28,-14,left,0,0,18,present,safeDeck,2048,1231
tmg28q4kgys,13577,01/04/2022@18:23:50,"Mozilla/5.0 (Macintosh; Intel Mac OS X 10_15_7) AppleWebKit/537.36 (KHTML, like Gecko) Chrome/99.0.4844.83 Safari/537.36",1440,900,1440,702,main,975528,1,2,3,2,EM,Moderate,Easier than Reference,D,j,safeDeck,riskyDeck,0,-28,-14,left,0,1,18,absent,safeDeck,2048,452
tmg28q4kgys,13577,01/04/2022@18:23:50,"Mozilla/5.0 (Macintosh; Intel Mac OS X 10_15_7) AppleWebKit/537.36 (KHTML, like Gecko) Chrome/99.0.4844.83 Safari/537.36",1440,900,1440,702,main,975528,1,3,3,2,EM,Moderate,Easier than Reference,D,k,safeDeck,riskyDeck,0,-28,-14,left,0,1,18,present,safeDeck,2048,466
tmg28q4kgys,13577,01/04/2022@18:23:50,"Mozilla/5.0 (Macintosh; Intel Mac OS X 10_15_7) AppleWebKit/537.36 (KHTML, like Gecko) Chrome/99.0.4844.83 Safari/537.36",1440,900,1440,702,main,975528,1,4,3,2,EM,Moderate,Easier than Reference,D,j,safeDeck,riskyDeck,0,-28,-14,left,0,0,18,present,safeDeck,2048,288
tmg28q4kgys,13577,01/04/2022@18:23:50,"Mozilla/5.0 (Macintosh; Intel Mac OS X 10_15_7) AppleWebKit/537.36 (KHTML, like Gecko) Chrome/99.0.4844.83 Safari/537.36",1440,900,1440,702,main,975528,1,5,3,2,EM,Moderate,Easier than Reference,D,j,safeDeck,riskyDeck,0,-28,-14,left,0,0,18,present,safeDeck,2048,386
tmg28q4kgys,13577,01/04/2022@18:23:50,"Mozilla/5.0 (Macintosh; Intel Mac OS X 10_15_7) AppleWebKit/537.36 (KHTML, like Gecko) Chrome/99.0.4844.83 Safari/537.36",1440,900,1440,702,main,975528,1,6,3,2,EM,Moderate,Easier than Reference,D,j,safeDeck,riskyDeck,0,-28,-14,left,0,0,18,present,safeDeck,2048,315
tmg28q4kgys,13577,01/04/2022@18:23:50,"Mozilla/5.0 (Macintosh; Intel Mac OS X 10_15_7) AppleWebKit/537.36 (KHTML, like Gecko) Chrome/99.0.4844.83 Safari/537.36",1440,900,1440,702,main,975528,1,7,3,2,EM,Moderate,Easier than Reference,D,j,safeDeck,riskyDeck,0,-28,-14,left,0,1,18,absent,safeDeck,2048,375
tmg28q4kgys,13577,01/04/2022@18:23:50,"Mozilla/5.0 (Macintosh; Intel Mac OS X 10_15_7) AppleWebKit/537.36 (KHTML, like Gecko) Chrome/99.0.4844.83 Safari/537.36",1440,900,1440,702,main,975528,1,8,3,2,EM,Moderate,Easier than Reference,D,j,safeDeck,riskyDeck,0,-28,-14,left,0,0,18,present,safeDeck,2048,243
tmg28q4kgys,13577,01/04/2022@18:23:50,"Mozilla/5.0 (Macintosh; Intel Mac OS X 10_15_7) AppleWebKit/537.36 (KHTML, like Gecko) Chrome/99.0.4844.83 Safari/537.36",1440,900,1440,702,main,975528,1,9,3,2,EM,Moderate,Easier than Reference,D,j,safeDeck,riskyDeck,0,-28,-14,left,0,1,18,absent,safeDeck,2048,303
tmg28q4kgys,13577,01/04/2022@18:23:50,"Mozilla/5.0 (Macintosh; Intel Mac OS X 10_15_7) AppleWebKit/537.36 (KHTML, like Gecko) Chrome/99.0.4844.83 Safari/537.36",1440,900,1440,702,main,975528,2,1,3,3,HM,Moderate,Harder than Reference,F,k,safeDeck,riskyDeck,14,0,7,right,1,0,46,absent,riskyDeck,1273,872
tmg28q4kgys,13577,01/04/2022@18:23:50,"Mozilla/5.0 (Macintosh; Intel Mac OS X 10_15_7) AppleWebKit/537.36 (KHTML, like Gecko) Chrome/99.0.4844.83 Safari/537.36",1440,900,1440,702,main,975528,2,2,3,3,HM,Moderate,Harder than Reference,F,j,safeDeck,riskyDeck,14,0,7,right,1,0,46,present,riskyDeck,1273,373
tmg28q4kgys,13577,01/04/2022@18:23:50,"Mozilla/5.0 (Macintosh; Intel Mac OS X 10_15_7) AppleWebKit/537.36 (KHTML, like Gecko) Chrome/99.0.4844.83 Safari/537.36",1440,900,1440,702,main,975528,2,3,3,3,HM,Moderate,Harder than Reference,F,j,safeDeck,riskyDeck,14,0,7,right,1,1,46,absent,riskyDeck,1273,374
tmg28q4kgys,13577,01/04/2022@18:23:50,"Mozilla/5.0 (Macintosh; Intel Mac OS X 10_15_7) AppleWebKit/537.36 (KHTML, like Gecko) Chrome/99.0.4844.83 Safari/537.36",1440,900,1440,702,main,975528,2,4,3,3,HM,Moderate,Harder than Reference,F,k,safeDeck,riskyDeck,14,0,7,right,1,1,46,present,riskyDeck,1273,331
tmg28q4kgys,13577,01/04/2022@18:23:50,"Mozilla/5.0 (Macintosh; Intel Mac OS X 10_15_7) AppleWebKit/537.36 (KHTML, like Gecko) Chrome/99.0.4844.83 Safari/537.36",1440,900,1440,702,main,975528,2,5,3,3,HM,Moderate,Harder than Reference,F,j,safeDeck,riskyDeck,14,0,7,right,1,0,46,present,riskyDeck,1273,58
tmg28q4kgys,13577,01/04/2022@18:23:50,"Mozilla/5.0 (Macintosh; Intel Mac OS X 10_15_7) AppleWebKit/537.36 (KHTML, like Gecko) Chrome/99.0.4844.83 Safari/537.36",1440,900,1440,702,main,975528,2,6,4,3,HM,Moderate,Harder than Reference,F,j,safeDeck,riskyDeck,14,0,7,right,1,0,46,present,riskyDeck,1273,458
tmg28q4kgys,13577,01/04/2022@18:23:50,"Mozilla/5.0 (Macintosh; Intel Mac OS X 10_15_7) AppleWebKit/537.36 (KHTML, like Gecko) Chrome/99.0.4844.83 Safari/537.36",1440,900,1440,702,main,975528,2,7,4,3,HM,Moderate,Harder than Reference,F,j,safeDeck,riskyDeck,14,0,7,right,1,0,46,present,riskyDeck,1273,313
tmg28q4kgys,13577,01/04/2022@18:23:50,"Mozilla/5.0 (Macintosh; Intel Mac OS X 10_15_7) AppleWebKit/537.36 (KHTML, like Gecko) Chrome/99.0.4844.83 Safari/537.36",1440,900,1440,702,main,975528,2,8,4,3,HM,Moderate,Harder than Reference,F,j,safeDeck,riskyDeck,14,0,7,right,1,0,46,present,riskyDeck,1273,347
tmg28q4kgys,13577,01/04/2022@18:23:50,"Mozilla/5.0 (Macintosh; Intel Mac OS X 10_15_7) AppleWebKit/537.36 (KHTML, like Gecko) Chrome/99.0.4844.83 Safari/537.36",1440,900,1440,702,main,975528,2,9,4,3,HM,Moderate,Harder than Reference,F,j,safeDeck,riskyDeck,14,0,7,right,1,0,46,present,riskyDeck,1273,304
tmg28q4kgys,13577,01/04/2022@18:23:50,"Mozilla/5.0 (Macintosh; Intel Mac OS X 10_15_7) AppleWebKit/537.36 (KHTML, like Gecko) Chrome/99.0.4844.83 Safari/537.36",1440,900,1440,702,main,975528,3,1,4,3,EE,Extreme,Easier than Reference,D,k,riskyDeck,safeDeck,0,-14,-7,left,1,1,32,present,riskyDeck,1043,1215
tmg28q4kgys,13577,01/04/2022@18:23:50,"Mozilla/5.0 (Macintosh; Intel Mac OS X 10_15_7) AppleWebKit/537.36 (KHTML, like Gecko) Chrome/99.0.4844.83 Safari/537.36",1440,900,1440,702,main,975528,3,2,4,3,EE,Extreme,Easier than Reference,D,j,riskyDeck,safeDeck,0,-14,-7,left,1,1,32,absent,riskyDeck,1043,329
tmg28q4kgys,13577,01/04/2022@18:23:50,"Mozilla/5.0 (Macintosh; Intel Mac OS X 10_15_7) AppleWebKit/537.36 (KHTML, like Gecko) Chrome/99.0.4844.83 Safari/537.36",1440,900,1440,702,main,975528,3,3,4,3,EE,Extreme,Easier than Reference,D,k,riskyDeck,safeDeck,0,-14,-7,left,1,1,32,present,riskyDeck,1043,207
tmg28q4kgys,13577,01/04/2022@18:23:50,"Mozilla/5.0 (Macintosh; Intel Mac OS X 10_15_7) AppleWebKit/537.36 (KHTML, like Gecko) Chrome/99.0.4844.83 Safari/537.36",1440,900,1440,702,main,975528,3,4,4,3,EE,Extreme,Easier than Reference,D,j,riskyDeck,safeDeck,0,-14,-7,left,1,0,32,present,riskyDeck,1043,305
tmg28q4kgys,13577,01/04/2022@18:23:50,"Mozilla/5.0 (Macintosh; Intel Mac OS X 10_15_7) AppleWebKit/537.36 (KHTML, like Gecko) Chrome/99.0.4844.83 Safari/537.36",1440,900,1440,702,main,975528,3,5,4,3,EE,Extreme,Easier than Reference,D,j,riskyDeck,safeDeck,0,-14,-7,left,1,1,32,absent,riskyDeck,1043,353
tmg28q4kgys,13577,01/04/2022@18:23:50,"Mozilla/5.0 (Macintosh; Intel Mac OS X 10_15_7) AppleWebKit/537.36 (KHTML, like Gecko) Chrome/99.0.4844.83 Safari/537.36",1440,900,1440,702,main,975528,3,6,4,3,EE,Extreme,Easier than Reference,D,j,riskyDeck,safeDeck,0,-14,-7,left,1,0,32,present,riskyDeck,1043,278
tmg28q4kgys,13577,01/04/2022@18:23:50,"Mozilla/5.0 (Macintosh; Intel Mac OS X 10_15_7) AppleWebKit/537.36 (KHTML, like Gecko) Chrome/99.0.4844.83 Safari/537.36",1440,900,1440,702,main,975528,3,7,4,3,EE,Extreme,Easier than Reference,D,k,riskyDeck,safeDeck,0,-14,-7,left,1,0,32,absent,riskyDeck,1043,380
tmg28q4kgys,13577,01/04/2022@18:23:50,"Mozilla/5.0 (Macintosh; Intel Mac OS X 10_15_7) AppleWebKit/537.36 (KHTML, like Gecko) Chrome/99.0.4844.83 Safari/537.36",1440,900,1440,702,main,975528,3,8,4,3,EE,Extreme,Easier than Reference,D,k,riskyDeck,safeDeck,0,-14,-7,left,1,1,32,present,riskyDeck,1043,609
tmg28q4kgys,13577,01/04/2022@18:23:50,"Mozilla/5.0 (Macintosh; Intel Mac OS X 10_15_7) AppleWebKit/537.36 (KHTML, like Gecko) Chrome/99.0.4844.83 Safari/537.36",1440,900,1440,702,main,975528,3,9,4,3,EE,Extreme,Easier than Reference,D,j,riskyDeck,safeDeck,0,-14,-7,left,1,0,32,present,riskyDeck,1043,308
tmg28q4kgys,13577,01/04/2022@18:23:50,"Mozilla/5.0 (Macintosh; Intel Mac OS X 10_15_7) AppleWebKit/537.36 (KHTML, like Gecko) Chrome/99.0.4844.83 Safari/537.36",1440,900,1440,702,main,975528,4,1,4,3,HE,Extreme,Harder than Reference,F,k,safeDeck,riskyDeck,28,0,14,right,1,1,60,present,riskyDeck,978,446
tmg28q4kgys,13577,01/04/2022@18:23:50,"Mozilla/5.0 (Macintosh; Intel Mac OS X 10_15_7) AppleWebKit/537.36 (KHTML, like Gecko) Chrome/99.0.4844.83 Safari/537.36",1440,900,1440,702,main,975528,4,2,4,3,HE,Extreme,Harder than Reference,F,j,safeDeck,riskyDeck,28,0,14,right,1,1,60,absent,riskyDeck,978,181
tmg28q4kgys,13577,01/04/2022@18:23:50,"Mozilla/5.0 (Macintosh; Intel Mac OS X 10_15_7) AppleWebKit/537.36 (KHTML, like Gecko) Chrome/99.0.4844.83 Safari/537.36",1440,900,1440,702,main,975528,4,3,4,3,HE,Extreme,Harder than Reference,F,k,safeDeck,riskyDeck,28,0,14,right,1,1,60,present,riskyDeck,978,325
tmg28q4kgys,13577,01/04/2022@18:23:50,"Mozilla/5.0 (Macintosh; Intel Mac OS X 10_15_7) AppleWebKit/537.36 (KHTML, like Gecko) Chrome/99.0.4844.83 Safari/537.36",1440,900,1440,702,main,975528,4,4,4,3,HE,Extreme,Harder than Reference,F,j,safeDeck,riskyDeck,28,0,14,right,1,1,60,absent,riskyDeck,978,262
tmg28q4kgys,13577,01/04/2022@18:23:50,"Mozilla/5.0 (Macintosh; Intel Mac OS X 10_15_7) AppleWebKit/537.36 (KHTML, like Gecko) Chrome/99.0.4844.83 Safari/537.36",1440,900,1440,702,main,975528,4,5,4,3,HE,Extreme,Harder than Reference,F,j,safeDeck,riskyDeck,28,0,14,right,1,1,60,absent,riskyDeck,978,249
tmg28q4kgys,13577,01/04/2022@18:23:50,"Mozilla/5.0 (Macintosh; Intel Mac OS X 10_15_7) AppleWebKit/537.36 (KHTML, like Gecko) Chrome/99.0.4844.83 Safari/537.36",1440,900,1440,702,main,975528,4,6,4,3,HE,Extreme,Harder than Reference,F,k,safeDeck,riskyDeck,28,0,14,right,1,1,60,present,riskyDeck,978,282
tmg28q4kgys,13577,01/04/2022@18:23:50,"Mozilla/5.0 (Macintosh; Intel Mac OS X 10_15_7) AppleWebKit/537.36 (KHTML, like Gecko) Chrome/99.0.4844.83 Safari/537.36",1440,900,1440,702,main,975528,4,7,4,3,HE,Extreme,Harder than Reference,F,k,safeDeck,riskyDeck,28,0,14,right,1,1,60,present,riskyDeck,978,146
tmg28q4kgys,13577,01/04/2022@18:23:50,"Mozilla/5.0 (Macintosh; Intel Mac OS X 10_15_7) AppleWebKit/537.36 (KHTML, like Gecko) Chrome/99.0.4844.83 Safari/537.36",1440,900,1440,702,main,975528,4,8,4,3,HE,Extreme,Harder than Reference,F,j,safeDeck,riskyDeck,28,0,14,right,1,1,60,absent,riskyDeck,978,215
tmg28q4kgys,13577,01/04/2022@18:23:50,"Mozilla/5.0 (Macintosh; Intel Mac OS X 10_15_7) AppleWebKit/537.36 (KHTML, like Gecko) Chrome/99.0.4844.83 Safari/537.36",1440,900,1440,702,main,975528,4,9,4,3,HE,Extreme,Harder than Reference,F,j,safeDeck,riskyDeck,28,0,14,right,1,1,60,absent,riskyDeck,978,136
tmg28q4kgys,13577,01/04/2022@18:23:50,"Mozilla/5.0 (Macintosh; Intel Mac OS X 10_15_7) AppleWebKit/537.36 (KHTML, like Gecko) Chrome/99.0.4844.83 Safari/537.36",1440,900,1440,702,main,975528,5,1,4,4,EE,Extreme,Easier than Reference,D,k,safeDeck,riskyDeck,-14,0,-7,left,0,1,25,present,safeDeck,1702,460
tmg28q4kgys,13577,01/04/2022@18:23:50,"Mozilla/5.0 (Macintosh; Intel Mac OS X 10_15_7) AppleWebKit/537.36 (KHTML, like Gecko) Chrome/99.0.4844.83 Safari/537.36",1440,900,1440,702,main,975528,5,2,4,4,EE,Extreme,Easier than Reference,D,j,safeDeck,riskyDeck,-14,0,-7,left,0,1,25,absent,safeDeck,1702,311
tmg28q4kgys,13577,01/04/2022@18:23:50,"Mozilla/5.0 (Macintosh; Intel Mac OS X 10_15_7) AppleWebKit/537.36 (KHTML, like Gecko) Chrome/99.0.4844.83 Safari/537.36",1440,900,1440,702,main,975528,5,3,4,4,EE,Extreme,Easier than Reference,D,k,safeDeck,riskyDeck,-14,0,-7,left,0,1,25,present,safeDeck,1702,168
tmg28q4kgys,13577,01/04/2022@18:23:50,"Mozilla/5.0 (Macintosh; Intel Mac OS X 10_15_7) AppleWebKit/537.36 (KHTML, like Gecko) Chrome/99.0.4844.83 Safari/537.36",1440,900,1440,702,main,975528,5,4,4,4,EE,Extreme,Easier than Reference,D,j,safeDeck,riskyDeck,-14,0,-7,left,0,1,25,absent,safeDeck,1702,171
tmg28q4kgys,13577,01/04/2022@18:23:50,"Mozilla/5.0 (Macintosh; Intel Mac OS X 10_15_7) AppleWebKit/537.36 (KHTML, like Gecko) Chrome/99.0.4844.83 Safari/537.36",1440,900,1440,702,main,975528,5,5,5,4,EE,Extreme,Easier than Reference,D,k,safeDeck,riskyDeck,-14,0,-7,left,0,1,25,present,safeDeck,1702,154
tmg28q4kgys,13577,01/04/2022@18:23:50,"Mozilla/5.0 (Macintosh; Intel Mac OS X 10_15_7) AppleWebKit/537.36 (KHTML, like Gecko) Chrome/99.0.4844.83 Safari/537.36",1440,900,1440,702,main,975528,5,6,5,4,EE,Extreme,Easier than Reference,D,j,safeDeck,riskyDeck,-14,0,-7,left,0,1,25,absent,safeDeck,1702,409
tmg28q4kgys,13577,01/04/2022@18:23:50,"Mozilla/5.0 (Macintosh; Intel Mac OS X 10_15_7) AppleWebKit/537.36 (KHTML, like Gecko) Chrome/99.0.4844.83 Safari/537.36",1440,900,1440,702,main,975528,5,7,5,4,EE,Extreme,Easier than Reference,D,j,safeDeck,riskyDeck,-14,0,-7,left,0,1,25,absent,safeDeck,1702,315
tmg28q4kgys,13577,01/04/2022@18:23:50,"Mozilla/5.0 (Macintosh; Intel Mac OS X 10_15_7) AppleWebKit/537.36 (KHTML, like Gecko) Chrome/99.0.4844.83 Safari/537.36",1440,900,1440,702,main,975528,5,8,5,4,EE,Extreme,Easier than Reference,D,j,safeDeck,riskyDeck,-14,0,-7,left,0,1,25,absent,safeDeck,1702,74
tmg28q4kgys,13577,01/04/2022@18:23:50,"Mozilla/5.0 (Macintosh; Intel Mac OS X 10_15_7) AppleWebKit/537.36 (KHTML, like Gecko) Chrome/99.0.4844.83 Safari/537.36",1440,900,1440,702,main,975528,5,9,5,4,EE,Extreme,Easier than Reference,D,k,safeDeck,riskyDeck,-14,0,-7,left,0,1,25,present,safeDeck,1702,158
tmg28q4kgys,13577,01/04/2022@18:23:50,"Mozilla/5.0 (Macintosh; Intel Mac OS X 10_15_7) AppleWebKit/537.36 (KHTML, like Gecko) Chrome/99.0.4844.83 Safari/537.36",1440,900,1440,702,main,975528,6,1,5,4,EM,Moderate,Easier than Reference,D,k,riskyDeck,safeDeck,0,-28,-14,left,1,0,4,absent,riskyDeck,1908,379
tmg28q4kgys,13577,01/04/2022@18:23:50,"Mozilla/5.0 (Macintosh; Intel Mac OS X 10_15_7) AppleWebKit/537.36 (KHTML, like Gecko) Chrome/99.0.4844.83 Safari/537.36",1440,900,1440,702,main,975528,6,2,5,4,EM,Moderate,Easier than Reference,D,k,riskyDeck,safeDeck,0,-28,-14,left,1,0,4,absent,riskyDeck,1908,325
tmg28q4kgys,13577,01/04/2022@18:23:50,"Mozilla/5.0 (Macintosh; Intel Mac OS X 10_15_7) AppleWebKit/537.36 (KHTML, like Gecko) Chrome/99.0.4844.83 Safari/537.36",1440,900,1440,702,main,975528,6,3,5,4,EM,Moderate,Easier than Reference,D,k,riskyDeck,safeDeck,0,-28,-14,left,1,1,4,present,riskyDeck,1908,307
tmg28q4kgys,13577,01/04/2022@18:23:50,"Mozilla/5.0 (Macintosh; Intel Mac OS X 10_15_7) AppleWebKit/537.36 (KHTML, like Gecko) Chrome/99.0.4844.83 Safari/537.36",1440,900,1440,702,main,975528,6,4,5,4,EM,Moderate,Easier than Reference,D,k,riskyDeck,safeDeck,0,-28,-14,left,1,1,4,present,riskyDeck,1908,156
tmg28q4kgys,13577,01/04/2022@18:23:50,"Mozilla/5.0 (Macintosh; Intel Mac OS X 10_15_7) AppleWebKit/537.36 (KHTML, like Gecko) Chrome/99.0.4844.83 Safari/537.36",1440,900,1440,702,main,975528,6,5,5,4,EM,Moderate,Easier than Reference,D,j,riskyDeck,safeDeck,0,-28,-14,left,1,1,4,absent,riskyDeck,1908,277
tmg28q4kgys,13577,01/04/2022@18:23:50,"Mozilla/5.0 (Macintosh; Intel Mac OS X 10_15_7) AppleWebKit/537.36 (KHTML, like Gecko) Chrome/99.0.4844.83 Safari/537.36",1440,900,1440,702,main,975528,6,6,5,4,EM,Moderate,Easier than Reference,D,k,riskyDeck,safeDeck,0,-28,-14,left,1,0,4,absent,riskyDeck,1908,264
tmg28q4kgys,13577,01/04/2022@18:23:50,"Mozilla/5.0 (Macintosh; Intel Mac OS X 10_15_7) AppleWebKit/537.36 (KHTML, like Gecko) Chrome/99.0.4844.83 Safari/537.36",1440,900,1440,702,main,975528,6,7,5,4,EM,Moderate,Easier than Reference,D,k,riskyDeck,safeDeck,0,-28,-14,left,1,1,4,present,riskyDeck,1908,359
tmg28q4kgys,13577,01/04/2022@18:23:50,"Mozilla/5.0 (Macintosh; Intel Mac OS X 10_15_7) AppleWebKit/537.36 (KHTML, like Gecko) Chrome/99.0.4844.83 Safari/537.36",1440,900,1440,702,main,975528,6,8,5,4,EM,Moderate,Easier than Reference,D,j,riskyDeck,safeDeck,0,-28,-14,left,1,0,4,present,riskyDeck,1908,241
tmg28q4kgys,13577,01/04/2022@18:23:50,"Mozilla/5.0 (Macintosh; Intel Mac OS X 10_15_7) AppleWebKit/537.36 (KHTML, like Gecko) Chrome/99.0.4844.83 Safari/537.36",1440,900,1440,702,main,975528,6,9,5,4,EM,Moderate,Easier than Reference,D,j,riskyDeck,safeDeck,0,-28,-14,left,1,0,4,present,riskyDeck,1908,298
tmg28q4kgys,13577,01/04/2022@18:23:50,"Mozilla/5.0 (Macintosh; Intel Mac OS X 10_15_7) AppleWebKit/537.36 (KHTML, like Gecko) Chrome/99.0.4844.83 Safari/537.36",1440,900,1440,702,main,975528,7,1,5,4,HM,Moderate,Harder than Reference,D,k,safeDeck,riskyDeck,0,14,7,left,0,0,39,absent,safeDeck,2281,484
tmg28q4kgys,13577,01/04/2022@18:23:50,"Mozilla/5.0 (Macintosh; Intel Mac OS X 10_15_7) AppleWebKit/537.36 (KHTML, like Gecko) Chrome/99.0.4844.83 Safari/537.36",1440,900,1440,702,main,975528,7,2,5,4,HM,Moderate,Harder than Reference,D,k,safeDeck,riskyDeck,0,14,7,left,0,1,39,present,safeDeck,2281,318
tmg28q4kgys,13577,01/04/2022@18:23:50,"Mozilla/5.0 (Macintosh; Intel Mac OS X 10_15_7) AppleWebKit/537.36 (KHTML, like Gecko) Chrome/99.0.4844.83 Safari/537.36",1440,900,1440,702,main,975528,7,3,5,4,HM,Moderate,Harder than Reference,D,j,safeDeck,riskyDeck,0,14,7,left,0,1,39,absent,safeDeck,2281,304
tmg28q4kgys,13577,01/04/2022@18:23:50,"Mozilla/5.0 (Macintosh; Intel Mac OS X 10_15_7) AppleWebKit/537.36 (KHTML, like Gecko) Chrome/99.0.4844.83 Safari/537.36",1440,900,1440,702,main,975528,7,4,5,4,HM,Moderate,Harder than Reference,D,j,safeDeck,riskyDeck,0,14,7,left,0,1,39,absent,safeDeck,2281,311
tmg28q4kgys,13577,01/04/2022@18:23:50,"Mozilla/5.0 (Macintosh; Intel Mac OS X 10_15_7) AppleWebKit/537.36 (KHTML, like Gecko) Chrome/99.0.4844.83 Safari/537.36",1440,900,1440,702,main,975528,7,5,5,4,HM,Moderate,Harder than Reference,D,k,safeDeck,riskyDeck,0,14,7,left,0,0,39,absent,safeDeck,2281,315
tmg28q4kgys,13577,01/04/2022@18:23:50,"Mozilla/5.0 (Macintosh; Intel Mac OS X 10_15_7) AppleWebKit/537.36 (KHTML, like Gecko) Chrome/99.0.4844.83 Safari/537.36",1440,900,1440,702,main,975528,7,6,5,4,HM,Moderate,Harder than Reference,D,k,safeDeck,riskyDeck,0,14,7,left,0,1,39,present,safeDeck,2281,355
tmg28q4kgys,13577,01/04/2022@18:23:50,"Mozilla/5.0 (Macintosh; Intel Mac OS X 10_15_7) AppleWebKit/537.36 (KHTML, like Gecko) Chrome/99.0.4844.83 Safari/537.36",1440,900,1440,702,main,975528,7,7,5,4,HM,Moderate,Harder than Reference,D,j,safeDeck,riskyDeck,0,14,7,left,0,0,39,present,safeDeck,2281,280
tmg28q4kgys,13577,01/04/2022@18:23:50,"Mozilla/5.0 (Macintosh; Intel Mac OS X 10_15_7) AppleWebKit/537.36 (KHTML, like Gecko) Chrome/99.0.4844.83 Safari/537.36",1440,900,1440,702,main,975528,7,8,5,4,HM,Moderate,Harder than Reference,D,j,safeDeck,riskyDeck,0,14,7,left,0,1,39,absent,safeDeck,2281,348
tmg28q4kgys,13577,01/04/2022@18:23:50,"Mozilla/5.0 (Macintosh; Intel Mac OS X 10_15_7) AppleWebKit/537.36 (KHTML, like Gecko) Chrome/99.0.4844.83 Safari/537.36",1440,900,1440,702,main,975528,7,9,5,5,HM,Moderate,Harder than Reference,D,k,safeDeck,riskyDeck,0,14,7,left,0,0,39,absent,safeDeck,2281,324
tmg28q4kgys,13577,01/04/2022@18:23:50,"Mozilla/5.0 (Macintosh; Intel Mac OS X 10_15_7) AppleWebKit/537.36 (KHTML, like Gecko) Chrome/99.0.4844.83 Safari/537.36",1440,900,1440,702,main,975528,8,1,5,5,HE,Extreme,Harder than Reference,D,k,riskyDeck,safeDeck,0,28,14,left,1,1,32,present,riskyDeck,1458,820
tmg28q4kgys,13577,01/04/2022@18:23:50,"Mozilla/5.0 (Macintosh; Intel Mac OS X 10_15_7) AppleWebKit/537.36 (KHTML, like Gecko) Chrome/99.0.4844.83 Safari/537.36",1440,900,1440,702,main,975528,8,2,5,5,HE,Extreme,Harder than Reference,D,j,riskyDeck,safeDeck,0,28,14,left,1,0,32,present,riskyDeck,1458,355
tmg28q4kgys,13577,01/04/2022@18:23:50,"Mozilla/5.0 (Macintosh; Intel Mac OS X 10_15_7) AppleWebKit/537.36 (KHTML, like Gecko) Chrome/99.0.4844.83 Safari/537.36",1440,900,1440,702,main,975528,8,3,5,5,HE,Extreme,Harder than Reference,D,j,riskyDeck,safeDeck,0,28,14,left,1,1,32,absent,riskyDeck,1458,258
tmg28q4kgys,13577,01/04/2022@18:23:50,"Mozilla/5.0 (Macintosh; Intel Mac OS X 10_15_7) AppleWebKit/537.36 (KHTML, like Gecko) Chrome/99.0.4844.83 Safari/537.36",1440,900,1440,702,main,975528,8,4,6,5,HE,Extreme,Harder than Reference,D,k,riskyDeck,safeDeck,0,28,14,left,1,0,32,absent,riskyDeck,1458,31991
tmg28q4kgys,13577,01/04/2022@18:23:50,"Mozilla/5.0 (Macintosh; Intel Mac OS X 10_15_7) AppleWebKit/537.36 (KHTML, like Gecko) Chrome/99.0.4844.83 Safari/537.36",1440,900,1440,702,main,975528,8,5,6,5,HE,Extreme,Harder than Reference,D,j,riskyDeck,safeDeck,0,28,14,left,1,0,32,present,riskyDeck,1458,319
tmg28q4kgys,13577,01/04/2022@18:23:50,"Mozilla/5.0 (Macintosh; Intel Mac OS X 10_15_7) AppleWebKit/537.36 (KHTML, like Gecko) Chrome/99.0.4844.83 Safari/537.36",1440,900,1440,702,main,975528,8,6,6,5,HE,Extreme,Harder than Reference,D,k,riskyDeck,safeDeck,0,28,14,left,1,1,32,present,riskyDeck,1458,320
tmg28q4kgys,13577,01/04/2022@18:23:50,"Mozilla/5.0 (Macintosh; Intel Mac OS X 10_15_7) AppleWebKit/537.36 (KHTML, like Gecko) Chrome/99.0.4844.83 Safari/537.36",1440,900,1440,702,main,975528,8,7,6,5,HE,Extreme,Harder than Reference,D,j,riskyDeck,safeDeck,0,28,14,left,1,1,32,absent,riskyDeck,1458,271
tmg28q4kgys,13577,01/04/2022@18:23:50,"Mozilla/5.0 (Macintosh; Intel Mac OS X 10_15_7) AppleWebKit/537.36 (KHTML, like Gecko) Chrome/99.0.4844.83 Safari/537.36",1440,900,1440,702,main,975528,8,8,6,5,HE,Extreme,Harder than Reference,D,k,riskyDeck,safeDeck,0,28,14,left,1,1,32,present,riskyDeck,1458,273
tmg28q4kgys,13577,01/04/2022@18:23:50,"Mozilla/5.0 (Macintosh; Intel Mac OS X 10_15_7) AppleWebKit/537.36 (KHTML, like Gecko) Chrome/99.0.4844.83 Safari/537.36",1440,900,1440,702,main,975528,8,9,6,5,HE,Extreme,Harder than Reference,D,j,riskyDeck,safeDeck,0,28,14,left,1,0,32,present,riskyDeck,1458,283
tmg28q4kgys,13577,01/04/2022@18:23:50,"Mozilla/5.0 (Macintosh; Intel Mac OS X 10_15_7) AppleWebKit/537.36 (KHTML, like Gecko) Chrome/99.0.4844.83 Safari/537.36",1440,900,1440,702,main,975528,9,1,6,5,EE,Extreme,Easier than Reference,D,k,safeDeck,riskyDeck,0,-14,-7,left,0,1,25,present,safeDeck,1630,555
tmg28q4kgys,13577,01/04/2022@18:23:50,"Mozilla/5.0 (Macintosh; Intel Mac OS X 10_15_7) AppleWebKit/537.36 (KHTML, like Gecko) Chrome/99.0.4844.83 Safari/537.36",1440,900,1440,702,main,975528,9,2,6,5,EE,Extreme,Easier than Reference,D,j,safeDeck,riskyDeck,0,-14,-7,left,0,0,25,present,safeDeck,1630,265
tmg28q4kgys,13577,01/04/2022@18:23:50,"Mozilla/5.0 (Macintosh; Intel Mac OS X 10_15_7) AppleWebKit/537.36 (KHTML, like Gecko) Chrome/99.0.4844.83 Safari/537.36",1440,900,1440,702,main,975528,9,3,6,5,EE,Extreme,Easier than Reference,D,j,safeDeck,riskyDeck,0,-14,-7,left,0,1,25,absent,safeDeck,1630,318
tmg28q4kgys,13577,01/04/2022@18:23:50,"Mozilla/5.0 (Macintosh; Intel Mac OS X 10_15_7) AppleWebKit/537.36 (KHTML, like Gecko) Chrome/99.0.4844.83 Safari/537.36",1440,900,1440,702,main,975528,9,4,6,6,EE,Extreme,Easier than Reference,D,k,safeDeck,riskyDeck,0,-14,-7,left,0,0,25,absent,safeDeck,1630,267
tmg28q4kgys,13577,01/04/2022@18:23:50,"Mozilla/5.0 (Macintosh; Intel Mac OS X 10_15_7) AppleWebKit/537.36 (KHTML, like Gecko) Chrome/99.0.4844.83 Safari/537.36",1440,900,1440,702,main,975528,9,5,6,6,EE,Extreme,Easier than Reference,D,k,safeDeck,riskyDeck,0,-14,-7,left,0,1,25,present,safeDeck,1630,350
tmg28q4kgys,13577,01/04/2022@18:23:50,"Mozilla/5.0 (Macintosh; Intel Mac OS X 10_15_7) AppleWebKit/537.36 (KHTML, like Gecko) Chrome/99.0.4844.83 Safari/537.36",1440,900,1440,702,main,975528,9,6,6,6,EE,Extreme,Easier than Reference,D,j,safeDeck,riskyDeck,0,-14,-7,left,0,0,25,present,safeDeck,1630,269
tmg28q4kgys,13577,01/04/2022@18:23:50,"Mozilla/5.0 (Macintosh; Intel Mac OS X 10_15_7) AppleWebKit/537.36 (KHTML, like Gecko) Chrome/99.0.4844.83 Safari/537.36",1440,900,1440,702,main,975528,9,7,6,6,EE,Extreme,Easier than Reference,D,j,safeDeck,riskyDeck,0,-14,-7,left,0,0,25,present,safeDeck,1630,302
tmg28q4kgys,13577,01/04/2022@18:23:50,"Mozilla/5.0 (Macintosh; Intel Mac OS X 10_15_7) AppleWebKit/537.36 (KHTML, like Gecko) Chrome/99.0.4844.83 Safari/537.36",1440,900,1440,702,main,975528,9,8,6,6,EE,Extreme,Easier than Reference,D,j,safeDeck,riskyDeck,0,-14,-7,left,0,0,25,present,safeDeck,1630,332
tmg28q4kgys,13577,01/04/2022@18:23:50,"Mozilla/5.0 (Macintosh; Intel Mac OS X 10_15_7) AppleWebKit/537.36 (KHTML, like Gecko) Chrome/99.0.4844.83 Safari/537.36",1440,900,1440,702,main,975528,9,9,6,6,EE,Extreme,Easier than Reference,D,j,safeDeck,riskyDeck,0,-14,-7,left,0,0,25,present,safeDeck,1630,384
tmg28q4kgys,13577,01/04/2022@18:23:50,"Mozilla/5.0 (Macintosh; Intel Mac OS X 10_15_7) AppleWebKit/537.36 (KHTML, like Gecko) Chrome/99.0.4844.83 Safari/537.36",1440,900,1440,702,main,975528,10,1,6,6,HM,Moderate,Harder than Reference,D,k,riskyDeck,safeDeck,0,14,7,left,1,1,32,present,riskyDeck,1906,500
tmg28q4kgys,13577,01/04/2022@18:23:50,"Mozilla/5.0 (Macintosh; Intel Mac OS X 10_15_7) AppleWebKit/537.36 (KHTML, like Gecko) Chrome/99.0.4844.83 Safari/537.36",1440,900,1440,702,main,975528,10,2,7,6,HM,Moderate,Harder than Reference,D,j,riskyDeck,safeDeck,0,14,7,left,1,0,32,present,riskyDeck,1906,305
tmg28q4kgys,13577,01/04/2022@18:23:50,"Mozilla/5.0 (Macintosh; Intel Mac OS X 10_15_7) AppleWebKit/537.36 (KHTML, like Gecko) Chrome/99.0.4844.83 Safari/537.36",1440,900,1440,702,main,975528,10,3,7,6,HM,Moderate,Harder than Reference,D,j,riskyDeck,safeDeck,0,14,7,left,1,0,32,present,riskyDeck,1906,347
tmg28q4kgys,13577,01/04/2022@18:23:50,"Mozilla/5.0 (Macintosh; Intel Mac OS X 10_15_7) AppleWebKit/537.36 (KHTML, like Gecko) Chrome/99.0.4844.83 Safari/537.36",1440,900,1440,702,main,975528,10,4,7,6,HM,Moderate,Harder than Reference,D,j,riskyDeck,safeDeck,0,14,7,left,1,1,32,absent,riskyDeck,1906,339
tmg28q4kgys,13577,01/04/2022@18:23:50,"Mozilla/5.0 (Macintosh; Intel Mac OS X 10_15_7) AppleWebKit/537.36 (KHTML, like Gecko) Chrome/99.0.4844.83 Safari/537.36",1440,900,1440,702,main,975528,10,5,7,6,HM,Moderate,Harder than Reference,D,j,riskyDeck,safeDeck,0,14,7,left,1,1,32,absent,riskyDeck,1906,403
tmg28q4kgys,13577,01/04/2022@18:23:50,"Mozilla/5.0 (Macintosh; Intel Mac OS X 10_15_7) AppleWebKit/537.36 (KHTML, like Gecko) Chrome/99.0.4844.83 Safari/537.36",1440,900,1440,702,main,975528,10,6,7,6,HM,Moderate,Harder than Reference,D,k,riskyDeck,safeDeck,0,14,7,left,1,1,32,present,riskyDeck,1906,230
tmg28q4kgys,13577,01/04/2022@18:23:50,"Mozilla/5.0 (Macintosh; Intel Mac OS X 10_15_7) AppleWebKit/537.36 (KHTML, like Gecko) Chrome/99.0.4844.83 Safari/537.36",1440,900,1440,702,main,975528,10,7,7,6,HM,Moderate,Harder than Reference,D,j,riskyDeck,safeDeck,0,14,7,left,1,1,32,absent,riskyDeck,1906,237
tmg28q4kgys,13577,01/04/2022@18:23:50,"Mozilla/5.0 (Macintosh; Intel Mac OS X 10_15_7) AppleWebKit/537.36 (KHTML, like Gecko) Chrome/99.0.4844.83 Safari/537.36",1440,900,1440,702,main,975528,10,8,7,6,HM,Moderate,Harder than Reference,D,k,riskyDeck,safeDeck,0,14,7,left,1,0,32,absent,riskyDeck,1906,369
tmg28q4kgys,13577,01/04/2022@18:23:50,"Mozilla/5.0 (Macintosh; Intel Mac OS X 10_15_7) AppleWebKit/537.36 (KHTML, like Gecko) Chrome/99.0.4844.83 Safari/537.36",1440,900,1440,702,main,975528,10,9,7,6,HM,Moderate,Harder than Reference,D,k,riskyDeck,safeDeck,0,14,7,left,1,1,32,present,riskyDeck,1906,397
tmg28q4kgys,13577,01/04/2022@18:23:50,"Mozilla/5.0 (Macintosh; Intel Mac OS X 10_15_7) AppleWebKit/537.36 (KHTML, like Gecko) Chrome/99.0.4844.83 Safari/537.36",1440,900,1440,702,main,975528,11,1,7,6,HE,Extreme,Harder than Reference,D,k,riskyDeck,safeDeck,0,28,14,left,1,0,60,absent,riskyDeck,2011,642
tmg28q4kgys,13577,01/04/2022@18:23:50,"Mozilla/5.0 (Macintosh; Intel Mac OS X 10_15_7) AppleWebKit/537.36 (KHTML, like Gecko) Chrome/99.0.4844.83 Safari/537.36",1440,900,1440,702,main,975528,11,2,7,6,HE,Extreme,Harder than Reference,D,k,riskyDeck,safeDeck,0,28,14,left,1,0,60,absent,riskyDeck,2011,289
tmg28q4kgys,13577,01/04/2022@18:23:50,"Mozilla/5.0 (Macintosh; Intel Mac OS X 10_15_7) AppleWebKit/537.36 (KHTML, like Gecko) Chrome/99.0.4844.83 Safari/537.36",1440,900,1440,702,main,975528,11,3,7,6,HE,Extreme,Harder than Reference,D,k,riskyDeck,safeDeck,0,28,14,left,1,1,60,present,riskyDeck,2011,314
tmg28q4kgys,13577,01/04/2022@18:23:50,"Mozilla/5.0 (Macintosh; Intel Mac OS X 10_15_7) AppleWebKit/537.36 (KHTML, like Gecko) Chrome/99.0.4844.83 Safari/537.36",1440,900,1440,702,main,975528,11,4,7,6,HE,Extreme,Harder than Reference,D,j,riskyDeck,safeDeck,0,28,14,left,1,1,60,absent,riskyDeck,2011,270
tmg28q4kgys,13577,01/04/2022@18:23:50,"Mozilla/5.0 (Macintosh; Intel Mac OS X 10_15_7) AppleWebKit/537.36 (KHTML, like Gecko) Chrome/99.0.4844.83 Safari/537.36",1440,900,1440,702,main,975528,11,5,7,6,HE,Extreme,Harder than Reference,D,j,riskyDeck,safeDeck,0,28,14,left,1,1,60,absent,riskyDeck,2011,318
tmg28q4kgys,13577,01/04/2022@18:23:50,"Mozilla/5.0 (Macintosh; Intel Mac OS X 10_15_7) AppleWebKit/537.36 (KHTML, like Gecko) Chrome/99.0.4844.83 Safari/537.36",1440,900,1440,702,main,975528,11,6,7,6,HE,Extreme,Harder than Reference,D,k,riskyDeck,safeDeck,0,28,14,left,1,1,60,present,riskyDeck,2011,263
tmg28q4kgys,13577,01/04/2022@18:23:50,"Mozilla/5.0 (Macintosh; Intel Mac OS X 10_15_7) AppleWebKit/537.36 (KHTML, like Gecko) Chrome/99.0.4844.83 Safari/537.36",1440,900,1440,702,main,975528,11,7,7,6,HE,Extreme,Harder than Reference,D,j,riskyDeck,safeDeck,0,28,14,left,1,1,60,absent,riskyDeck,2011,340
tmg28q4kgys,13577,01/04/2022@18:23:50,"Mozilla/5.0 (Macintosh; Intel Mac OS X 10_15_7) AppleWebKit/537.36 (KHTML, like Gecko) Chrome/99.0.4844.83 Safari/537.36",1440,900,1440,702,main,975528,11,8,7,6,HE,Extreme,Harder than Reference,D,k,riskyDeck,safeDeck,0,28,14,left,1,1,60,present,riskyDeck,2011,309
tmg28q4kgys,13577,01/04/2022@18:23:50,"Mozilla/5.0 (Macintosh; Intel Mac OS X 10_15_7) AppleWebKit/537.36 (KHTML, like Gecko) Chrome/99.0.4844.83 Safari/537.36",1440,900,1440,702,main,975528,11,9,7,6,HE,Extreme,Harder than Reference,D,k,riskyDeck,safeDeck,0,28,14,left,1,1,60,present,riskyDeck,2011,266
tmg28q4kgys,13577,01/04/2022@18:23:50,"Mozilla/5.0 (Macintosh; Intel Mac OS X 10_15_7) AppleWebKit/537.36 (KHTML, like Gecko) Chrome/99.0.4844.83 Safari/537.36",1440,900,1440,702,main,975528,12,1,7,6,EM,Moderate,Easier than Reference,F,k,safeDeck,riskyDeck,0,-28,-14,right,1,0,32,absent,riskyDeck,1150,364
tmg28q4kgys,13577,01/04/2022@18:23:50,"Mozilla/5.0 (Macintosh; Intel Mac OS X 10_15_7) AppleWebKit/537.36 (KHTML, like Gecko) Chrome/99.0.4844.83 Safari/537.36",1440,900,1440,702,main,975528,12,2,7,6,EM,Moderate,Easier than Reference,F,k,safeDeck,riskyDeck,0,-28,-14,right,1,1,32,present,riskyDeck,1150,307
tmg28q4kgys,13577,01/04/2022@18:23:50,"Mozilla/5.0 (Macintosh; Intel Mac OS X 10_15_7) AppleWebKit/537.36 (KHTML, like Gecko) Chrome/99.0.4844.83 Safari/537.36",1440,900,1440,702,main,975528,12,3,7,7,EM,Moderate,Easier than Reference,F,j,safeDeck,riskyDeck,0,-28,-14,right,1,1,32,absent,riskyDeck,1150,248
tmg28q4kgys,13577,01/04/2022@18:23:50,"Mozilla/5.0 (Macintosh; Intel Mac OS X 10_15_7) AppleWebKit/537.36 (KHTML, like Gecko) Chrome/99.0.4844.83 Safari/537.36",1440,900,1440,702,main,975528,12,4,7,7,EM,Moderate,Easier than Reference,F,k,safeDeck,riskyDeck,0,-28,-14,right,1,0,32,absent,riskyDeck,1150,251
tmg28q4kgys,13577,01/04/2022@18:23:50,"Mozilla/5.0 (Macintosh; Intel Mac OS X 10_15_7) AppleWebKit/537.36 (KHTML, like Gecko) Chrome/99.0.4844.83 Safari/537.36",1440,900,1440,702,main,975528,12,5,7,7,EM,Moderate,Easier than Reference,F,k,safeDeck,riskyDeck,0,-28,-14,right,1,1,32,present,riskyDeck,1150,710
tmg28q4kgys,13577,01/04/2022@18:23:50,"Mozilla/5.0 (Macintosh; Intel Mac OS X 10_15_7) AppleWebKit/537.36 (KHTML, like Gecko) Chrome/99.0.4844.83 Safari/537.36",1440,900,1440,702,main,975528,12,6,7,7,EM,Moderate,Easier than Reference,F,j,safeDeck,riskyDeck,0,-28,-14,right,1,0,32,present,riskyDeck,1150,255
tmg28q4kgys,13577,01/04/2022@18:23:50,"Mozilla/5.0 (Macintosh; Intel Mac OS X 10_15_7) AppleWebKit/537.36 (KHTML, like Gecko) Chrome/99.0.4844.83 Safari/537.36",1440,900,1440,702,main,975528,12,7,7,7,EM,Moderate,Easier than Reference,F,j,safeDeck,riskyDeck,0,-28,-14,right,1,1,32,absent,riskyDeck,1150,603
tmg28q4kgys,13577,01/04/2022@18:23:50,"Mozilla/5.0 (Macintosh; Intel Mac OS X 10_15_7) AppleWebKit/537.36 (KHTML, like Gecko) Chrome/99.0.4844.83 Safari/537.36",1440,900,1440,702,main,975528,12,8,7,7,EM,Moderate,Easier than Reference,F,j,safeDeck,riskyDeck,0,-28,-14,right,1,0,32,present,riskyDeck,1150,294
tmg28q4kgys,13577,01/04/2022@18:23:50,"Mozilla/5.0 (Macintosh; Intel Mac OS X 10_15_7) AppleWebKit/537.36 (KHTML, like Gecko) Chrome/99.0.4844.83 Safari/537.36",1440,900,1440,702,main,975528,12,9,7,7,EM,Moderate,Easier than Reference,F,j,safeDeck,riskyDeck,0,-28,-14,right,1,0,32,present,riskyDeck,1150,361
tmg28q4kgys,13577,01/04/2022@18:23:50,"Mozilla/5.0 (Macintosh; Intel Mac OS X 10_15_7) AppleWebKit/537.36 (KHTML, like Gecko) Chrome/99.0.4844.83 Safari/537.36",1440,900,1440,702,main,975528,13,1,8,7,HE,Extreme,Harder than Reference,F,k,riskyDeck,safeDeck,28,0,14,right,0,0,46,absent,safeDeck,1406,669
tmg28q4kgys,13577,01/04/2022@18:23:50,"Mozilla/5.0 (Macintosh; Intel Mac OS X 10_15_7) AppleWebKit/537.36 (KHTML, like Gecko) Chrome/99.0.4844.83 Safari/537.36",1440,900,1440,702,main,975528,13,2,8,7,HE,Extreme,Harder than Reference,F,j,riskyDeck,safeDeck,28,0,14,right,0,1,46,absent,safeDeck,1406,283
tmg28q4kgys,13577,01/04/2022@18:23:50,"Mozilla/5.0 (Macintosh; Intel Mac OS X 10_15_7) AppleWebKit/537.36 (KHTML, like Gecko) Chrome/99.0.4844.83 Safari/537.36",1440,900,1440,702,main,975528,13,3,8,7,HE,Extreme,Harder than Reference,F,k,riskyDeck,safeDeck,28,0,14,right,0,1,46,present,safeDeck,1406,281
tmg28q4kgys,13577,01/04/2022@18:23:50,"Mozilla/5.0 (Macintosh; Intel Mac OS X 10_15_7) AppleWebKit/537.36 (KHTML, like Gecko) Chrome/99.0.4844.83 Safari/537.36",1440,900,1440,702,main,975528,13,4,8,7,HE,Extreme,Harder than Reference,F,j,riskyDeck,safeDeck,28,0,14,right,0,1,46,absent,safeDeck,1406,257
tmg28q4kgys,13577,01/04/2022@18:23:50,"Mozilla/5.0 (Macintosh; Intel Mac OS X 10_15_7) AppleWebKit/537.36 (KHTML, like Gecko) Chrome/99.0.4844.83 Safari/537.36",1440,900,1440,702,main,975528,13,5,8,7,HE,Extreme,Harder than Reference,F,k,riskyDeck,safeDeck,28,0,14,right,0,0,46,absent,safeDeck,1406,240
tmg28q4kgys,13577,01/04/2022@18:23:50,"Mozilla/5.0 (Macintosh; Intel Mac OS X 10_15_7) AppleWebKit/537.36 (KHTML, like Gecko) Chrome/99.0.4844.83 Safari/537.36",1440,900,1440,702,main,975528,13,6,8,7,HE,Extreme,Harder than Reference,F,k,riskyDeck,safeDeck,28,0,14,right,0,1,46,present,safeDeck,1406,330
tmg28q4kgys,13577,01/04/2022@18:23:50,"Mozilla/5.0 (Macintosh; Intel Mac OS X 10_15_7) AppleWebKit/537.36 (KHTML, like Gecko) Chrome/99.0.4844.83 Safari/537.36",1440,900,1440,702,main,975528,13,7,8,7,HE,Extreme,Harder than Reference,F,j,riskyDeck,safeDeck,28,0,14,right,0,0,46,present,safeDeck,1406,231
tmg28q4kgys,13577,01/04/2022@18:23:50,"Mozilla/5.0 (Macintosh; Intel Mac OS X 10_15_7) AppleWebKit/537.36 (KHTML, like Gecko) Chrome/99.0.4844.83 Safari/537.36",1440,900,1440,702,main,975528,13,8,8,7,HE,Extreme,Harder than Reference,F,j,riskyDeck,safeDeck,28,0,14,right,0,1,46,absent,safeDeck,1406,339
tmg28q4kgys,13577,01/04/2022@18:23:50,"Mozilla/5.0 (Macintosh; Intel Mac OS X 10_15_7) AppleWebKit/537.36 (KHTML, like Gecko) Chrome/99.0.4844.83 Safari/537.36",1440,900,1440,702,main,975528,13,9,8,7,HE,Extreme,Harder than Reference,F,k,riskyDeck,safeDeck,28,0,14,right,0,1,46,present,safeDeck,1406,86
tmg28q4kgys,13577,01/04/2022@18:23:50,"Mozilla/5.0 (Macintosh; Intel Mac OS X 10_15_7) AppleWebKit/537.36 (KHTML, like Gecko) Chrome/99.0.4844.83 Safari/537.36",1440,900,1440,702,main,975528,14,1,8,7,EE,Extreme,Easier than Reference,F,k,riskyDeck,safeDeck,0,-14,-7,right,0,1,25,present,safeDeck,906,355
tmg28q4kgys,13577,01/04/2022@18:23:50,"Mozilla/5.0 (Macintosh; Intel Mac OS X 10_15_7) AppleWebKit/537.36 (KHTML, like Gecko) Chrome/99.0.4844.83 Safari/537.36",1440,900,1440,702,main,975528,14,2,8,7,EE,Extreme,Easier than Reference,F,j,riskyDeck,safeDeck,0,-14,-7,right,0,0,25,present,safeDeck,906,260
tmg28q4kgys,13577,01/04/2022@18:23:50,"Mozilla/5.0 (Macintosh; Intel Mac OS X 10_15_7) AppleWebKit/537.36 (KHTML, like Gecko) Chrome/99.0.4844.83 Safari/537.36",1440,900,1440,702,main,975528,14,3,8,7,EE,Extreme,Easier than Reference,F,j,riskyDeck,safeDeck,0,-14,-7,right,0,1,25,absent,safeDeck,906,305
tmg28q4kgys,13577,01/04/2022@18:23:50,"Mozilla/5.0 (Macintosh; Intel Mac OS X 10_15_7) AppleWebKit/537.36 (KHTML, like Gecko) Chrome/99.0.4844.83 Safari/537.36",1440,900,1440,702,main,975528,14,4,8,7,EE,Extreme,Easier than Reference,F,k,riskyDeck,safeDeck,0,-14,-7,right,0,0,25,absent,safeDeck,906,219
tmg28q4kgys,13577,01/04/2022@18:23:50,"Mozilla/5.0 (Macintosh; Intel Mac OS X 10_15_7) AppleWebKit/537.36 (KHTML, like Gecko) Chrome/99.0.4844.83 Safari/537.36",1440,900,1440,702,main,975528,14,5,8,7,EE,Extreme,Easier than Reference,F,k,riskyDeck,safeDeck,0,-14,-7,right,0,1,25,present,safeDeck,906,278
tmg28q4kgys,13577,01/04/2022@18:23:50,"Mozilla/5.0 (Macintosh; Intel Mac OS X 10_15_7) AppleWebKit/537.36 (KHTML, like Gecko) Chrome/99.0.4844.83 Safari/537.36",1440,900,1440,702,main,975528,14,6,8,7,EE,Extreme,Easier than Reference,F,j,riskyDeck,safeDeck,0,-14,-7,right,0,1,25,absent,safeDeck,906,234
tmg28q4kgys,13577,01/04/2022@18:23:50,"Mozilla/5.0 (Macintosh; Intel Mac OS X 10_15_7) AppleWebKit/537.36 (KHTML, like Gecko) Chrome/99.0.4844.83 Safari/537.36",1440,900,1440,702,main,975528,14,7,8,7,EE,Extreme,Easier than Reference,F,k,riskyDeck,safeDeck,0,-14,-7,right,0,1,25,present,safeDeck,906,209
tmg28q4kgys,13577,01/04/2022@18:23:50,"Mozilla/5.0 (Macintosh; Intel Mac OS X 10_15_7) AppleWebKit/537.36 (KHTML, like Gecko) Chrome/99.0.4844.83 Safari/537.36",1440,900,1440,702,main,975528,14,8,8,7,EE,Extreme,Easier than Reference,F,j,riskyDeck,safeDeck,0,-14,-7,right,0,1,25,absent,safeDeck,906,76
tmg28q4kgys,13577,01/04/2022@18:23:50,"Mozilla/5.0 (Macintosh; Intel Mac OS X 10_15_7) AppleWebKit/537.36 (KHTML, like Gecko) Chrome/99.0.4844.83 Safari/537.36",1440,900,1440,702,main,975528,14,9,8,7,EE,Extreme,Easier than Reference,F,j,riskyDeck,safeDeck,0,-14,-7,right,0,1,25,absent,safeDeck,906,224
tmg28q4kgys,13577,01/04/2022@18:23:50,"Mozilla/5.0 (Macintosh; Intel Mac OS X 10_15_7) AppleWebKit/537.36 (KHTML, like Gecko) Chrome/99.0.4844.83 Safari/537.36",1440,900,1440,702,main,975528,15,1,8,7,EM,Moderate,Easier than Reference,F,k,riskyDeck,safeDeck,-28,0,-14,right,0,1,18,present,safeDeck,768,299
tmg28q4kgys,13577,01/04/2022@18:23:50,"Mozilla/5.0 (Macintosh; Intel Mac OS X 10_15_7) AppleWebKit/537.36 (KHTML, like Gecko) Chrome/99.0.4844.83 Safari/537.36",1440,900,1440,702,main,975528,15,2,8,7,EM,Moderate,Easier than Reference,F,j,riskyDeck,safeDeck,-28,0,-14,right,0,1,18,absent,safeDeck,768,149
tmg28q4kgys,13577,01/04/2022@18:23:50,"Mozilla/5.0 (Macintosh; Intel Mac OS X 10_15_7) AppleWebKit/537.36 (KHTML, like Gecko) Chrome/99.0.4844.83 Safari/537.36",1440,900,1440,702,main,975528,15,3,8,8,EM,Moderate,Easier than Reference,F,j,riskyDeck,safeDeck,-28,0,-14,right,0,1,18,absent,safeDeck,768,387
tmg28q4kgys,13577,01/04/2022@18:23:50,"Mozilla/5.0 (Macintosh; Intel Mac OS X 10_15_7) AppleWebKit/537.36 (KHTML, like Gecko) Chrome/99.0.4844.83 Safari/537.36",1440,900,1440,702,main,975528,15,4,8,8,EM,Moderate,Easier than Reference,F,k,riskyDeck,safeDeck,-28,0,-14,right,0,0,18,absent,safeDeck,768,267
tmg28q4kgys,13577,01/04/2022@18:23:50,"Mozilla/5.0 (Macintosh; Intel Mac OS X 10_15_7) AppleWebKit/537.36 (KHTML, like Gecko) Chrome/99.0.4844.83 Safari/537.36",1440,900,1440,702,main,975528,15,5,8,8,EM,Moderate,Easier than Reference,F,k,riskyDeck,safeDeck,-28,0,-14,right,0,0,18,absent,safeDeck,768,1527
tmg28q4kgys,13577,01/04/2022@18:23:50,"Mozilla/5.0 (Macintosh; Intel Mac OS X 10_15_7) AppleWebKit/537.36 (KHTML, like Gecko) Chrome/99.0.4844.83 Safari/537.36",1440,900,1440,702,main,975528,15,6,8,8,EM,Moderate,Easier than Reference,F,k,riskyDeck,safeDeck,-28,0,-14,right,0,0,18,absent,safeDeck,768,676
tmg28q4kgys,13577,01/04/2022@18:23:50,"Mozilla/5.0 (Macintosh; Intel Mac OS X 10_15_7) AppleWebKit/537.36 (KHTML, like Gecko) Chrome/99.0.4844.83 Safari/537.36",1440,900,1440,702,main,975528,15,7,8,8,EM,Moderate,Easier than Reference,F,k,riskyDeck,safeDeck,-28,0,-14,right,0,0,18,absent,safeDeck,768,291
tmg28q4kgys,13577,01/04/2022@18:23:50,"Mozilla/5.0 (Macintosh; Intel Mac OS X 10_15_7) AppleWebKit/537.36 (KHTML, like Gecko) Chrome/99.0.4844.83 Safari/537.36",1440,900,1440,702,main,975528,15,8,8,8,EM,Moderate,Easier than Reference,F,k,riskyDeck,safeDeck,-28,0,-14,right,0,1,18,present,safeDeck,768,26
tmg28q4kgys,13577,01/04/2022@18:23:50,"Mozilla/5.0 (Macintosh; Intel Mac OS X 10_15_7) AppleWebKit/537.36 (KHTML, like Gecko) Chrome/99.0.4844.83 Safari/537.36",1440,900,1440,702,main,975528,15,9,8,8,EM,Moderate,Easier than Reference,F,k,riskyDeck,safeDeck,-28,0,-14,right,0,1,18,present,safeDeck,768,12
tmg28q4kgys,13577,01/04/2022@18:23:50,"Mozilla/5.0 (Macintosh; Intel Mac OS X 10_15_7) AppleWebKit/537.36 (KHTML, like Gecko) Chrome/99.0.4844.83 Safari/537.36",1440,900,1440,702,main,975528,16,1,9,8,HM,Moderate,Harder than Reference,D,k,riskyDeck,safeDeck,14,0,7,left,1,1,46,present,riskyDeck,1799,310
tmg28q4kgys,13577,01/04/2022@18:23:50,"Mozilla/5.0 (Macintosh; Intel Mac OS X 10_15_7) AppleWebKit/537.36 (KHTML, like Gecko) Chrome/99.0.4844.83 Safari/537.36",1440,900,1440,702,main,975528,16,2,9,8,HM,Moderate,Harder than Reference,D,j,riskyDeck,safeDeck,14,0,7,left,1,1,46,absent,riskyDeck,1799,785
tmg28q4kgys,13577,01/04/2022@18:23:50,"Mozilla/5.0 (Macintosh; Intel Mac OS X 10_15_7) AppleWebKit/537.36 (KHTML, like Gecko) Chrome/99.0.4844.83 Safari/537.36",1440,900,1440,702,main,975528,16,3,9,8,HM,Moderate,Harder than Reference,D,j,riskyDeck,safeDeck,14,0,7,left,1,0,46,present,riskyDeck,1799,122
tmg28q4kgys,13577,01/04/2022@18:23:50,"Mozilla/5.0 (Macintosh; Intel Mac OS X 10_15_7) AppleWebKit/537.36 (KHTML, like Gecko) Chrome/99.0.4844.83 Safari/537.36",1440,900,1440,702,main,975528,16,4,9,8,HM,Moderate,Harder than Reference,D,j,riskyDeck,safeDeck,14,0,7,left,1,1,46,absent,riskyDeck,1799,403
tmg28q4kgys,13577,01/04/2022@18:23:50,"Mozilla/5.0 (Macintosh; Intel Mac OS X 10_15_7) AppleWebKit/537.36 (KHTML, like Gecko) Chrome/99.0.4844.83 Safari/537.36",1440,900,1440,702,main,975528,16,5,9,8,HM,Moderate,Harder than Reference,D,j,riskyDeck,safeDeck,14,0,7,left,1,1,46,absent,riskyDeck,1799,639
tmg28q4kgys,13577,01/04/2022@18:23:50,"Mozilla/5.0 (Macintosh; Intel Mac OS X 10_15_7) AppleWebKit/537.36 (KHTML, like Gecko) Chrome/99.0.4844.83 Safari/537.36",1440,900,1440,702,main,975528,16,6,9,8,HM,Moderate,Harder than Reference,D,k,riskyDeck,safeDeck,14,0,7,left,1,1,46,present,riskyDeck,1799,450
tmg28q4kgys,13577,01/04/2022@18:23:50,"Mozilla/5.0 (Macintosh; Intel Mac OS X 10_15_7) AppleWebKit/537.36 (KHTML, like Gecko) Chrome/99.0.4844.83 Safari/537.36",1440,900,1440,702,main,975528,16,7,9,8,HM,Moderate,Harder than Reference,D,j,riskyDeck,safeDeck,14,0,7,left,1,1,46,absent,riskyDeck,1799,285
tmg28q4kgys,13577,01/04/2022@18:23:50,"Mozilla/5.0 (Macintosh; Intel Mac OS X 10_15_7) AppleWebKit/537.36 (KHTML, like Gecko) Chrome/99.0.4844.83 Safari/537.36",1440,900,1440,702,main,975528,16,8,9,8,HM,Moderate,Harder than Reference,D,j,riskyDeck,safeDeck,14,0,7,left,1,0,46,present,riskyDeck,1799,501
tmg28q4kgys,13577,01/04/2022@18:23:50,"Mozilla/5.0 (Macintosh; Intel Mac OS X 10_15_7) AppleWebKit/537.36 (KHTML, like Gecko) Chrome/99.0.4844.83 Safari/537.36",1440,900,1440,702,main,975528,16,9,9,8,HM,Moderate,Harder than Reference,D,j,riskyDeck,safeDeck,14,0,7,left,1,0,46,present,riskyDeck,1799,638
tmg28q4kgys,13577,01/04/2022@18:23:50,"Mozilla/5.0 (Macintosh; Intel Mac OS X 10_15_7) AppleWebKit/537.36 (KHTML, like Gecko) Chrome/99.0.4844.83 Safari/537.36",1440,900,1440,702,main,975528,17,1,9,8,EE,Extreme,Easier than Reference,D,k,riskyDeck,safeDeck,-14,0,-7,left,1,0,18,absent,riskyDeck,1886,354
tmg28q4kgys,13577,01/04/2022@18:23:50,"Mozilla/5.0 (Macintosh; Intel Mac OS X 10_15_7) AppleWebKit/537.36 (KHTML, like Gecko) Chrome/99.0.4844.83 Safari/537.36",1440,900,1440,702,main,975528,17,2,9,8,EE,Extreme,Easier than Reference,D,k,riskyDeck,safeDeck,-14,0,-7,left,1,0,18,absent,riskyDeck,1886,318
tmg28q4kgys,13577,01/04/2022@18:23:50,"Mozilla/5.0 (Macintosh; Intel Mac OS X 10_15_7) AppleWebKit/537.36 (KHTML, like Gecko) Chrome/99.0.4844.83 Safari/537.36",1440,900,1440,702,main,975528,17,3,9,8,EE,Extreme,Easier than Reference,D,k,riskyDeck,safeDeck,-14,0,-7,left,1,0,18,absent,riskyDeck,1886,308
tmg28q4kgys,13577,01/04/2022@18:23:50,"Mozilla/5.0 (Macintosh; Intel Mac OS X 10_15_7) AppleWebKit/537.36 (KHTML, like Gecko) Chrome/99.0.4844.83 Safari/537.36",1440,900,1440,702,main,975528,17,4,9,8,EE,Extreme,Easier than Reference,D,k,riskyDeck,safeDeck,-14,0,-7,left,1,1,18,present,riskyDeck,1886,304
tmg28q4kgys,13577,01/04/2022@18:23:50,"Mozilla/5.0 (Macintosh; Intel Mac OS X 10_15_7) AppleWebKit/537.36 (KHTML, like Gecko) Chrome/99.0.4844.83 Safari/537.36",1440,900,1440,702,main,975528,17,5,9,8,EE,Extreme,Easier than Reference,D,k,riskyDeck,safeDeck,-14,0,-7,left,1,0,18,absent,riskyDeck,1886,277
tmg28q4kgys,13577,01/04/2022@18:23:50,"Mozilla/5.0 (Macintosh; Intel Mac OS X 10_15_7) AppleWebKit/537.36 (KHTML, like Gecko) Chrome/99.0.4844.83 Safari/537.36",1440,900,1440,702,main,975528,17,6,9,8,EE,Extreme,Easier than Reference,D,k,riskyDeck,safeDeck,-14,0,-7,left,1,1,18,present,riskyDeck,1886,338
tmg28q4kgys,13577,01/04/2022@18:23:50,"Mozilla/5.0 (Macintosh; Intel Mac OS X 10_15_7) AppleWebKit/537.36 (KHTML, like Gecko) Chrome/99.0.4844.83 Safari/537.36",1440,900,1440,702,main,975528,17,7,9,8,EE,Extreme,Easier than Reference,D,k,riskyDeck,safeDeck,-14,0,-7,left,1,1,18,present,riskyDeck,1886,215
tmg28q4kgys,13577,01/04/2022@18:23:50,"Mozilla/5.0 (Macintosh; Intel Mac OS X 10_15_7) AppleWebKit/537.36 (KHTML, like Gecko) Chrome/99.0.4844.83 Safari/537.36",1440,900,1440,702,main,975528,17,8,9,8,EE,Extreme,Easier than Reference,D,j,riskyDeck,safeDeck,-14,0,-7,left,1,0,18,present,riskyDeck,1886,230
tmg28q4kgys,13577,01/04/2022@18:23:50,"Mozilla/5.0 (Macintosh; Intel Mac OS X 10_15_7) AppleWebKit/537.36 (KHTML, like Gecko) Chrome/99.0.4844.83 Safari/537.36",1440,900,1440,702,main,975528,17,9,9,8,EE,Extreme,Easier than Reference,D,j,riskyDeck,safeDeck,-14,0,-7,left,1,1,18,absent,riskyDeck,1886,301
tmg28q4kgys,13577,01/04/2022@18:23:50,"Mozilla/5.0 (Macintosh; Intel Mac OS X 10_15_7) AppleWebKit/537.36 (KHTML, like Gecko) Chrome/99.0.4844.83 Safari/537.36",1440,900,1440,702,main,975528,18,1,9,8,HE,Extreme,Harder than Reference,F,k,safeDeck,riskyDeck,0,28,14,right,1,0,60,absent,riskyDeck,1092,468
tmg28q4kgys,13577,01/04/2022@18:23:50,"Mozilla/5.0 (Macintosh; Intel Mac OS X 10_15_7) AppleWebKit/537.36 (KHTML, like Gecko) Chrome/99.0.4844.83 Safari/537.36",1440,900,1440,702,main,975528,18,2,9,8,HE,Extreme,Harder than Reference,F,j,safeDeck,riskyDeck,0,28,14,right,1,0,60,present,riskyDeck,1092,414
tmg28q4kgys,13577,01/04/2022@18:23:50,"Mozilla/5.0 (Macintosh; Intel Mac OS X 10_15_7) AppleWebKit/537.36 (KHTML, like Gecko) Chrome/99.0.4844.83 Safari/537.36",1440,900,1440,702,main,975528,18,3,9,8,HE,Extreme,Harder than Reference,F,j,safeDeck,riskyDeck,0,28,14,right,1,0,60,present,riskyDeck,1092,409
tmg28q4kgys,13577,01/04/2022@18:23:50,"Mozilla/5.0 (Macintosh; Intel Mac OS X 10_15_7) AppleWebKit/537.36 (KHTML, like Gecko) Chrome/99.0.4844.83 Safari/537.36",1440,900,1440,702,main,975528,18,4,9,8,HE,Extreme,Harder than Reference,F,j,safeDeck,riskyDeck,0,28,14,right,1,0,60,present,riskyDeck,1092,436
tmg28q4kgys,13577,01/04/2022@18:23:50,"Mozilla/5.0 (Macintosh; Intel Mac OS X 10_15_7) AppleWebKit/537.36 (KHTML, like Gecko) Chrome/99.0.4844.83 Safari/537.36",1440,900,1440,702,main,975528,18,5,9,8,HE,Extreme,Harder than Reference,F,j,safeDeck,riskyDeck,0,28,14,right,1,0,60,present,riskyDeck,1092,404
tmg28q4kgys,13577,01/04/2022@18:23:50,"Mozilla/5.0 (Macintosh; Intel Mac OS X 10_15_7) AppleWebKit/537.36 (KHTML, like Gecko) Chrome/99.0.4844.83 Safari/537.36",1440,900,1440,702,main,975528,18,6,9,8,HE,Extreme,Harder than Reference,F,j,safeDeck,riskyDeck,0,28,14,right,1,1,60,absent,riskyDeck,1092,489
tmg28q4kgys,13577,01/04/2022@18:23:50,"Mozilla/5.0 (Macintosh; Intel Mac OS X 10_15_7) AppleWebKit/537.36 (KHTML, like Gecko) Chrome/99.0.4844.83 Safari/537.36",1440,900,1440,702,main,975528,18,7,9,9,HE,Extreme,Harder than Reference,F,k,safeDeck,riskyDeck,0,28,14,right,1,1,60,present,riskyDeck,1092,235
tmg28q4kgys,13577,01/04/2022@18:23:50,"Mozilla/5.0 (Macintosh; Intel Mac OS X 10_15_7) AppleWebKit/537.36 (KHTML, like Gecko) Chrome/99.0.4844.83 Safari/537.36",1440,900,1440,702,main,975528,18,8,9,9,HE,Extreme,Harder than Reference,F,j,safeDeck,riskyDeck,0,28,14,right,1,0,60,present,riskyDeck,1092,133
tmg28q4kgys,13577,01/04/2022@18:23:50,"Mozilla/5.0 (Macintosh; Intel Mac OS X 10_15_7) AppleWebKit/537.36 (KHTML, like Gecko) Chrome/99.0.4844.83 Safari/537.36",1440,900,1440,702,main,975528,18,9,9,9,HE,Extreme,Harder than Reference,F,j,safeDeck,riskyDeck,0,28,14,right,1,0,60,present,riskyDeck,1092,453
tmg28q4kgys,13577,01/04/2022@18:23:50,"Mozilla/5.0 (Macintosh; Intel Mac OS X 10_15_7) AppleWebKit/537.36 (KHTML, like Gecko) Chrome/99.0.4844.83 Safari/537.36",1440,900,1440,702,main,975528,19,1,9,9,HM,Moderate,Harder than Reference,D,k,riskyDeck,safeDeck,14,0,7,left,1,0,46,absent,riskyDeck,1500,416
tmg28q4kgys,13577,01/04/2022@18:23:50,"Mozilla/5.0 (Macintosh; Intel Mac OS X 10_15_7) AppleWebKit/537.36 (KHTML, like Gecko) Chrome/99.0.4844.83 Safari/537.36",1440,900,1440,702,main,975528,19,2,9,9,HM,Moderate,Harder than Reference,D,k,riskyDeck,safeDeck,14,0,7,left,1,1,46,present,riskyDeck,1500,277
tmg28q4kgys,13577,01/04/2022@18:23:50,"Mozilla/5.0 (Macintosh; Intel Mac OS X 10_15_7) AppleWebKit/537.36 (KHTML, like Gecko) Chrome/99.0.4844.83 Safari/537.36",1440,900,1440,702,main,975528,19,3,9,9,HM,Moderate,Harder than Reference,D,j,riskyDeck,safeDeck,14,0,7,left,1,1,46,absent,riskyDeck,1500,275
tmg28q4kgys,13577,01/04/2022@18:23:50,"Mozilla/5.0 (Macintosh; Intel Mac OS X 10_15_7) AppleWebKit/537.36 (KHTML, like Gecko) Chrome/99.0.4844.83 Safari/537.36",1440,900,1440,702,main,975528,19,4,10,9,HM,Moderate,Harder than Reference,D,k,riskyDeck,safeDeck,14,0,7,left,1,0,46,absent,riskyDeck,1500,212
tmg28q4kgys,13577,01/04/2022@18:23:50,"Mozilla/5.0 (Macintosh; Intel Mac OS X 10_15_7) AppleWebKit/537.36 (KHTML, like Gecko) Chrome/99.0.4844.83 Safari/537.36",1440,900,1440,702,main,975528,19,5,10,9,HM,Moderate,Harder than Reference,D,k,riskyDeck,safeDeck,14,0,7,left,1,1,46,present,riskyDeck,1500,370
tmg28q4kgys,13577,01/04/2022@18:23:50,"Mozilla/5.0 (Macintosh; Intel Mac OS X 10_15_7) AppleWebKit/537.36 (KHTML, like Gecko) Chrome/99.0.4844.83 Safari/537.36",1440,900,1440,702,main,975528,19,6,10,9,HM,Moderate,Harder than Reference,D,j,riskyDeck,safeDeck,14,0,7,left,1,0,46,present,riskyDeck,1500,291
tmg28q4kgys,13577,01/04/2022@18:23:50,"Mozilla/5.0 (Macintosh; Intel Mac OS X 10_15_7) AppleWebKit/537.36 (KHTML, like Gecko) Chrome/99.0.4844.83 Safari/537.36",1440,900,1440,702,main,975528,19,7,10,9,HM,Moderate,Harder than Reference,D,j,riskyDeck,safeDeck,14,0,7,left,1,1,46,absent,riskyDeck,1500,319
tmg28q4kgys,13577,01/04/2022@18:23:50,"Mozilla/5.0 (Macintosh; Intel Mac OS X 10_15_7) AppleWebKit/537.36 (KHTML, like Gecko) Chrome/99.0.4844.83 Safari/537.36",1440,900,1440,702,main,975528,19,8,10,9,HM,Moderate,Harder than Reference,D,k,riskyDeck,safeDeck,14,0,7,left,1,1,46,present,riskyDeck,1500,274
tmg28q4kgys,13577,01/04/2022@18:23:50,"Mozilla/5.0 (Macintosh; Intel Mac OS X 10_15_7) AppleWebKit/537.36 (KHTML, like Gecko) Chrome/99.0.4844.83 Safari/537.36",1440,900,1440,702,main,975528,19,9,10,9,HM,Moderate,Harder than Reference,D,j,riskyDeck,safeDeck,14,0,7,left,1,1,46,absent,riskyDeck,1500,271
tmg28q4kgys,13577,01/04/2022@18:23:50,"Mozilla/5.0 (Macintosh; Intel Mac OS X 10_15_7) AppleWebKit/537.36 (KHTML, like Gecko) Chrome/99.0.4844.83 Safari/537.36",1440,900,1440,702,main,975528,20,1,10,9,EM,Moderate,Easier than Reference,D,k,riskyDeck,safeDeck,-28,0,-14,left,1,0,32,absent,riskyDeck,1455,693
tmg28q4kgys,13577,01/04/2022@18:23:50,"Mozilla/5.0 (Macintosh; Intel Mac OS X 10_15_7) AppleWebKit/537.36 (KHTML, like Gecko) Chrome/99.0.4844.83 Safari/537.36",1440,900,1440,702,main,975528,20,2,10,9,EM,Moderate,Easier than Reference,D,j,riskyDeck,safeDeck,-28,0,-14,left,1,0,32,present,riskyDeck,1455,308
tmg28q4kgys,13577,01/04/2022@18:23:50,"Mozilla/5.0 (Macintosh; Intel Mac OS X 10_15_7) AppleWebKit/537.36 (KHTML, like Gecko) Chrome/99.0.4844.83 Safari/537.36",1440,900,1440,702,main,975528,20,3,10,9,EM,Moderate,Easier than Reference,D,k,riskyDeck,safeDeck,-28,0,-14,left,1,0,32,absent,riskyDeck,1455,243
tmg28q4kgys,13577,01/04/2022@18:23:50,"Mozilla/5.0 (Macintosh; Intel Mac OS X 10_15_7) AppleWebKit/537.36 (KHTML, like Gecko) Chrome/99.0.4844.83 Safari/537.36",1440,900,1440,702,main,975528,20,4,10,9,EM,Moderate,Easier than Reference,D,j,riskyDeck,safeDeck,-28,0,-14,left,1,1,32,absent,riskyDeck,1455,273
tmg28q4kgys,13577,01/04/2022@18:23:50,"Mozilla/5.0 (Macintosh; Intel Mac OS X 10_15_7) AppleWebKit/537.36 (KHTML, like Gecko) Chrome/99.0.4844.83 Safari/537.36",1440,900,1440,702,main,975528,20,5,10,9,EM,Moderate,Easier than Reference,D,k,riskyDeck,safeDeck,-28,0,-14,left,1,1,32,present,riskyDeck,1455,242
tmg28q4kgys,13577,01/04/2022@18:23:50,"Mozilla/5.0 (Macintosh; Intel Mac OS X 10_15_7) AppleWebKit/537.36 (KHTML, like Gecko) Chrome/99.0.4844.83 Safari/537.36",1440,900,1440,702,main,975528,20,6,10,9,EM,Moderate,Easier than Reference,D,j,riskyDeck,safeDeck,-28,0,-14,left,1,1,32,absent,riskyDeck,1455,249
tmg28q4kgys,13577,01/04/2022@18:23:50,"Mozilla/5.0 (Macintosh; Intel Mac OS X 10_15_7) AppleWebKit/537.36 (KHTML, like Gecko) Chrome/99.0.4844.83 Safari/537.36",1440,900,1440,702,main,975528,20,7,10,9,EM,Moderate,Easier than Reference,D,k,riskyDeck,safeDeck,-28,0,-14,left,1,0,32,absent,riskyDeck,1455,159
tmg28q4kgys,13577,01/04/2022@18:23:50,"Mozilla/5.0 (Macintosh; Intel Mac OS X 10_15_7) AppleWebKit/537.36 (KHTML, like Gecko) Chrome/99.0.4844.83 Safari/537.36",1440,900,1440,702,main,975528,20,8,10,9,EM,Moderate,Easier than Reference,D,k,riskyDeck,safeDeck,-28,0,-14,left,1,0,32,absent,riskyDeck,1455,314
tmg28q4kgys,13577,01/04/2022@18:23:50,"Mozilla/5.0 (Macintosh; Intel Mac OS X 10_15_7) AppleWebKit/537.36 (KHTML, like Gecko) Chrome/99.0.4844.83 Safari/537.36",1440,900,1440,702,main,975528,20,9,10,9,EM,Moderate,Easier than Reference,D,j,riskyDeck,safeDeck,-28,0,-14,left,1,0,32,present,riskyDeck,1455,288
tmg28q4kgys,13577,01/04/2022@18:23:50,"Mozilla/5.0 (Macintosh; Intel Mac OS X 10_15_7) AppleWebKit/537.36 (KHTML, like Gecko) Chrome/99.0.4844.83 Safari/537.36",1440,900,1440,702,main,975528,21,1,10,9,EE,Extreme,Easier than Reference,D,k,safeDeck,riskyDeck,0,-14,-7,left,0,0,25,absent,safeDeck,2166,898
tmg28q4kgys,13577,01/04/2022@18:23:50,"Mozilla/5.0 (Macintosh; Intel Mac OS X 10_15_7) AppleWebKit/537.36 (KHTML, like Gecko) Chrome/99.0.4844.83 Safari/537.36",1440,900,1440,702,main,975528,21,2,10,9,EE,Extreme,Easier than Reference,D,j,safeDeck,riskyDeck,0,-14,-7,left,0,0,25,present,safeDeck,2166,1164
tmg28q4kgys,13577,01/04/2022@18:23:50,"Mozilla/5.0 (Macintosh; Intel Mac OS X 10_15_7) AppleWebKit/537.36 (KHTML, like Gecko) Chrome/99.0.4844.83 Safari/537.36",1440,900,1440,702,main,975528,21,3,10,9,EE,Extreme,Easier than Reference,D,k,safeDeck,riskyDeck,0,-14,-7,left,0,0,25,absent,safeDeck,2166,333
tmg28q4kgys,13577,01/04/2022@18:23:50,"Mozilla/5.0 (Macintosh; Intel Mac OS X 10_15_7) AppleWebKit/537.36 (KHTML, like Gecko) Chrome/99.0.4844.83 Safari/537.36",1440,900,1440,702,main,975528,21,4,10,9,EE,Extreme,Easier than Reference,D,j,safeDeck,riskyDeck,0,-14,-7,left,0,1,25,absent,safeDeck,2166,316
tmg28q4kgys,13577,01/04/2022@18:23:50,"Mozilla/5.0 (Macintosh; Intel Mac OS X 10_15_7) AppleWebKit/537.36 (KHTML, like Gecko) Chrome/99.0.4844.83 Safari/537.36",1440,900,1440,702,main,975528,21,5,10,10,EE,Extreme,Easier than Reference,D,k,safeDeck,riskyDeck,0,-14,-7,left,0,0,25,absent,safeDeck,2166,8347
tmg28q4kgys,13577,01/04/2022@18:23:50,"Mozilla/5.0 (Macintosh; Intel Mac OS X 10_15_7) AppleWebKit/537.36 (KHTML, like Gecko) Chrome/99.0.4844.83 Safari/537.36",1440,900,1440,702,main,975528,21,6,10,10,EE,Extreme,Easier than Reference,D,k,safeDeck,riskyDeck,0,-14,-7,left,0,0,25,absent,safeDeck,2166,277
tmg28q4kgys,13577,01/04/2022@18:23:50,"Mozilla/5.0 (Macintosh; Intel Mac OS X 10_15_7) AppleWebKit/537.36 (KHTML, like Gecko) Chrome/99.0.4844.83 Safari/537.36",1440,900,1440,702,main,975528,21,7,10,10,EE,Extreme,Easier than Reference,D,j,safeDeck,riskyDeck,0,-14,-7,left,0,1,25,absent,safeDeck,2166,239
tmg28q4kgys,13577,01/04/2022@18:23:50,"Mozilla/5.0 (Macintosh; Intel Mac OS X 10_15_7) AppleWebKit/537.36 (KHTML, like Gecko) Chrome/99.0.4844.83 Safari/537.36",1440,900,1440,702,main,975528,21,8,10,10,EE,Extreme,Easier than Reference,D,k,safeDeck,riskyDeck,0,-14,-7,left,0,0,25,absent,safeDeck,2166,256
tmg28q4kgys,13577,01/04/2022@18:23:50,"Mozilla/5.0 (Macintosh; Intel Mac OS X 10_15_7) AppleWebKit/537.36 (KHTML, like Gecko) Chrome/99.0.4844.83 Safari/537.36",1440,900,1440,702,main,975528,21,9,10,10,EE,Extreme,Easier than Reference,D,k,safeDeck,riskyDeck,0,-14,-7,left,0,0,25,absent,safeDeck,2166,296
tmg28q4kgys,13577,01/04/2022@18:23:50,"Mozilla/5.0 (Macintosh; Intel Mac OS X 10_15_7) AppleWebKit/537.36 (KHTML, like Gecko) Chrome/99.0.4844.83 Safari/537.36",1440,900,1440,702,main,975528,22,1,10,10,HE,Extreme,Harder than Reference,D,k,riskyDeck,safeDeck,28,0,14,left,1,1,32,present,riskyDeck,1247,312
tmg28q4kgys,13577,01/04/2022@18:23:50,"Mozilla/5.0 (Macintosh; Intel Mac OS X 10_15_7) AppleWebKit/537.36 (KHTML, like Gecko) Chrome/99.0.4844.83 Safari/537.36",1440,900,1440,702,main,975528,22,2,10,10,HE,Extreme,Harder than Reference,D,j,riskyDeck,safeDeck,28,0,14,left,1,1,32,absent,riskyDeck,1247,253
tmg28q4kgys,13577,01/04/2022@18:23:50,"Mozilla/5.0 (Macintosh; Intel Mac OS X 10_15_7) AppleWebKit/537.36 (KHTML, like Gecko) Chrome/99.0.4844.83 Safari/537.36",1440,900,1440,702,main,975528,22,3,11,10,HE,Extreme,Harder than Reference,D,k,riskyDeck,safeDeck,28,0,14,left,1,0,32,absent,riskyDeck,1247,230
tmg28q4kgys,13577,01/04/2022@18:23:50,"Mozilla/5.0 (Macintosh; Intel Mac OS X 10_15_7) AppleWebKit/537.36 (KHTML, like Gecko) Chrome/99.0.4844.83 Safari/537.36",1440,900,1440,702,main,975528,22,4,11,10,HE,Extreme,Harder than Reference,D,k,riskyDeck,safeDeck,28,0,14,left,1,0,32,absent,riskyDeck,1247,390
tmg28q4kgys,13577,01/04/2022@18:23:50,"Mozilla/5.0 (Macintosh; Intel Mac OS X 10_15_7) AppleWebKit/537.36 (KHTML, like Gecko) Chrome/99.0.4844.83 Safari/537.36",1440,900,1440,702,main,975528,22,5,11,10,HE,Extreme,Harder than Reference,D,j,riskyDeck,safeDeck,28,0,14,left,1,0,32,present,riskyDeck,1247,336
tmg28q4kgys,13577,01/04/2022@18:23:50,"Mozilla/5.0 (Macintosh; Intel Mac OS X 10_15_7) AppleWebKit/537.36 (KHTML, like Gecko) Chrome/99.0.4844.83 Safari/537.36",1440,900,1440,702,main,975528,22,6,11,10,HE,Extreme,Harder than Reference,D,k,riskyDeck,safeDeck,28,0,14,left,1,0,32,absent,riskyDeck,1247,360
tmg28q4kgys,13577,01/04/2022@18:23:50,"Mozilla/5.0 (Macintosh; Intel Mac OS X 10_15_7) AppleWebKit/537.36 (KHTML, like Gecko) Chrome/99.0.4844.83 Safari/537.36",1440,900,1440,702,main,975528,22,7,11,10,HE,Extreme,Harder than Reference,D,k,riskyDeck,safeDeck,28,0,14,left,1,1,32,present,riskyDeck,1247,362
tmg28q4kgys,13577,01/04/2022@18:23:50,"Mozilla/5.0 (Macintosh; Intel Mac OS X 10_15_7) AppleWebKit/537.36 (KHTML, like Gecko) Chrome/99.0.4844.83 Safari/537.36",1440,900,1440,702,main,975528,22,8,11,10,HE,Extreme,Harder than Reference,D,j,riskyDeck,safeDeck,28,0,14,left,1,1,32,absent,riskyDeck,1247,252
tmg28q4kgys,13577,01/04/2022@18:23:50,"Mozilla/5.0 (Macintosh; Intel Mac OS X 10_15_7) AppleWebKit/537.36 (KHTML, like Gecko) Chrome/99.0.4844.83 Safari/537.36",1440,900,1440,702,main,975528,22,9,11,10,HE,Extreme,Harder than Reference,D,j,riskyDeck,safeDeck,28,0,14,left,1,1,32,absent,riskyDeck,1247,307
tmg28q4kgys,13577,01/04/2022@18:23:50,"Mozilla/5.0 (Macintosh; Intel Mac OS X 10_15_7) AppleWebKit/537.36 (KHTML, like Gecko) Chrome/99.0.4844.83 Safari/537.36",1440,900,1440,702,main,975528,23,1,11,10,EM,Moderate,Easier than Reference,F,k,safeDeck,riskyDeck,-28,0,-14,right,1,1,4,present,riskyDeck,1380,325
tmg28q4kgys,13577,01/04/2022@18:23:50,"Mozilla/5.0 (Macintosh; Intel Mac OS X 10_15_7) AppleWebKit/537.36 (KHTML, like Gecko) Chrome/99.0.4844.83 Safari/537.36",1440,900,1440,702,main,975528,23,2,11,10,EM,Moderate,Easier than Reference,F,j,safeDeck,riskyDeck,-28,0,-14,right,1,0,4,present,riskyDeck,1380,295
tmg28q4kgys,13577,01/04/2022@18:23:50,"Mozilla/5.0 (Macintosh; Intel Mac OS X 10_15_7) AppleWebKit/537.36 (KHTML, like Gecko) Chrome/99.0.4844.83 Safari/537.36",1440,900,1440,702,main,975528,23,3,11,10,EM,Moderate,Easier than Reference,F,j,safeDeck,riskyDeck,-28,0,-14,right,1,0,4,present,riskyDeck,1380,439
tmg28q4kgys,13577,01/04/2022@18:23:50,"Mozilla/5.0 (Macintosh; Intel Mac OS X 10_15_7) AppleWebKit/537.36 (KHTML, like Gecko) Chrome/99.0.4844.83 Safari/537.36",1440,900,1440,702,main,975528,23,4,11,10,EM,Moderate,Easier than Reference,F,j,safeDeck,riskyDeck,-28,0,-14,right,1,0,4,present,riskyDeck,1380,380
tmg28q4kgys,13577,01/04/2022@18:23:50,"Mozilla/5.0 (Macintosh; Intel Mac OS X 10_15_7) AppleWebKit/537.36 (KHTML, like Gecko) Chrome/99.0.4844.83 Safari/537.36",1440,900,1440,702,main,975528,23,5,11,10,EM,Moderate,Easier than Reference,F,j,safeDeck,riskyDeck,-28,0,-14,right,1,1,4,absent,riskyDeck,1380,411
tmg28q4kgys,13577,01/04/2022@18:23:50,"Mozilla/5.0 (Macintosh; Intel Mac OS X 10_15_7) AppleWebKit/537.36 (KHTML, like Gecko) Chrome/99.0.4844.83 Safari/537.36",1440,900,1440,702,main,975528,23,6,11,10,EM,Moderate,Easier than Reference,F,k,safeDeck,riskyDeck,-28,0,-14,right,1,1,4,present,riskyDeck,1380,263
tmg28q4kgys,13577,01/04/2022@18:23:50,"Mozilla/5.0 (Macintosh; Intel Mac OS X 10_15_7) AppleWebKit/537.36 (KHTML, like Gecko) Chrome/99.0.4844.83 Safari/537.36",1440,900,1440,702,main,975528,23,7,11,10,EM,Moderate,Easier than Reference,F,j,safeDeck,riskyDeck,-28,0,-14,right,1,1,4,absent,riskyDeck,1380,18
tmg28q4kgys,13577,01/04/2022@18:23:50,"Mozilla/5.0 (Macintosh; Intel Mac OS X 10_15_7) AppleWebKit/537.36 (KHTML, like Gecko) Chrome/99.0.4844.83 Safari/537.36",1440,900,1440,702,main,975528,23,8,11,10,EM,Moderate,Easier than Reference,F,j,safeDeck,riskyDeck,-28,0,-14,right,1,1,4,absent,riskyDeck,1380,201
tmg28q4kgys,13577,01/04/2022@18:23:50,"Mozilla/5.0 (Macintosh; Intel Mac OS X 10_15_7) AppleWebKit/537.36 (KHTML, like Gecko) Chrome/99.0.4844.83 Safari/537.36",1440,900,1440,702,main,975528,23,9,11,10,EM,Moderate,Easier than Reference,F,k,safeDeck,riskyDeck,-28,0,-14,right,1,1,4,present,riskyDeck,1380,89
tmg28q4kgys,13577,01/04/2022@18:23:50,"Mozilla/5.0 (Macintosh; Intel Mac OS X 10_15_7) AppleWebKit/537.36 (KHTML, like Gecko) Chrome/99.0.4844.83 Safari/537.36",1440,900,1440,702,main,975528,24,1,11,10,HM,Moderate,Harder than Reference,D,j,safeDeck,riskyDeck,14,0,7,left,0,1,39,absent,safeDeck,1364,495
tmg28q4kgys,13577,01/04/2022@18:23:50,"Mozilla/5.0 (Macintosh; Intel Mac OS X 10_15_7) AppleWebKit/537.36 (KHTML, like Gecko) Chrome/99.0.4844.83 Safari/537.36",1440,900,1440,702,main,975528,24,2,11,10,HM,Moderate,Harder than Reference,D,k,safeDeck,riskyDeck,14,0,7,left,0,1,39,present,safeDeck,1364,233
tmg28q4kgys,13577,01/04/2022@18:23:50,"Mozilla/5.0 (Macintosh; Intel Mac OS X 10_15_7) AppleWebKit/537.36 (KHTML, like Gecko) Chrome/99.0.4844.83 Safari/537.36",1440,900,1440,702,main,975528,24,3,11,10,HM,Moderate,Harder than Reference,D,j,safeDeck,riskyDeck,14,0,7,left,0,1,39,absent,safeDeck,1364,265
tmg28q4kgys,13577,01/04/2022@18:23:50,"Mozilla/5.0 (Macintosh; Intel Mac OS X 10_15_7) AppleWebKit/537.36 (KHTML, like Gecko) Chrome/99.0.4844.83 Safari/537.36",1440,900,1440,702,main,975528,24,4,11,10,HM,Moderate,Harder than Reference,D,j,safeDeck,riskyDeck,14,0,7,left,0,1,39,absent,safeDeck,1364,239
tmg28q4kgys,13577,01/04/2022@18:23:50,"Mozilla/5.0 (Macintosh; Intel Mac OS X 10_15_7) AppleWebKit/537.36 (KHTML, like Gecko) Chrome/99.0.4844.83 Safari/537.36",1440,900,1440,702,main,975528,24,5,11,10,HM,Moderate,Harder than Reference,D,k,safeDeck,riskyDeck,14,0,7,left,0,1,39,present,safeDeck,1364,348
tmg28q4kgys,13577,01/04/2022@18:23:50,"Mozilla/5.0 (Macintosh; Intel Mac OS X 10_15_7) AppleWebKit/537.36 (KHTML, like Gecko) Chrome/99.0.4844.83 Safari/537.36",1440,900,1440,702,main,975528,24,6,11,11,HM,Moderate,Harder than Reference,D,k,safeDeck,riskyDeck,14,0,7,left,0,1,39,present,safeDeck,1364,239
tmg28q4kgys,13577,01/04/2022@18:23:50,"Mozilla/5.0 (Macintosh; Intel Mac OS X 10_15_7) AppleWebKit/537.36 (KHTML, like Gecko) Chrome/99.0.4844.83 Safari/537.36",1440,900,1440,702,main,975528,24,7,11,11,HM,Moderate,Harder than Reference,D,k,safeDeck,riskyDeck,14,0,7,left,0,1,39,present,safeDeck,1364,283
tmg28q4kgys,13577,01/04/2022@18:23:50,"Mozilla/5.0 (Macintosh; Intel Mac OS X 10_15_7) AppleWebKit/537.36 (KHTML, like Gecko) Chrome/99.0.4844.83 Safari/537.36",1440,900,1440,702,main,975528,24,8,11,11,HM,Moderate,Harder than Reference,D,j,safeDeck,riskyDeck,14,0,7,left,0,1,39,absent,safeDeck,1364,216
tmg28q4kgys,13577,01/04/2022@18:23:50,"Mozilla/5.0 (Macintosh; Intel Mac OS X 10_15_7) AppleWebKit/537.36 (KHTML, like Gecko) Chrome/99.0.4844.83 Safari/537.36",1440,900,1440,702,main,975528,24,9,11,11,HM,Moderate,Harder than Reference,D,k,safeDeck,riskyDeck,14,0,7,left,0,0,39,absent,safeDeck,1364,362
tmg28q4kgys,13577,01/04/2022@18:23:50,"Mozilla/5.0 (Macintosh; Intel Mac OS X 10_15_7) AppleWebKit/537.36 (KHTML, like Gecko) Chrome/99.0.4844.83 Safari/537.36",1440,900,1440,702,main,975528,25,1,12,11,HM,Moderate,Harder than Reference,F,k,safeDeck,riskyDeck,0,14,7,right,1,0,46,absent,riskyDeck,1374,1007
tmg28q4kgys,13577,01/04/2022@18:23:50,"Mozilla/5.0 (Macintosh; Intel Mac OS X 10_15_7) AppleWebKit/537.36 (KHTML, like Gecko) Chrome/99.0.4844.83 Safari/537.36",1440,900,1440,702,main,975528,25,2,12,11,HM,Moderate,Harder than Reference,F,k,safeDeck,riskyDeck,0,14,7,right,1,1,46,present,riskyDeck,1374,719
tmg28q4kgys,13577,01/04/2022@18:23:50,"Mozilla/5.0 (Macintosh; Intel Mac OS X 10_15_7) AppleWebKit/537.36 (KHTML, like Gecko) Chrome/99.0.4844.83 Safari/537.36",1440,900,1440,702,main,975528,25,3,12,11,HM,Moderate,Harder than Reference,F,j,safeDeck,riskyDeck,0,14,7,right,1,1,46,absent,riskyDeck,1374,287
tmg28q4kgys,13577,01/04/2022@18:23:50,"Mozilla/5.0 (Macintosh; Intel Mac OS X 10_15_7) AppleWebKit/537.36 (KHTML, like Gecko) Chrome/99.0.4844.83 Safari/537.36",1440,900,1440,702,main,975528,25,4,12,11,HM,Moderate,Harder than Reference,F,k,safeDeck,riskyDeck,0,14,7,right,1,1,46,present,riskyDeck,1374,35630
tmg28q4kgys,13577,01/04/2022@18:23:50,"Mozilla/5.0 (Macintosh; Intel Mac OS X 10_15_7) AppleWebKit/537.36 (KHTML, like Gecko) Chrome/99.0.4844.83 Safari/537.36",1440,900,1440,702,main,975528,25,5,12,11,HM,Moderate,Harder than Reference,F,j,safeDeck,riskyDeck,0,14,7,right,1,0,46,present,riskyDeck,1374,28
tmg28q4kgys,13577,01/04/2022@18:23:50,"Mozilla/5.0 (Macintosh; Intel Mac OS X 10_15_7) AppleWebKit/537.36 (KHTML, like Gecko) Chrome/99.0.4844.83 Safari/537.36",1440,900,1440,702,main,975528,25,6,12,11,HM,Moderate,Harder than Reference,F,j,safeDeck,riskyDeck,0,14,7,right,1,0,46,present,riskyDeck,1374,322
tmg28q4kgys,13577,01/04/2022@18:23:50,"Mozilla/5.0 (Macintosh; Intel Mac OS X 10_15_7) AppleWebKit/537.36 (KHTML, like Gecko) Chrome/99.0.4844.83 Safari/537.36",1440,900,1440,702,main,975528,25,7,12,11,HM,Moderate,Harder than Reference,F,j,safeDeck,riskyDeck,0,14,7,right,1,1,46,absent,riskyDeck,1374,265
tmg28q4kgys,13577,01/04/2022@18:23:50,"Mozilla/5.0 (Macintosh; Intel Mac OS X 10_15_7) AppleWebKit/537.36 (KHTML, like Gecko) Chrome/99.0.4844.83 Safari/537.36",1440,900,1440,702,main,975528,25,8,12,12,HM,Moderate,Harder than Reference,F,k,safeDeck,riskyDeck,0,14,7,right,1,1,46,present,riskyDeck,1374,160
tmg28q4kgys,13577,01/04/2022@18:23:50,"Mozilla/5.0 (Macintosh; Intel Mac OS X 10_15_7) AppleWebKit/537.36 (KHTML, like Gecko) Chrome/99.0.4844.83 Safari/537.36",1440,900,1440,702,main,975528,25,9,12,12,HM,Moderate,Harder than Reference,F,j,safeDeck,riskyDeck,0,14,7,right,1,1,46,absent,riskyDeck,1374,119
tmg28q4kgys,13577,01/04/2022@18:23:50,"Mozilla/5.0 (Macintosh; Intel Mac OS X 10_15_7) AppleWebKit/537.36 (KHTML, like Gecko) Chrome/99.0.4844.83 Safari/537.36",1440,900,1440,702,main,975528,26,1,12,12,EE,Extreme,Easier than Reference,D,k,riskyDeck,safeDeck,-14,0,-7,left,1,0,32,absent,riskyDeck,1995,1016
tmg28q4kgys,13577,01/04/2022@18:23:50,"Mozilla/5.0 (Macintosh; Intel Mac OS X 10_15_7) AppleWebKit/537.36 (KHTML, like Gecko) Chrome/99.0.4844.83 Safari/537.36",1440,900,1440,702,main,975528,26,2,12,12,EE,Extreme,Easier than Reference,D,j,riskyDeck,safeDeck,-14,0,-7,left,1,0,32,present,riskyDeck,1995,677
tmg28q4kgys,13577,01/04/2022@18:23:50,"Mozilla/5.0 (Macintosh; Intel Mac OS X 10_15_7) AppleWebKit/537.36 (KHTML, like Gecko) Chrome/99.0.4844.83 Safari/537.36",1440,900,1440,702,main,975528,26,3,12,12,EE,Extreme,Easier than Reference,D,j,riskyDeck,safeDeck,-14,0,-7,left,1,0,32,present,riskyDeck,1995,370
tmg28q4kgys,13577,01/04/2022@18:23:50,"Mozilla/5.0 (Macintosh; Intel Mac OS X 10_15_7) AppleWebKit/537.36 (KHTML, like Gecko) Chrome/99.0.4844.83 Safari/537.36",1440,900,1440,702,main,975528,26,4,12,12,EE,Extreme,Easier than Reference,D,j,riskyDeck,safeDeck,-14,0,-7,left,1,0,32,present,riskyDeck,1995,318
tmg28q4kgys,13577,01/04/2022@18:23:50,"Mozilla/5.0 (Macintosh; Intel Mac OS X 10_15_7) AppleWebKit/537.36 (KHTML, like Gecko) Chrome/99.0.4844.83 Safari/537.36",1440,900,1440,702,main,975528,26,5,13,12,EE,Extreme,Easier than Reference,D,j,riskyDeck,safeDeck,-14,0,-7,left,1,0,32,present,riskyDeck,1995,330
tmg28q4kgys,13577,01/04/2022@18:23:50,"Mozilla/5.0 (Macintosh; Intel Mac OS X 10_15_7) AppleWebKit/537.36 (KHTML, like Gecko) Chrome/99.0.4844.83 Safari/537.36",1440,900,1440,702,main,975528,26,6,13,12,EE,Extreme,Easier than Reference,D,j,riskyDeck,safeDeck,-14,0,-7,left,1,1,32,absent,riskyDeck,1995,306
tmg28q4kgys,13577,01/04/2022@18:23:50,"Mozilla/5.0 (Macintosh; Intel Mac OS X 10_15_7) AppleWebKit/537.36 (KHTML, like Gecko) Chrome/99.0.4844.83 Safari/537.36",1440,900,1440,702,main,975528,26,7,13,12,EE,Extreme,Easier than Reference,D,k,riskyDeck,safeDeck,-14,0,-7,left,1,0,32,absent,riskyDeck,1995,310
tmg28q4kgys,13577,01/04/2022@18:23:50,"Mozilla/5.0 (Macintosh; Intel Mac OS X 10_15_7) AppleWebKit/537.36 (KHTML, like Gecko) Chrome/99.0.4844.83 Safari/537.36",1440,900,1440,702,main,975528,26,8,13,12,EE,Extreme,Easier than Reference,D,j,riskyDeck,safeDeck,-14,0,-7,left,1,1,32,absent,riskyDeck,1995,428
tmg28q4kgys,13577,01/04/2022@18:23:50,"Mozilla/5.0 (Macintosh; Intel Mac OS X 10_15_7) AppleWebKit/537.36 (KHTML, like Gecko) Chrome/99.0.4844.83 Safari/537.36",1440,900,1440,702,main,975528,26,9,13,12,EE,Extreme,Easier than Reference,D,k,riskyDeck,safeDeck,-14,0,-7,left,1,0,32,absent,riskyDeck,1995,299
tmg28q4kgys,13577,01/04/2022@18:23:50,"Mozilla/5.0 (Macintosh; Intel Mac OS X 10_15_7) AppleWebKit/537.36 (KHTML, like Gecko) Chrome/99.0.4844.83 Safari/537.36",1440,900,1440,702,main,975528,27,1,13,12,EM,Moderate,Easier than Reference,D,k,riskyDeck,safeDeck,-28,0,-14,left,1,1,4,present,riskyDeck,908,867
tmg28q4kgys,13577,01/04/2022@18:23:50,"Mozilla/5.0 (Macintosh; Intel Mac OS X 10_15_7) AppleWebKit/537.36 (KHTML, like Gecko) Chrome/99.0.4844.83 Safari/537.36",1440,900,1440,702,main,975528,27,2,13,12,EM,Moderate,Easier than Reference,D,j,riskyDeck,safeDeck,-28,0,-14,left,1,0,4,present,riskyDeck,908,281
tmg28q4kgys,13577,01/04/2022@18:23:50,"Mozilla/5.0 (Macintosh; Intel Mac OS X 10_15_7) AppleWebKit/537.36 (KHTML, like Gecko) Chrome/99.0.4844.83 Safari/537.36",1440,900,1440,702,main,975528,27,3,13,12,EM,Moderate,Easier than Reference,D,j,riskyDeck,safeDeck,-28,0,-14,left,1,1,4,absent,riskyDeck,908,421
tmg28q4kgys,13577,01/04/2022@18:23:50,"Mozilla/5.0 (Macintosh; Intel Mac OS X 10_15_7) AppleWebKit/537.36 (KHTML, like Gecko) Chrome/99.0.4844.83 Safari/537.36",1440,900,1440,702,main,975528,27,4,13,12,EM,Moderate,Easier than Reference,D,k,riskyDeck,safeDeck,-28,0,-14,left,1,1,4,present,riskyDeck,908,181
tmg28q4kgys,13577,01/04/2022@18:23:50,"Mozilla/5.0 (Macintosh; Intel Mac OS X 10_15_7) AppleWebKit/537.36 (KHTML, like Gecko) Chrome/99.0.4844.83 Safari/537.36",1440,900,1440,702,main,975528,27,5,13,12,EM,Moderate,Easier than Reference,D,j,riskyDeck,safeDeck,-28,0,-14,left,1,1,4,absent,riskyDeck,908,2
tmg28q4kgys,13577,01/04/2022@18:23:50,"Mozilla/5.0 (Macintosh; Intel Mac OS X 10_15_7) AppleWebKit/537.36 (KHTML, like Gecko) Chrome/99.0.4844.83 Safari/537.36",1440,900,1440,702,main,975528,27,6,13,12,EM,Moderate,Easier than Reference,D,k,riskyDeck,safeDeck,-28,0,-14,left,1,1,4,present,riskyDeck,908,244
tmg28q4kgys,13577,01/04/2022@18:23:50,"Mozilla/5.0 (Macintosh; Intel Mac OS X 10_15_7) AppleWebKit/537.36 (KHTML, like Gecko) Chrome/99.0.4844.83 Safari/537.36",1440,900,1440,702,main,975528,27,7,13,12,EM,Moderate,Easier than Reference,D,j,riskyDeck,safeDeck,-28,0,-14,left,1,1,4,absent,riskyDeck,908,528
tmg28q4kgys,13577,01/04/2022@18:23:50,"Mozilla/5.0 (Macintosh; Intel Mac OS X 10_15_7) AppleWebKit/537.36 (KHTML, like Gecko) Chrome/99.0.4844.83 Safari/537.36",1440,900,1440,702,main,975528,27,8,13,12,EM,Moderate,Easier than Reference,D,k,riskyDeck,safeDeck,-28,0,-14,left,1,0,4,absent,riskyDeck,908,259
tmg28q4kgys,13577,01/04/2022@18:23:50,"Mozilla/5.0 (Macintosh; Intel Mac OS X 10_15_7) AppleWebKit/537.36 (KHTML, like Gecko) Chrome/99.0.4844.83 Safari/537.36",1440,900,1440,702,main,975528,27,9,13,12,EM,Moderate,Easier than Reference,D,k,riskyDeck,safeDeck,-28,0,-14,left,1,0,4,absent,riskyDeck,908,333
tmg28q4kgys,13577,01/04/2022@18:23:50,"Mozilla/5.0 (Macintosh; Intel Mac OS X 10_15_7) AppleWebKit/537.36 (KHTML, like Gecko) Chrome/99.0.4844.83 Safari/537.36",1440,900,1440,702,main,975528,28,1,13,12,HE,Extreme,Harder than Reference,F,k,riskyDeck,safeDeck,0,28,14,right,0,0,46,absent,safeDeck,945,487
tmg28q4kgys,13577,01/04/2022@18:23:50,"Mozilla/5.0 (Macintosh; Intel Mac OS X 10_15_7) AppleWebKit/537.36 (KHTML, like Gecko) Chrome/99.0.4844.83 Safari/537.36",1440,900,1440,702,main,975528,28,2,13,12,HE,Extreme,Harder than Reference,F,j,riskyDeck,safeDeck,0,28,14,right,0,0,46,present,safeDeck,945,361
tmg28q4kgys,13577,01/04/2022@18:23:50,"Mozilla/5.0 (Macintosh; Intel Mac OS X 10_15_7) AppleWebKit/537.36 (KHTML, like Gecko) Chrome/99.0.4844.83 Safari/537.36",1440,900,1440,702,main,975528,28,3,13,12,HE,Extreme,Harder than Reference,F,k,riskyDeck,safeDeck,0,28,14,right,0,1,46,present,safeDeck,945,328
tmg28q4kgys,13577,01/04/2022@18:23:50,"Mozilla/5.0 (Macintosh; Intel Mac OS X 10_15_7) AppleWebKit/537.36 (KHTML, like Gecko) Chrome/99.0.4844.83 Safari/537.36",1440,900,1440,702,main,975528,28,4,13,12,HE,Extreme,Harder than Reference,F,j,riskyDeck,safeDeck,0,28,14,right,0,0,46,present,safeDeck,945,275
tmg28q4kgys,13577,01/04/2022@18:23:50,"Mozilla/5.0 (Macintosh; Intel Mac OS X 10_15_7) AppleWebKit/537.36 (KHTML, like Gecko) Chrome/99.0.4844.83 Safari/537.36",1440,900,1440,702,main,975528,28,5,13,12,HE,Extreme,Harder than Reference,F,k,riskyDeck,safeDeck,0,28,14,right,0,1,46,present,safeDeck,945,377
tmg28q4kgys,13577,01/04/2022@18:23:50,"Mozilla/5.0 (Macintosh; Intel Mac OS X 10_15_7) AppleWebKit/537.36 (KHTML, like Gecko) Chrome/99.0.4844.83 Safari/537.36",1440,900,1440,702,main,975528,28,6,13,12,HE,Extreme,Harder than Reference,F,j,riskyDeck,safeDeck,0,28,14,right,0,1,46,absent,safeDeck,945,340
tmg28q4kgys,13577,01/04/2022@18:23:50,"Mozilla/5.0 (Macintosh; Intel Mac OS X 10_15_7) AppleWebKit/537.36 (KHTML, like Gecko) Chrome/99.0.4844.83 Safari/537.36",1440,900,1440,702,main,975528,28,7,13,12,HE,Extreme,Harder than Reference,F,k,riskyDeck,safeDeck,0,28,14,right,0,1,46,present,safeDeck,945,126
tmg28q4kgys,13577,01/04/2022@18:23:50,"Mozilla/5.0 (Macintosh; Intel Mac OS X 10_15_7) AppleWebKit/537.36 (KHTML, like Gecko) Chrome/99.0.4844.83 Safari/537.36",1440,900,1440,702,main,975528,28,8,13,12,HE,Extreme,Harder than Reference,F,j,riskyDeck,safeDeck,0,28,14,right,0,0,46,present,safeDeck,945,308
tmg28q4kgys,13577,01/04/2022@18:23:50,"Mozilla/5.0 (Macintosh; Intel Mac OS X 10_15_7) AppleWebKit/537.36 (KHTML, like Gecko) Chrome/99.0.4844.83 Safari/537.36",1440,900,1440,702,main,975528,28,9,13,12,HE,Extreme,Harder than Reference,F,j,riskyDeck,safeDeck,0,28,14,right,0,0,46,present,safeDeck,945,905
tmg28q4kgys,13577,01/04/2022@18:23:50,"Mozilla/5.0 (Macintosh; Intel Mac OS X 10_15_7) AppleWebKit/537.36 (KHTML, like Gecko) Chrome/99.0.4844.83 Safari/537.36",1440,900,1440,702,main,975528,29,1,13,13,EM,Moderate,Easier than Reference,F,k,safeDeck,riskyDeck,0,-28,-14,right,1,0,32,absent,riskyDeck,12738,411
tmg28q4kgys,13577,01/04/2022@18:23:50,"Mozilla/5.0 (Macintosh; Intel Mac OS X 10_15_7) AppleWebKit/537.36 (KHTML, like Gecko) Chrome/99.0.4844.83 Safari/537.36",1440,900,1440,702,main,975528,29,2,13,13,EM,Moderate,Easier than Reference,F,j,safeDeck,riskyDeck,0,-28,-14,right,1,1,32,absent,riskyDeck,12738,426
tmg28q4kgys,13577,01/04/2022@18:23:50,"Mozilla/5.0 (Macintosh; Intel Mac OS X 10_15_7) AppleWebKit/537.36 (KHTML, like Gecko) Chrome/99.0.4844.83 Safari/537.36",1440,900,1440,702,main,975528,29,3,14,13,EM,Moderate,Easier than Reference,F,k,safeDeck,riskyDeck,0,-28,-14,right,1,1,32,present,riskyDeck,12738,380
tmg28q4kgys,13577,01/04/2022@18:23:50,"Mozilla/5.0 (Macintosh; Intel Mac OS X 10_15_7) AppleWebKit/537.36 (KHTML, like Gecko) Chrome/99.0.4844.83 Safari/537.36",1440,900,1440,702,main,975528,29,4,14,13,EM,Moderate,Easier than Reference,F,k,safeDeck,riskyDeck,0,-28,-14,right,1,0,32,absent,riskyDeck,12738,426
tmg28q4kgys,13577,01/04/2022@18:23:50,"Mozilla/5.0 (Macintosh; Intel Mac OS X 10_15_7) AppleWebKit/537.36 (KHTML, like Gecko) Chrome/99.0.4844.83 Safari/537.36",1440,900,1440,702,main,975528,29,5,14,13,EM,Moderate,Easier than Reference,F,j,safeDeck,riskyDeck,0,-28,-14,right,1,0,32,present,riskyDeck,12738,474
tmg28q4kgys,13577,01/04/2022@18:23:50,"Mozilla/5.0 (Macintosh; Intel Mac OS X 10_15_7) AppleWebKit/537.36 (KHTML, like Gecko) Chrome/99.0.4844.83 Safari/537.36",1440,900,1440,702,main,975528,29,6,14,13,EM,Moderate,Easier than Reference,F,k,safeDeck,riskyDeck,0,-28,-14,right,1,1,32,present,riskyDeck,12738,436
tmg28q4kgys,13577,01/04/2022@18:23:50,"Mozilla/5.0 (Macintosh; Intel Mac OS X 10_15_7) AppleWebKit/537.36 (KHTML, like Gecko) Chrome/99.0.4844.83 Safari/537.36",1440,900,1440,702,main,975528,29,7,14,13,EM,Moderate,Easier than Reference,F,j,safeDeck,riskyDeck,0,-28,-14,right,1,0,32,present,riskyDeck,12738,374
tmg28q4kgys,13577,01/04/2022@18:23:50,"Mozilla/5.0 (Macintosh; Intel Mac OS X 10_15_7) AppleWebKit/537.36 (KHTML, like Gecko) Chrome/99.0.4844.83 Safari/537.36",1440,900,1440,702,main,975528,29,8,14,13,EM,Moderate,Easier than Reference,F,k,safeDeck,riskyDeck,0,-28,-14,right,1,1,32,present,riskyDeck,12738,481
tmg28q4kgys,13577,01/04/2022@18:23:50,"Mozilla/5.0 (Macintosh; Intel Mac OS X 10_15_7) AppleWebKit/537.36 (KHTML, like Gecko) Chrome/99.0.4844.83 Safari/537.36",1440,900,1440,702,main,975528,29,9,14,13,EM,Moderate,Easier than Reference,F,j,safeDeck,riskyDeck,0,-28,-14,right,1,1,32,absent,riskyDeck,12738,311
tmg28q4kgys,13577,01/04/2022@18:23:50,"Mozilla/5.0 (Macintosh; Intel Mac OS X 10_15_7) AppleWebKit/537.36 (KHTML, like Gecko) Chrome/99.0.4844.83 Safari/537.36",1440,900,1440,702,main,975528,30,1,14,13,HE,Extreme,Harder than Reference,F,k,safeDeck,riskyDeck,0,28,14,right,1,0,32,absent,riskyDeck,946,276
tmg28q4kgys,13577,01/04/2022@18:23:50,"Mozilla/5.0 (Macintosh; Intel Mac OS X 10_15_7) AppleWebKit/537.36 (KHTML, like Gecko) Chrome/99.0.4844.83 Safari/537.36",1440,900,1440,702,main,975528,30,2,14,13,HE,Extreme,Harder than Reference,F,j,safeDeck,riskyDeck,0,28,14,right,1,1,32,absent,riskyDeck,946,314
tmg28q4kgys,13577,01/04/2022@18:23:50,"Mozilla/5.0 (Macintosh; Intel Mac OS X 10_15_7) AppleWebKit/537.36 (KHTML, like Gecko) Chrome/99.0.4844.83 Safari/537.36",1440,900,1440,702,main,975528,30,3,14,13,HE,Extreme,Harder than Reference,F,k,safeDeck,riskyDeck,0,28,14,right,1,0,32,absent,riskyDeck,946,302
tmg28q4kgys,13577,01/04/2022@18:23:50,"Mozilla/5.0 (Macintosh; Intel Mac OS X 10_15_7) AppleWebKit/537.36 (KHTML, like Gecko) Chrome/99.0.4844.83 Safari/537.36",1440,900,1440,702,main,975528,30,4,14,13,HE,Extreme,Harder than Reference,F,k,safeDeck,riskyDeck,0,28,14,right,1,0,32,absent,riskyDeck,946,276
tmg28q4kgys,13577,01/04/2022@18:23:50,"Mozilla/5.0 (Macintosh; Intel Mac OS X 10_15_7) AppleWebKit/537.36 (KHTML, like Gecko) Chrome/99.0.4844.83 Safari/537.36",1440,900,1440,702,main,975528,30,5,14,13,HE,Extreme,Harder than Reference,F,k,safeDeck,riskyDeck,0,28,14,right,1,1,32,present,riskyDeck,946,449
tmg28q4kgys,13577,01/04/2022@18:23:50,"Mozilla/5.0 (Macintosh; Intel Mac OS X 10_15_7) AppleWebKit/537.36 (KHTML, like Gecko) Chrome/99.0.4844.83 Safari/537.36",1440,900,1440,702,main,975528,30,6,14,13,HE,Extreme,Harder than Reference,F,j,safeDeck,riskyDeck,0,28,14,right,1,1,32,absent,riskyDeck,946,348
tmg28q4kgys,13577,01/04/2022@18:23:50,"Mozilla/5.0 (Macintosh; Intel Mac OS X 10_15_7) AppleWebKit/537.36 (KHTML, like Gecko) Chrome/99.0.4844.83 Safari/537.36",1440,900,1440,702,main,975528,30,7,14,13,HE,Extreme,Harder than Reference,F,k,safeDeck,riskyDeck,0,28,14,right,1,1,32,present,riskyDeck,946,102
tmg28q4kgys,13577,01/04/2022@18:23:50,"Mozilla/5.0 (Macintosh; Intel Mac OS X 10_15_7) AppleWebKit/537.36 (KHTML, like Gecko) Chrome/99.0.4844.83 Safari/537.36",1440,900,1440,702,main,975528,30,8,14,13,HE,Extreme,Harder than Reference,F,j,safeDeck,riskyDeck,0,28,14,right,1,1,32,absent,riskyDeck,946,270
tmg28q4kgys,13577,01/04/2022@18:23:50,"Mozilla/5.0 (Macintosh; Intel Mac OS X 10_15_7) AppleWebKit/537.36 (KHTML, like Gecko) Chrome/99.0.4844.83 Safari/537.36",1440,900,1440,702,main,975528,30,9,14,13,HE,Extreme,Harder than Reference,F,k,safeDeck,riskyDeck,0,28,14,right,1,1,32,present,riskyDeck,946,248
tmg28q4kgys,13577,01/04/2022@18:23:50,"Mozilla/5.0 (Macintosh; Intel Mac OS X 10_15_7) AppleWebKit/537.36 (KHTML, like Gecko) Chrome/99.0.4844.83 Safari/537.36",1440,900,1440,702,main,975528,31,1,14,13,HM,Moderate,Harder than Reference,D,k,safeDeck,riskyDeck,14,0,7,left,0,1,39,present,safeDeck,2434,606
tmg28q4kgys,13577,01/04/2022@18:23:50,"Mozilla/5.0 (Macintosh; Intel Mac OS X 10_15_7) AppleWebKit/537.36 (KHTML, like Gecko) Chrome/99.0.4844.83 Safari/537.36",1440,900,1440,702,main,975528,31,2,14,13,HM,Moderate,Harder than Reference,D,k,safeDeck,riskyDeck,14,0,7,left,0,0,39,absent,safeDeck,2434,306
tmg28q4kgys,13577,01/04/2022@18:23:50,"Mozilla/5.0 (Macintosh; Intel Mac OS X 10_15_7) AppleWebKit/537.36 (KHTML, like Gecko) Chrome/99.0.4844.83 Safari/537.36",1440,900,1440,702,main,975528,31,3,14,13,HM,Moderate,Harder than Reference,D,k,safeDeck,riskyDeck,14,0,7,left,0,0,39,absent,safeDeck,2434,342
tmg28q4kgys,13577,01/04/2022@18:23:50,"Mozilla/5.0 (Macintosh; Intel Mac OS X 10_15_7) AppleWebKit/537.36 (KHTML, like Gecko) Chrome/99.0.4844.83 Safari/537.36",1440,900,1440,702,main,975528,31,4,14,13,HM,Moderate,Harder than Reference,D,j,safeDeck,riskyDeck,14,0,7,left,0,0,39,present,safeDeck,2434,319
tmg28q4kgys,13577,01/04/2022@18:23:50,"Mozilla/5.0 (Macintosh; Intel Mac OS X 10_15_7) AppleWebKit/537.36 (KHTML, like Gecko) Chrome/99.0.4844.83 Safari/537.36",1440,900,1440,702,main,975528,31,5,14,13,HM,Moderate,Harder than Reference,D,k,safeDeck,riskyDeck,14,0,7,left,0,1,39,present,safeDeck,2434,446
tmg28q4kgys,13577,01/04/2022@18:23:50,"Mozilla/5.0 (Macintosh; Intel Mac OS X 10_15_7) AppleWebKit/537.36 (KHTML, like Gecko) Chrome/99.0.4844.83 Safari/537.36",1440,900,1440,702,main,975528,31,6,14,14,HM,Moderate,Harder than Reference,D,k,safeDeck,riskyDeck,14,0,7,left,0,1,39,present,safeDeck,2434,298
tmg28q4kgys,13577,01/04/2022@18:23:50,"Mozilla/5.0 (Macintosh; Intel Mac OS X 10_15_7) AppleWebKit/537.36 (KHTML, like Gecko) Chrome/99.0.4844.83 Safari/537.36",1440,900,1440,702,main,975528,31,7,14,14,HM,Moderate,Harder than Reference,D,j,safeDeck,riskyDeck,14,0,7,left,0,0,39,present,safeDeck,2434,262
tmg28q4kgys,13577,01/04/2022@18:23:50,"Mozilla/5.0 (Macintosh; Intel Mac OS X 10_15_7) AppleWebKit/537.36 (KHTML, like Gecko) Chrome/99.0.4844.83 Safari/537.36",1440,900,1440,702,main,975528,31,8,14,14,HM,Moderate,Harder than Reference,D,j,safeDeck,riskyDeck,14,0,7,left,0,1,39,absent,safeDeck,2434,294
tmg28q4kgys,13577,01/04/2022@18:23:50,"Mozilla/5.0 (Macintosh; Intel Mac OS X 10_15_7) AppleWebKit/537.36 (KHTML, like Gecko) Chrome/99.0.4844.83 Safari/537.36",1440,900,1440,702,main,975528,31,9,14,14,HM,Moderate,Harder than Reference,D,k,safeDeck,riskyDeck,14,0,7,left,0,1,39,present,safeDeck,2434,329
tmg28q4kgys,13577,01/04/2022@18:23:50,"Mozilla/5.0 (Macintosh; Intel Mac OS X 10_15_7) AppleWebKit/537.36 (KHTML, like Gecko) Chrome/99.0.4844.83 Safari/537.36",1440,900,1440,702,main,975528,32,1,14,14,EE,Extreme,Easier than Reference,F,k,safeDeck,riskyDeck,0,-14,-7,right,1,0,18,absent,riskyDeck,749,317
tmg28q4kgys,13577,01/04/2022@18:23:50,"Mozilla/5.0 (Macintosh; Intel Mac OS X 10_15_7) AppleWebKit/537.36 (KHTML, like Gecko) Chrome/99.0.4844.83 Safari/537.36",1440,900,1440,702,main,975528,32,2,14,14,EE,Extreme,Easier than Reference,F,k,safeDeck,riskyDeck,0,-14,-7,right,1,0,18,absent,riskyDeck,749,241
tmg28q4kgys,13577,01/04/2022@18:23:50,"Mozilla/5.0 (Macintosh; Intel Mac OS X 10_15_7) AppleWebKit/537.36 (KHTML, like Gecko) Chrome/99.0.4844.83 Safari/537.36",1440,900,1440,702,main,975528,32,3,15,14,EE,Extreme,Easier than Reference,F,k,safeDeck,riskyDeck,0,-14,-7,right,1,1,18,present,riskyDeck,749,243
tmg28q4kgys,13577,01/04/2022@18:23:50,"Mozilla/5.0 (Macintosh; Intel Mac OS X 10_15_7) AppleWebKit/537.36 (KHTML, like Gecko) Chrome/99.0.4844.83 Safari/537.36",1440,900,1440,702,main,975528,32,4,15,14,EE,Extreme,Easier than Reference,F,j,safeDeck,riskyDeck,0,-14,-7,right,1,1,18,absent,riskyDeck,749,384
tmg28q4kgys,13577,01/04/2022@18:23:50,"Mozilla/5.0 (Macintosh; Intel Mac OS X 10_15_7) AppleWebKit/537.36 (KHTML, like Gecko) Chrome/99.0.4844.83 Safari/537.36",1440,900,1440,702,main,975528,32,5,15,14,EE,Extreme,Easier than Reference,F,k,safeDeck,riskyDeck,0,-14,-7,right,1,1,18,present,riskyDeck,749,304
tmg28q4kgys,13577,01/04/2022@18:23:50,"Mozilla/5.0 (Macintosh; Intel Mac OS X 10_15_7) AppleWebKit/537.36 (KHTML, like Gecko) Chrome/99.0.4844.83 Safari/537.36",1440,900,1440,702,main,975528,32,6,15,14,EE,Extreme,Easier than Reference,F,j,safeDeck,riskyDeck,0,-14,-7,right,1,1,18,absent,riskyDeck,749,214
tmg28q4kgys,13577,01/04/2022@18:23:50,"Mozilla/5.0 (Macintosh; Intel Mac OS X 10_15_7) AppleWebKit/537.36 (KHTML, like Gecko) Chrome/99.0.4844.83 Safari/537.36",1440,900,1440,702,main,975528,32,7,15,14,EE,Extreme,Easier than Reference,F,k,safeDeck,riskyDeck,0,-14,-7,right,1,1,18,present,riskyDeck,749,335
tmg28q4kgys,13577,01/04/2022@18:23:50,"Mozilla/5.0 (Macintosh; Intel Mac OS X 10_15_7) AppleWebKit/537.36 (KHTML, like Gecko) Chrome/99.0.4844.83 Safari/537.36",1440,900,1440,702,main,975528,32,8,15,14,EE,Extreme,Easier than Reference,F,j,safeDeck,riskyDeck,0,-14,-7,right,1,1,18,absent,riskyDeck,749,287
tmg28q4kgys,13577,01/04/2022@18:23:50,"Mozilla/5.0 (Macintosh; Intel Mac OS X 10_15_7) AppleWebKit/537.36 (KHTML, like Gecko) Chrome/99.0.4844.83 Safari/537.36",1440,900,1440,702,main,975528,32,9,15,14,EE,Extreme,Easier than Reference,F,j,safeDeck,riskyDeck,0,-14,-7,right,1,0,18,present,riskyDeck,749,226
tmg28q4kgys,13577,01/04/2022@18:23:50,"Mozilla/5.0 (Macintosh; Intel Mac OS X 10_15_7) AppleWebKit/537.36 (KHTML, like Gecko) Chrome/99.0.4844.83 Safari/537.36",1440,900,1440,702,main,975528,33,1,15,14,HE,Extreme,Harder than Reference,F,k,riskyDeck,safeDeck,28,0,14,right,0,0,46,absent,safeDeck,766,258
tmg28q4kgys,13577,01/04/2022@18:23:50,"Mozilla/5.0 (Macintosh; Intel Mac OS X 10_15_7) AppleWebKit/537.36 (KHTML, like Gecko) Chrome/99.0.4844.83 Safari/537.36",1440,900,1440,702,main,975528,33,2,15,14,HE,Extreme,Harder than Reference,F,j,riskyDeck,safeDeck,28,0,14,right,0,0,46,present,safeDeck,766,594
tmg28q4kgys,13577,01/04/2022@18:23:50,"Mozilla/5.0 (Macintosh; Intel Mac OS X 10_15_7) AppleWebKit/537.36 (KHTML, like Gecko) Chrome/99.0.4844.83 Safari/537.36",1440,900,1440,702,main,975528,33,3,15,14,HE,Extreme,Harder than Reference,F,j,riskyDeck,safeDeck,28,0,14,right,0,0,46,present,safeDeck,766,324
tmg28q4kgys,13577,01/04/2022@18:23:50,"Mozilla/5.0 (Macintosh; Intel Mac OS X 10_15_7) AppleWebKit/537.36 (KHTML, like Gecko) Chrome/99.0.4844.83 Safari/537.36",1440,900,1440,702,main,975528,33,4,15,14,HE,Extreme,Harder than Reference,F,k,riskyDeck,safeDeck,28,0,14,right,0,0,46,absent,safeDeck,766,445
tmg28q4kgys,13577,01/04/2022@18:23:50,"Mozilla/5.0 (Macintosh; Intel Mac OS X 10_15_7) AppleWebKit/537.36 (KHTML, like Gecko) Chrome/99.0.4844.83 Safari/537.36",1440,900,1440,702,main,975528,33,5,15,14,HE,Extreme,Harder than Reference,F,j,riskyDeck,safeDeck,28,0,14,right,0,1,46,absent,safeDeck,766,341
tmg28q4kgys,13577,01/04/2022@18:23:50,"Mozilla/5.0 (Macintosh; Intel Mac OS X 10_15_7) AppleWebKit/537.36 (KHTML, like Gecko) Chrome/99.0.4844.83 Safari/537.36",1440,900,1440,702,main,975528,33,6,15,14,HE,Extreme,Harder than Reference,F,k,riskyDeck,safeDeck,28,0,14,right,0,0,46,absent,safeDeck,766,276
tmg28q4kgys,13577,01/04/2022@18:23:50,"Mozilla/5.0 (Macintosh; Intel Mac OS X 10_15_7) AppleWebKit/537.36 (KHTML, like Gecko) Chrome/99.0.4844.83 Safari/537.36",1440,900,1440,702,main,975528,33,7,15,14,HE,Extreme,Harder than Reference,F,j,riskyDeck,safeDeck,28,0,14,right,0,0,46,present,safeDeck,766,369
tmg28q4kgys,13577,01/04/2022@18:23:50,"Mozilla/5.0 (Macintosh; Intel Mac OS X 10_15_7) AppleWebKit/537.36 (KHTML, like Gecko) Chrome/99.0.4844.83 Safari/537.36",1440,900,1440,702,main,975528,33,8,15,14,HE,Extreme,Harder than Reference,F,j,riskyDeck,safeDeck,28,0,14,right,0,0,46,present,safeDeck,766,347
tmg28q4kgys,13577,01/04/2022@18:23:50,"Mozilla/5.0 (Macintosh; Intel Mac OS X 10_15_7) AppleWebKit/537.36 (KHTML, like Gecko) Chrome/99.0.4844.83 Safari/537.36",1440,900,1440,702,main,975528,33,9,15,14,HE,Extreme,Harder than Reference,F,k,riskyDeck,safeDeck,28,0,14,right,0,0,46,absent,safeDeck,766,759
tmg28q4kgys,13577,01/04/2022@18:23:50,"Mozilla/5.0 (Macintosh; Intel Mac OS X 10_15_7) AppleWebKit/537.36 (KHTML, like Gecko) Chrome/99.0.4844.83 Safari/537.36",1440,900,1440,702,main,975528,34,1,15,14,EE,Extreme,Easier than Reference,F,k,safeDeck,riskyDeck,0,-14,-7,right,1,0,32,absent,riskyDeck,891,540
tmg28q4kgys,13577,01/04/2022@18:23:50,"Mozilla/5.0 (Macintosh; Intel Mac OS X 10_15_7) AppleWebKit/537.36 (KHTML, like Gecko) Chrome/99.0.4844.83 Safari/537.36",1440,900,1440,702,main,975528,34,2,15,14,EE,Extreme,Easier than Reference,F,j,safeDeck,riskyDeck,0,-14,-7,right,1,1,32,absent,riskyDeck,891,391
tmg28q4kgys,13577,01/04/2022@18:23:50,"Mozilla/5.0 (Macintosh; Intel Mac OS X 10_15_7) AppleWebKit/537.36 (KHTML, like Gecko) Chrome/99.0.4844.83 Safari/537.36",1440,900,1440,702,main,975528,34,3,15,14,EE,Extreme,Easier than Reference,F,j,safeDeck,riskyDeck,0,-14,-7,right,1,1,32,absent,riskyDeck,891,279
tmg28q4kgys,13577,01/04/2022@18:23:50,"Mozilla/5.0 (Macintosh; Intel Mac OS X 10_15_7) AppleWebKit/537.36 (KHTML, like Gecko) Chrome/99.0.4844.83 Safari/537.36",1440,900,1440,702,main,975528,34,4,15,14,EE,Extreme,Easier than Reference,F,k,safeDeck,riskyDeck,0,-14,-7,right,1,0,32,absent,riskyDeck,891,357
tmg28q4kgys,13577,01/04/2022@18:23:50,"Mozilla/5.0 (Macintosh; Intel Mac OS X 10_15_7) AppleWebKit/537.36 (KHTML, like Gecko) Chrome/99.0.4844.83 Safari/537.36",1440,900,1440,702,main,975528,34,5,15,14,EE,Extreme,Easier than Reference,F,k,safeDeck,riskyDeck,0,-14,-7,right,1,0,32,absent,riskyDeck,891,1138
tmg28q4kgys,13577,01/04/2022@18:23:50,"Mozilla/5.0 (Macintosh; Intel Mac OS X 10_15_7) AppleWebKit/537.36 (KHTML, like Gecko) Chrome/99.0.4844.83 Safari/537.36",1440,900,1440,702,main,975528,34,6,15,14,EE,Extreme,Easier than Reference,F,j,safeDeck,riskyDeck,0,-14,-7,right,1,0,32,present,riskyDeck,891,354
tmg28q4kgys,13577,01/04/2022@18:23:50,"Mozilla/5.0 (Macintosh; Intel Mac OS X 10_15_7) AppleWebKit/537.36 (KHTML, like Gecko) Chrome/99.0.4844.83 Safari/537.36",1440,900,1440,702,main,975528,34,7,15,14,EE,Extreme,Easier than Reference,F,j,safeDeck,riskyDeck,0,-14,-7,right,1,0,32,present,riskyDeck,891,460
tmg28q4kgys,13577,01/04/2022@18:23:50,"Mozilla/5.0 (Macintosh; Intel Mac OS X 10_15_7) AppleWebKit/537.36 (KHTML, like Gecko) Chrome/99.0.4844.83 Safari/537.36",1440,900,1440,702,main,975528,34,8,15,14,EE,Extreme,Easier than Reference,F,k,safeDeck,riskyDeck,0,-14,-7,right,1,0,32,absent,riskyDeck,891,365
tmg28q4kgys,13577,01/04/2022@18:23:50,"Mozilla/5.0 (Macintosh; Intel Mac OS X 10_15_7) AppleWebKit/537.36 (KHTML, like Gecko) Chrome/99.0.4844.83 Safari/537.36",1440,900,1440,702,main,975528,34,9,15,14,EE,Extreme,Easier than Reference,F,k,safeDeck,riskyDeck,0,-14,-7,right,1,1,32,present,riskyDeck,891,370
tmg28q4kgys,13577,01/04/2022@18:23:50,"Mozilla/5.0 (Macintosh; Intel Mac OS X 10_15_7) AppleWebKit/537.36 (KHTML, like Gecko) Chrome/99.0.4844.83 Safari/537.36",1440,900,1440,702,main,975528,35,1,15,14,EM,Moderate,Easier than Reference,F,k,riskyDeck,safeDeck,-28,0,-14,right,0,0,18,absent,safeDeck,844,269
tmg28q4kgys,13577,01/04/2022@18:23:50,"Mozilla/5.0 (Macintosh; Intel Mac OS X 10_15_7) AppleWebKit/537.36 (KHTML, like Gecko) Chrome/99.0.4844.83 Safari/537.36",1440,900,1440,702,main,975528,35,2,15,14,EM,Moderate,Easier than Reference,F,j,riskyDeck,safeDeck,-28,0,-14,right,0,0,18,present,safeDeck,844,285
tmg28q4kgys,13577,01/04/2022@18:23:50,"Mozilla/5.0 (Macintosh; Intel Mac OS X 10_15_7) AppleWebKit/537.36 (KHTML, like Gecko) Chrome/99.0.4844.83 Safari/537.36",1440,900,1440,702,main,975528,35,3,15,14,EM,Moderate,Easier than Reference,F,j,riskyDeck,safeDeck,-28,0,-14,right,0,1,18,absent,safeDeck,844,298
tmg28q4kgys,13577,01/04/2022@18:23:50,"Mozilla/5.0 (Macintosh; Intel Mac OS X 10_15_7) AppleWebKit/537.36 (KHTML, like Gecko) Chrome/99.0.4844.83 Safari/537.36",1440,900,1440,702,main,975528,35,4,15,15,EM,Moderate,Easier than Reference,F,k,riskyDeck,safeDeck,-28,0,-14,right,0,0,18,absent,safeDeck,844,312
tmg28q4kgys,13577,01/04/2022@18:23:50,"Mozilla/5.0 (Macintosh; Intel Mac OS X 10_15_7) AppleWebKit/537.36 (KHTML, like Gecko) Chrome/99.0.4844.83 Safari/537.36",1440,900,1440,702,main,975528,35,5,15,15,EM,Moderate,Easier than Reference,F,k,riskyDeck,safeDeck,-28,0,-14,right,0,1,18,present,safeDeck,844,251
tmg28q4kgys,13577,01/04/2022@18:23:50,"Mozilla/5.0 (Macintosh; Intel Mac OS X 10_15_7) AppleWebKit/537.36 (KHTML, like Gecko) Chrome/99.0.4844.83 Safari/537.36",1440,900,1440,702,main,975528,35,6,15,15,EM,Moderate,Easier than Reference,F,j,riskyDeck,safeDeck,-28,0,-14,right,0,0,18,present,safeDeck,844,168
tmg28q4kgys,13577,01/04/2022@18:23:50,"Mozilla/5.0 (Macintosh; Intel Mac OS X 10_15_7) AppleWebKit/537.36 (KHTML, like Gecko) Chrome/99.0.4844.83 Safari/537.36",1440,900,1440,702,main,975528,35,7,15,15,EM,Moderate,Easier than Reference,F,j,riskyDeck,safeDeck,-28,0,-14,right,0,1,18,absent,safeDeck,844,427
tmg28q4kgys,13577,01/04/2022@18:23:50,"Mozilla/5.0 (Macintosh; Intel Mac OS X 10_15_7) AppleWebKit/537.36 (KHTML, like Gecko) Chrome/99.0.4844.83 Safari/537.36",1440,900,1440,702,main,975528,35,8,15,15,EM,Moderate,Easier than Reference,F,k,riskyDeck,safeDeck,-28,0,-14,right,0,1,18,present,safeDeck,844,178
tmg28q4kgys,13577,01/04/2022@18:23:50,"Mozilla/5.0 (Macintosh; Intel Mac OS X 10_15_7) AppleWebKit/537.36 (KHTML, like Gecko) Chrome/99.0.4844.83 Safari/537.36",1440,900,1440,702,main,975528,35,9,15,15,EM,Moderate,Easier than Reference,F,j,riskyDeck,safeDeck,-28,0,-14,right,0,1,18,absent,safeDeck,844,552
tmg28q4kgys,13577,01/04/2022@18:23:50,"Mozilla/5.0 (Macintosh; Intel Mac OS X 10_15_7) AppleWebKit/537.36 (KHTML, like Gecko) Chrome/99.0.4844.83 Safari/537.36",1440,900,1440,702,main,975528,36,1,16,15,HM,Moderate,Harder than Reference,F,k,riskyDeck,safeDeck,14,0,7,right,0,1,39,present,safeDeck,2309,355
tmg28q4kgys,13577,01/04/2022@18:23:50,"Mozilla/5.0 (Macintosh; Intel Mac OS X 10_15_7) AppleWebKit/537.36 (KHTML, like Gecko) Chrome/99.0.4844.83 Safari/537.36",1440,900,1440,702,main,975528,36,2,16,15,HM,Moderate,Harder than Reference,F,j,riskyDeck,safeDeck,14,0,7,right,0,0,39,present,safeDeck,2309,265
tmg28q4kgys,13577,01/04/2022@18:23:50,"Mozilla/5.0 (Macintosh; Intel Mac OS X 10_15_7) AppleWebKit/537.36 (KHTML, like Gecko) Chrome/99.0.4844.83 Safari/537.36",1440,900,1440,702,main,975528,36,3,16,15,HM,Moderate,Harder than Reference,F,j,riskyDeck,safeDeck,14,0,7,right,0,1,39,absent,safeDeck,2309,317
tmg28q4kgys,13577,01/04/2022@18:23:50,"Mozilla/5.0 (Macintosh; Intel Mac OS X 10_15_7) AppleWebKit/537.36 (KHTML, like Gecko) Chrome/99.0.4844.83 Safari/537.36",1440,900,1440,702,main,975528,36,4,16,15,HM,Moderate,Harder than Reference,F,k,riskyDeck,safeDeck,14,0,7,right,0,1,39,present,safeDeck,2309,246
tmg28q4kgys,13577,01/04/2022@18:23:50,"Mozilla/5.0 (Macintosh; Intel Mac OS X 10_15_7) AppleWebKit/537.36 (KHTML, like Gecko) Chrome/99.0.4844.83 Safari/537.36",1440,900,1440,702,main,975528,36,5,16,15,HM,Moderate,Harder than Reference,F,j,riskyDeck,safeDeck,14,0,7,right,0,1,39,absent,safeDeck,2309,27
tmg28q4kgys,13577,01/04/2022@18:23:50,"Mozilla/5.0 (Macintosh; Intel Mac OS X 10_15_7) AppleWebKit/537.36 (KHTML, like Gecko) Chrome/99.0.4844.83 Safari/537.36",1440,900,1440,702,main,975528,36,6,16,15,HM,Moderate,Harder than Reference,F,j,riskyDeck,safeDeck,14,0,7,right,0,0,39,present,safeDeck,2309,386
tmg28q4kgys,13577,01/04/2022@18:23:50,"Mozilla/5.0 (Macintosh; Intel Mac OS X 10_15_7) AppleWebKit/537.36 (KHTML, like Gecko) Chrome/99.0.4844.83 Safari/537.36",1440,900,1440,702,main,975528,36,7,16,15,HM,Moderate,Harder than Reference,F,k,riskyDeck,safeDeck,14,0,7,right,0,0,39,absent,safeDeck,2309,329
tmg28q4kgys,13577,01/04/2022@18:23:50,"Mozilla/5.0 (Macintosh; Intel Mac OS X 10_15_7) AppleWebKit/537.36 (KHTML, like Gecko) Chrome/99.0.4844.83 Safari/537.36",1440,900,1440,702,main,975528,36,8,16,15,HM,Moderate,Harder than Reference,F,k,riskyDeck,safeDeck,14,0,7,right,0,1,39,present,safeDeck,2309,277
tmg28q4kgys,13577,01/04/2022@18:23:50,"Mozilla/5.0 (Macintosh; Intel Mac OS X 10_15_7) AppleWebKit/537.36 (KHTML, like Gecko) Chrome/99.0.4844.83 Safari/537.36",1440,900,1440,702,main,975528,36,9,16,15,HM,Moderate,Harder than Reference,F,j,riskyDeck,safeDeck,14,0,7,right,0,1,39,absent,safeDeck,2309,476
tmg28q4kgys,13577,01/04/2022@18:23:50,"Mozilla/5.0 (Macintosh; Intel Mac OS X 10_15_7) AppleWebKit/537.36 (KHTML, like Gecko) Chrome/99.0.4844.83 Safari/537.36",1440,900,1440,702,main,975528,37,1,16,15,EM,Moderate,Easier than Reference,F,k,safeDeck,riskyDeck,0,-28,-14,right,1,0,32,absent,riskyDeck,1293,332
tmg28q4kgys,13577,01/04/2022@18:23:50,"Mozilla/5.0 (Macintosh; Intel Mac OS X 10_15_7) AppleWebKit/537.36 (KHTML, like Gecko) Chrome/99.0.4844.83 Safari/537.36",1440,900,1440,702,main,975528,37,2,16,15,EM,Moderate,Easier than Reference,F,k,safeDeck,riskyDeck,0,-28,-14,right,1,1,32,present,riskyDeck,1293,449
tmg28q4kgys,13577,01/04/2022@18:23:50,"Mozilla/5.0 (Macintosh; Intel Mac OS X 10_15_7) AppleWebKit/537.36 (KHTML, like Gecko) Chrome/99.0.4844.83 Safari/537.36",1440,900,1440,702,main,975528,37,3,16,15,EM,Moderate,Easier than Reference,F,j,safeDeck,riskyDeck,0,-28,-14,right,1,0,32,present,riskyDeck,1293,198
