"subject","choice_rt_m","choice_rt_sd","sona_id","curTime","userAgent","screenWidth","screenHeight","windowWidth","windowHeight","phase","phase_run_time","choice_trial","search_trial","exp_runtime_mins","phase_runtime_mins","condition","magnitude","direction","choice_response_key","search_response_key","left_deck_id","right_deck_id","risky_deck_outcome_top","risky_deck_outcome_bottom","safe_deck_outcome","selected_deck_location","selectedRiskyDeck","error","n_stimuli","present_or_absent","chosenDeckId","choice_rt","search_rt","selected_deck_location_num","ssd"
"tccbf44h8j",1245.3,432.249765309396,13408,"01/04/2022@18:51:05","Mozilla/5.0 (Windows NT 10.0; Win64; x64) AppleWebKit/537.36 (KHTML, like Gecko) Chrome/99.0.4844.84 Safari/537.36",1920,1080,1920,969,"main",877810,1,1,1,0,"HM","Moderate","Harder than Reference","F","k","riskyDeck","safeDeck",14,0,7,"right",0,1,39,"present","safeDeck",1885,2284,1,1
"tccbf44h8j",1245.3,432.249765309396,13408,"01/04/2022@18:51:05","Mozilla/5.0 (Windows NT 10.0; Win64; x64) AppleWebKit/537.36 (KHTML, like Gecko) Chrome/99.0.4844.84 Safari/537.36",1920,1080,1920,969,"main",877810,1,2,1,0,"HM","Moderate","Harder than Reference","F","j","riskyDeck","safeDeck",14,0,7,"right",0,0,39,"present","safeDeck",1885,4730,1,1
"tccbf44h8j",1245.3,432.249765309396,13408,"01/04/2022@18:51:05","Mozilla/5.0 (Windows NT 10.0; Win64; x64) AppleWebKit/537.36 (KHTML, like Gecko) Chrome/99.0.4844.84 Safari/537.36",1920,1080,1920,969,"main",877810,1,3,1,0,"HM","Moderate","Harder than Reference","F","j","riskyDeck","safeDeck",14,0,7,"right",0,0,39,"present","safeDeck",1885,2662,1,1
"tccbf44h8j",1245.3,432.249765309396,13408,"01/04/2022@18:51:05","Mozilla/5.0 (Windows NT 10.0; Win64; x64) AppleWebKit/537.36 (KHTML, like Gecko) Chrome/99.0.4844.84 Safari/537.36",1920,1080,1920,969,"main",877810,1,4,1,0,"HM","Moderate","Harder than Reference","F","k","riskyDeck","safeDeck",14,0,7,"right",0,0,39,"absent","safeDeck",1885,2098,1,1
"tccbf44h8j",1245.3,432.249765309396,13408,"01/04/2022@18:51:05","Mozilla/5.0 (Windows NT 10.0; Win64; x64) AppleWebKit/537.36 (KHTML, like Gecko) Chrome/99.0.4844.84 Safari/537.36",1920,1080,1920,969,"main",877810,1,5,1,0,"HM","Moderate","Harder than Reference","F","j","riskyDeck","safeDeck",14,0,7,"right",0,0,39,"present","safeDeck",1885,1058,1,1
"tccbf44h8j",1245.3,432.249765309396,13408,"01/04/2022@18:51:05","Mozilla/5.0 (Windows NT 10.0; Win64; x64) AppleWebKit/537.36 (KHTML, like Gecko) Chrome/99.0.4844.84 Safari/537.36",1920,1080,1920,969,"main",877810,1,6,1,0,"HM","Moderate","Harder than Reference","F","k","riskyDeck","safeDeck",14,0,7,"right",0,0,39,"absent","safeDeck",1885,2164,1,1
"tccbf44h8j",1245.3,432.249765309396,13408,"01/04/2022@18:51:05","Mozilla/5.0 (Windows NT 10.0; Win64; x64) AppleWebKit/537.36 (KHTML, like Gecko) Chrome/99.0.4844.84 Safari/537.36",1920,1080,1920,969,"main",877810,1,7,1,0,"HM","Moderate","Harder than Reference","F","k","riskyDeck","safeDeck",14,0,7,"right",0,0,39,"absent","safeDeck",1885,1216,1,1
"tccbf44h8j",1245.3,432.249765309396,13408,"01/04/2022@18:51:05","Mozilla/5.0 (Windows NT 10.0; Win64; x64) AppleWebKit/537.36 (KHTML, like Gecko) Chrome/99.0.4844.84 Safari/537.36",1920,1080,1920,969,"main",877810,1,8,1,1,"HM","Moderate","Harder than Reference","F","j","riskyDeck","safeDeck",14,0,7,"right",0,0,39,"present","safeDeck",1885,1198,1,1
"tccbf44h8j",1245.3,432.249765309396,13408,"01/04/2022@18:51:05","Mozilla/5.0 (Windows NT 10.0; Win64; x64) AppleWebKit/537.36 (KHTML, like Gecko) Chrome/99.0.4844.84 Safari/537.36",1920,1080,1920,969,"main",877810,1,9,1,1,"HM","Moderate","Harder than Reference","F","k","riskyDeck","safeDeck",14,0,7,"right",0,0,39,"absent","safeDeck",1885,2123,1,1
"tccbf44h8j",1245.3,432.249765309396,13408,"01/04/2022@18:51:05","Mozilla/5.0 (Windows NT 10.0; Win64; x64) AppleWebKit/537.36 (KHTML, like Gecko) Chrome/99.0.4844.84 Safari/537.36",1920,1080,1920,969,"main",877810,2,1,2,1,"EM","Moderate","Easier than Reference","D","j","safeDeck","riskyDeck",-28,0,-14,"left",0,0,18,"present","safeDeck",1695,793,-1,1
"tccbf44h8j",1245.3,432.249765309396,13408,"01/04/2022@18:51:05","Mozilla/5.0 (Windows NT 10.0; Win64; x64) AppleWebKit/537.36 (KHTML, like Gecko) Chrome/99.0.4844.84 Safari/537.36",1920,1080,1920,969,"main",877810,2,2,2,1,"EM","Moderate","Easier than Reference","D","j","safeDeck","riskyDeck",-28,0,-14,"left",0,0,18,"present","safeDeck",1695,811,-1,1
"tccbf44h8j",1245.3,432.249765309396,13408,"01/04/2022@18:51:05","Mozilla/5.0 (Windows NT 10.0; Win64; x64) AppleWebKit/537.36 (KHTML, like Gecko) Chrome/99.0.4844.84 Safari/537.36",1920,1080,1920,969,"main",877810,2,3,2,1,"EM","Moderate","Easier than Reference","D","j","safeDeck","riskyDeck",-28,0,-14,"left",0,0,18,"present","safeDeck",1695,453,-1,1
"tccbf44h8j",1245.3,432.249765309396,13408,"01/04/2022@18:51:05","Mozilla/5.0 (Windows NT 10.0; Win64; x64) AppleWebKit/537.36 (KHTML, like Gecko) Chrome/99.0.4844.84 Safari/537.36",1920,1080,1920,969,"main",877810,2,4,2,1,"EM","Moderate","Easier than Reference","D","j","safeDeck","riskyDeck",-28,0,-14,"left",0,0,18,"present","safeDeck",1695,674,-1,1
"tccbf44h8j",1245.3,432.249765309396,13408,"01/04/2022@18:51:05","Mozilla/5.0 (Windows NT 10.0; Win64; x64) AppleWebKit/537.36 (KHTML, like Gecko) Chrome/99.0.4844.84 Safari/537.36",1920,1080,1920,969,"main",877810,2,5,2,1,"EM","Moderate","Easier than Reference","D","j","safeDeck","riskyDeck",-28,0,-14,"left",0,0,18,"present","safeDeck",1695,556,-1,1
"tccbf44h8j",1245.3,432.249765309396,13408,"01/04/2022@18:51:05","Mozilla/5.0 (Windows NT 10.0; Win64; x64) AppleWebKit/537.36 (KHTML, like Gecko) Chrome/99.0.4844.84 Safari/537.36",1920,1080,1920,969,"main",877810,2,6,2,1,"EM","Moderate","Easier than Reference","D","j","safeDeck","riskyDeck",-28,0,-14,"left",0,0,18,"present","safeDeck",1695,890,-1,1
"tccbf44h8j",1245.3,432.249765309396,13408,"01/04/2022@18:51:05","Mozilla/5.0 (Windows NT 10.0; Win64; x64) AppleWebKit/537.36 (KHTML, like Gecko) Chrome/99.0.4844.84 Safari/537.36",1920,1080,1920,969,"main",877810,2,7,2,1,"EM","Moderate","Easier than Reference","D","j","safeDeck","riskyDeck",-28,0,-14,"left",0,0,18,"present","safeDeck",1695,510,-1,1
"tccbf44h8j",1245.3,432.249765309396,13408,"01/04/2022@18:51:05","Mozilla/5.0 (Windows NT 10.0; Win64; x64) AppleWebKit/537.36 (KHTML, like Gecko) Chrome/99.0.4844.84 Safari/537.36",1920,1080,1920,969,"main",877810,2,8,2,1,"EM","Moderate","Easier than Reference","D","k","safeDeck","riskyDeck",-28,0,-14,"left",0,0,18,"absent","safeDeck",1695,884,-1,1
"tccbf44h8j",1245.3,432.249765309396,13408,"01/04/2022@18:51:05","Mozilla/5.0 (Windows NT 10.0; Win64; x64) AppleWebKit/537.36 (KHTML, like Gecko) Chrome/99.0.4844.84 Safari/537.36",1920,1080,1920,969,"main",877810,2,9,2,1,"EM","Moderate","Easier than Reference","D","k","safeDeck","riskyDeck",-28,0,-14,"left",0,0,18,"absent","safeDeck",1695,1178,-1,1
"tccbf44h8j",1245.3,432.249765309396,13408,"01/04/2022@18:51:05","Mozilla/5.0 (Windows NT 10.0; Win64; x64) AppleWebKit/537.36 (KHTML, like Gecko) Chrome/99.0.4844.84 Safari/537.36",1920,1080,1920,969,"main",877810,3,1,2,1,"HE","Extreme","Harder than Reference","D","j","riskyDeck","safeDeck",28,0,14,"left",1,0,32,"present","riskyDeck",1407,660,-1,0
"tccbf44h8j",1245.3,432.249765309396,13408,"01/04/2022@18:51:05","Mozilla/5.0 (Windows NT 10.0; Win64; x64) AppleWebKit/537.36 (KHTML, like Gecko) Chrome/99.0.4844.84 Safari/537.36",1920,1080,1920,969,"main",877810,3,2,2,1,"HE","Extreme","Harder than Reference","D","k","riskyDeck","safeDeck",28,0,14,"left",1,0,32,"absent","riskyDeck",1407,2188,-1,0
"tccbf44h8j",1245.3,432.249765309396,13408,"01/04/2022@18:51:05","Mozilla/5.0 (Windows NT 10.0; Win64; x64) AppleWebKit/537.36 (KHTML, like Gecko) Chrome/99.0.4844.84 Safari/537.36",1920,1080,1920,969,"main",877810,3,3,2,1,"HE","Extreme","Harder than Reference","D","k","riskyDeck","safeDeck",28,0,14,"left",1,1,32,"present","riskyDeck",1407,1464,-1,0
"tccbf44h8j",1245.3,432.249765309396,13408,"01/04/2022@18:51:05","Mozilla/5.0 (Windows NT 10.0; Win64; x64) AppleWebKit/537.36 (KHTML, like Gecko) Chrome/99.0.4844.84 Safari/537.36",1920,1080,1920,969,"main",877810,3,4,2,1,"HE","Extreme","Harder than Reference","D","j","riskyDeck","safeDeck",28,0,14,"left",1,0,32,"present","riskyDeck",1407,1935,-1,0
"tccbf44h8j",1245.3,432.249765309396,13408,"01/04/2022@18:51:05","Mozilla/5.0 (Windows NT 10.0; Win64; x64) AppleWebKit/537.36 (KHTML, like Gecko) Chrome/99.0.4844.84 Safari/537.36",1920,1080,1920,969,"main",877810,3,5,2,1,"HE","Extreme","Harder than Reference","D","j","riskyDeck","safeDeck",28,0,14,"left",1,0,32,"present","riskyDeck",1407,2098,-1,0
"tccbf44h8j",1245.3,432.249765309396,13408,"01/04/2022@18:51:05","Mozilla/5.0 (Windows NT 10.0; Win64; x64) AppleWebKit/537.36 (KHTML, like Gecko) Chrome/99.0.4844.84 Safari/537.36",1920,1080,1920,969,"main",877810,3,6,2,1,"HE","Extreme","Harder than Reference","D","j","riskyDeck","safeDeck",28,0,14,"left",1,0,32,"present","riskyDeck",1407,1060,-1,0
"tccbf44h8j",1245.3,432.249765309396,13408,"01/04/2022@18:51:05","Mozilla/5.0 (Windows NT 10.0; Win64; x64) AppleWebKit/537.36 (KHTML, like Gecko) Chrome/99.0.4844.84 Safari/537.36",1920,1080,1920,969,"main",877810,3,7,2,1,"HE","Extreme","Harder than Reference","D","k","riskyDeck","safeDeck",28,0,14,"left",1,0,32,"absent","riskyDeck",1407,2019,-1,0
"tccbf44h8j",1245.3,432.249765309396,13408,"01/04/2022@18:51:05","Mozilla/5.0 (Windows NT 10.0; Win64; x64) AppleWebKit/537.36 (KHTML, like Gecko) Chrome/99.0.4844.84 Safari/537.36",1920,1080,1920,969,"main",877810,3,8,2,1,"HE","Extreme","Harder than Reference","D","j","riskyDeck","safeDeck",28,0,14,"left",1,0,32,"present","riskyDeck",1407,624,-1,0
"tccbf44h8j",1245.3,432.249765309396,13408,"01/04/2022@18:51:05","Mozilla/5.0 (Windows NT 10.0; Win64; x64) AppleWebKit/537.36 (KHTML, like Gecko) Chrome/99.0.4844.84 Safari/537.36",1920,1080,1920,969,"main",877810,3,9,2,1,"HE","Extreme","Harder than Reference","D","k","riskyDeck","safeDeck",28,0,14,"left",1,0,32,"absent","riskyDeck",1407,2166,-1,0
"tccbf44h8j",1245.3,432.249765309396,13408,"01/04/2022@18:51:05","Mozilla/5.0 (Windows NT 10.0; Win64; x64) AppleWebKit/537.36 (KHTML, like Gecko) Chrome/99.0.4844.84 Safari/537.36",1920,1080,1920,969,"main",877810,4,1,2,1,"EE","Extreme","Easier than Reference","F","k","riskyDeck","safeDeck",-14,0,-7,"right",0,0,25,"absent","safeDeck",1307,1872,1,1
"tccbf44h8j",1245.3,432.249765309396,13408,"01/04/2022@18:51:05","Mozilla/5.0 (Windows NT 10.0; Win64; x64) AppleWebKit/537.36 (KHTML, like Gecko) Chrome/99.0.4844.84 Safari/537.36",1920,1080,1920,969,"main",877810,4,2,2,1,"EE","Extreme","Easier than Reference","F","j","riskyDeck","safeDeck",-14,0,-7,"right",0,0,25,"present","safeDeck",1307,1910,1,1
"tccbf44h8j",1245.3,432.249765309396,13408,"01/04/2022@18:51:05","Mozilla/5.0 (Windows NT 10.0; Win64; x64) AppleWebKit/537.36 (KHTML, like Gecko) Chrome/99.0.4844.84 Safari/537.36",1920,1080,1920,969,"main",877810,4,3,2,1,"EE","Extreme","Easier than Reference","F","j","riskyDeck","safeDeck",-14,0,-7,"right",0,0,25,"present","safeDeck",1307,1349,1,1
"tccbf44h8j",1245.3,432.249765309396,13408,"01/04/2022@18:51:05","Mozilla/5.0 (Windows NT 10.0; Win64; x64) AppleWebKit/537.36 (KHTML, like Gecko) Chrome/99.0.4844.84 Safari/537.36",1920,1080,1920,969,"main",877810,4,4,2,1,"EE","Extreme","Easier than Reference","F","k","riskyDeck","safeDeck",-14,0,-7,"right",0,0,25,"absent","safeDeck",1307,1871,1,1
"tccbf44h8j",1245.3,432.249765309396,13408,"01/04/2022@18:51:05","Mozilla/5.0 (Windows NT 10.0; Win64; x64) AppleWebKit/537.36 (KHTML, like Gecko) Chrome/99.0.4844.84 Safari/537.36",1920,1080,1920,969,"main",877810,4,5,2,1,"EE","Extreme","Easier than Reference","F","j","riskyDeck","safeDeck",-14,0,-7,"right",0,0,25,"present","safeDeck",1307,1337,1,1
"tccbf44h8j",1245.3,432.249765309396,13408,"01/04/2022@18:51:05","Mozilla/5.0 (Windows NT 10.0; Win64; x64) AppleWebKit/537.36 (KHTML, like Gecko) Chrome/99.0.4844.84 Safari/537.36",1920,1080,1920,969,"main",877810,4,6,2,1,"EE","Extreme","Easier than Reference","F","k","riskyDeck","safeDeck",-14,0,-7,"right",0,0,25,"absent","safeDeck",1307,1413,1,1
"tccbf44h8j",1245.3,432.249765309396,13408,"01/04/2022@18:51:05","Mozilla/5.0 (Windows NT 10.0; Win64; x64) AppleWebKit/537.36 (KHTML, like Gecko) Chrome/99.0.4844.84 Safari/537.36",1920,1080,1920,969,"main",877810,4,7,2,1,"EE","Extreme","Easier than Reference","F","k","riskyDeck","safeDeck",-14,0,-7,"right",0,0,25,"absent","safeDeck",1307,1633,1,1
"tccbf44h8j",1245.3,432.249765309396,13408,"01/04/2022@18:51:05","Mozilla/5.0 (Windows NT 10.0; Win64; x64) AppleWebKit/537.36 (KHTML, like Gecko) Chrome/99.0.4844.84 Safari/537.36",1920,1080,1920,969,"main",877810,4,8,2,1,"EE","Extreme","Easier than Reference","F","k","riskyDeck","safeDeck",-14,0,-7,"right",0,0,25,"absent","safeDeck",1307,1452,1,1
"tccbf44h8j",1245.3,432.249765309396,13408,"01/04/2022@18:51:05","Mozilla/5.0 (Windows NT 10.0; Win64; x64) AppleWebKit/537.36 (KHTML, like Gecko) Chrome/99.0.4844.84 Safari/537.36",1920,1080,1920,969,"main",877810,4,9,2,1,"EE","Extreme","Easier than Reference","F","j","riskyDeck","safeDeck",-14,0,-7,"right",0,0,25,"present","safeDeck",1307,1029,1,1
"tccbf44h8j",1245.3,432.249765309396,13408,"01/04/2022@18:51:05","Mozilla/5.0 (Windows NT 10.0; Win64; x64) AppleWebKit/537.36 (KHTML, like Gecko) Chrome/99.0.4844.84 Safari/537.36",1920,1080,1920,969,"main",877810,5,1,2,2,"EM","Moderate","Easier than Reference","D","j","riskyDeck","safeDeck",0,-28,-14,"left",1,0,32,"present","riskyDeck",1049,1286,-1,0
"tccbf44h8j",1245.3,432.249765309396,13408,"01/04/2022@18:51:05","Mozilla/5.0 (Windows NT 10.0; Win64; x64) AppleWebKit/537.36 (KHTML, like Gecko) Chrome/99.0.4844.84 Safari/537.36",1920,1080,1920,969,"main",877810,5,2,2,2,"EM","Moderate","Easier than Reference","D","j","riskyDeck","safeDeck",0,-28,-14,"left",1,0,32,"present","riskyDeck",1049,1020,-1,0
"tccbf44h8j",1245.3,432.249765309396,13408,"01/04/2022@18:51:05","Mozilla/5.0 (Windows NT 10.0; Win64; x64) AppleWebKit/537.36 (KHTML, like Gecko) Chrome/99.0.4844.84 Safari/537.36",1920,1080,1920,969,"main",877810,5,3,2,2,"EM","Moderate","Easier than Reference","D","j","riskyDeck","safeDeck",0,-28,-14,"left",1,0,32,"present","riskyDeck",1049,547,-1,0
"tccbf44h8j",1245.3,432.249765309396,13408,"01/04/2022@18:51:05","Mozilla/5.0 (Windows NT 10.0; Win64; x64) AppleWebKit/537.36 (KHTML, like Gecko) Chrome/99.0.4844.84 Safari/537.36",1920,1080,1920,969,"main",877810,5,4,3,2,"EM","Moderate","Easier than Reference","D","j","riskyDeck","safeDeck",0,-28,-14,"left",1,0,32,"present","riskyDeck",1049,2437,-1,0
"tccbf44h8j",1245.3,432.249765309396,13408,"01/04/2022@18:51:05","Mozilla/5.0 (Windows NT 10.0; Win64; x64) AppleWebKit/537.36 (KHTML, like Gecko) Chrome/99.0.4844.84 Safari/537.36",1920,1080,1920,969,"main",877810,5,5,3,2,"EM","Moderate","Easier than Reference","D","k","riskyDeck","safeDeck",0,-28,-14,"left",1,0,32,"absent","riskyDeck",1049,3736,-1,0
"tccbf44h8j",1245.3,432.249765309396,13408,"01/04/2022@18:51:05","Mozilla/5.0 (Windows NT 10.0; Win64; x64) AppleWebKit/537.36 (KHTML, like Gecko) Chrome/99.0.4844.84 Safari/537.36",1920,1080,1920,969,"main",877810,5,6,3,2,"EM","Moderate","Easier than Reference","D","k","riskyDeck","safeDeck",0,-28,-14,"left",1,0,32,"absent","riskyDeck",1049,4290,-1,0
"tccbf44h8j",1245.3,432.249765309396,13408,"01/04/2022@18:51:05","Mozilla/5.0 (Windows NT 10.0; Win64; x64) AppleWebKit/537.36 (KHTML, like Gecko) Chrome/99.0.4844.84 Safari/537.36",1920,1080,1920,969,"main",877810,5,7,3,2,"EM","Moderate","Easier than Reference","D","j","riskyDeck","safeDeck",0,-28,-14,"left",1,0,32,"present","riskyDeck",1049,1311,-1,0
"tccbf44h8j",1245.3,432.249765309396,13408,"01/04/2022@18:51:05","Mozilla/5.0 (Windows NT 10.0; Win64; x64) AppleWebKit/537.36 (KHTML, like Gecko) Chrome/99.0.4844.84 Safari/537.36",1920,1080,1920,969,"main",877810,5,8,3,2,"EM","Moderate","Easier than Reference","D","j","riskyDeck","safeDeck",0,-28,-14,"left",1,0,32,"present","riskyDeck",1049,877,-1,0
"tccbf44h8j",1245.3,432.249765309396,13408,"01/04/2022@18:51:05","Mozilla/5.0 (Windows NT 10.0; Win64; x64) AppleWebKit/537.36 (KHTML, like Gecko) Chrome/99.0.4844.84 Safari/537.36",1920,1080,1920,969,"main",877810,5,9,3,2,"EM","Moderate","Easier than Reference","D","k","riskyDeck","safeDeck",0,-28,-14,"left",1,0,32,"absent","riskyDeck",1049,1829,-1,0
"tccbf44h8j",1245.3,432.249765309396,13408,"01/04/2022@18:51:05","Mozilla/5.0 (Windows NT 10.0; Win64; x64) AppleWebKit/537.36 (KHTML, like Gecko) Chrome/99.0.4844.84 Safari/537.36",1920,1080,1920,969,"main",877810,6,1,3,2,"EE","Extreme","Easier than Reference","F","k","safeDeck","riskyDeck",-14,0,-7,"right",1,0,18,"absent","riskyDeck",1174,3002,1,0
"tccbf44h8j",1245.3,432.249765309396,13408,"01/04/2022@18:51:05","Mozilla/5.0 (Windows NT 10.0; Win64; x64) AppleWebKit/537.36 (KHTML, like Gecko) Chrome/99.0.4844.84 Safari/537.36",1920,1080,1920,969,"main",877810,6,2,3,2,"EE","Extreme","Easier than Reference","F","k","safeDeck","riskyDeck",-14,0,-7,"right",1,0,18,"absent","riskyDeck",1174,1914,1,0
"tccbf44h8j",1245.3,432.249765309396,13408,"01/04/2022@18:51:05","Mozilla/5.0 (Windows NT 10.0; Win64; x64) AppleWebKit/537.36 (KHTML, like Gecko) Chrome/99.0.4844.84 Safari/537.36",1920,1080,1920,969,"main",877810,6,3,3,2,"EE","Extreme","Easier than Reference","F","k","safeDeck","riskyDeck",-14,0,-7,"right",1,0,18,"absent","riskyDeck",1174,1611,1,0
"tccbf44h8j",1245.3,432.249765309396,13408,"01/04/2022@18:51:05","Mozilla/5.0 (Windows NT 10.0; Win64; x64) AppleWebKit/537.36 (KHTML, like Gecko) Chrome/99.0.4844.84 Safari/537.36",1920,1080,1920,969,"main",877810,6,4,3,2,"EE","Extreme","Easier than Reference","F","j","safeDeck","riskyDeck",-14,0,-7,"right",1,0,18,"present","riskyDeck",1174,1145,1,0
"tccbf44h8j",1245.3,432.249765309396,13408,"01/04/2022@18:51:05","Mozilla/5.0 (Windows NT 10.0; Win64; x64) AppleWebKit/537.36 (KHTML, like Gecko) Chrome/99.0.4844.84 Safari/537.36",1920,1080,1920,969,"main",877810,6,5,3,2,"EE","Extreme","Easier than Reference","F","k","safeDeck","riskyDeck",-14,0,-7,"right",1,0,18,"absent","riskyDeck",1174,2212,1,0
"tccbf44h8j",1245.3,432.249765309396,13408,"01/04/2022@18:51:05","Mozilla/5.0 (Windows NT 10.0; Win64; x64) AppleWebKit/537.36 (KHTML, like Gecko) Chrome/99.0.4844.84 Safari/537.36",1920,1080,1920,969,"main",877810,6,6,3,2,"EE","Extreme","Easier than Reference","F","j","safeDeck","riskyDeck",-14,0,-7,"right",1,0,18,"present","riskyDeck",1174,1100,1,0
"tccbf44h8j",1245.3,432.249765309396,13408,"01/04/2022@18:51:05","Mozilla/5.0 (Windows NT 10.0; Win64; x64) AppleWebKit/537.36 (KHTML, like Gecko) Chrome/99.0.4844.84 Safari/537.36",1920,1080,1920,969,"main",877810,6,7,3,2,"EE","Extreme","Easier than Reference","F","j","safeDeck","riskyDeck",-14,0,-7,"right",1,1,18,"absent","riskyDeck",1174,1314,1,0
"tccbf44h8j",1245.3,432.249765309396,13408,"01/04/2022@18:51:05","Mozilla/5.0 (Windows NT 10.0; Win64; x64) AppleWebKit/537.36 (KHTML, like Gecko) Chrome/99.0.4844.84 Safari/537.36",1920,1080,1920,969,"main",877810,6,8,3,2,"EE","Extreme","Easier than Reference","F","j","safeDeck","riskyDeck",-14,0,-7,"right",1,0,18,"present","riskyDeck",1174,1008,1,0
"tccbf44h8j",1245.3,432.249765309396,13408,"01/04/2022@18:51:05","Mozilla/5.0 (Windows NT 10.0; Win64; x64) AppleWebKit/537.36 (KHTML, like Gecko) Chrome/99.0.4844.84 Safari/537.36",1920,1080,1920,969,"main",877810,6,9,3,2,"EE","Extreme","Easier than Reference","F","k","safeDeck","riskyDeck",-14,0,-7,"right",1,0,18,"absent","riskyDeck",1174,1026,1,0
"tccbf44h8j",1245.3,432.249765309396,13408,"01/04/2022@18:51:05","Mozilla/5.0 (Windows NT 10.0; Win64; x64) AppleWebKit/537.36 (KHTML, like Gecko) Chrome/99.0.4844.84 Safari/537.36",1920,1080,1920,969,"main",877810,7,1,3,2,"HM","Moderate","Harder than Reference","F","j","riskyDeck","safeDeck",14,0,7,"right",0,0,39,"present","safeDeck",1290,1346,1,1
"tccbf44h8j",1245.3,432.249765309396,13408,"01/04/2022@18:51:05","Mozilla/5.0 (Windows NT 10.0; Win64; x64) AppleWebKit/537.36 (KHTML, like Gecko) Chrome/99.0.4844.84 Safari/537.36",1920,1080,1920,969,"main",877810,7,2,3,2,"HM","Moderate","Harder than Reference","F","j","riskyDeck","safeDeck",14,0,7,"right",0,0,39,"present","safeDeck",1290,1400,1,1
"tccbf44h8j",1245.3,432.249765309396,13408,"01/04/2022@18:51:05","Mozilla/5.0 (Windows NT 10.0; Win64; x64) AppleWebKit/537.36 (KHTML, like Gecko) Chrome/99.0.4844.84 Safari/537.36",1920,1080,1920,969,"main",877810,7,3,3,2,"HM","Moderate","Harder than Reference","F","j","riskyDeck","safeDeck",14,0,7,"right",0,0,39,"present","safeDeck",1290,1061,1,1
"tccbf44h8j",1245.3,432.249765309396,13408,"01/04/2022@18:51:05","Mozilla/5.0 (Windows NT 10.0; Win64; x64) AppleWebKit/537.36 (KHTML, like Gecko) Chrome/99.0.4844.84 Safari/537.36",1920,1080,1920,969,"main",877810,7,4,3,2,"HM","Moderate","Harder than Reference","F","j","riskyDeck","safeDeck",14,0,7,"right",0,0,39,"present","safeDeck",1290,871,1,1
"tccbf44h8j",1245.3,432.249765309396,13408,"01/04/2022@18:51:05","Mozilla/5.0 (Windows NT 10.0; Win64; x64) AppleWebKit/537.36 (KHTML, like Gecko) Chrome/99.0.4844.84 Safari/537.36",1920,1080,1920,969,"main",877810,7,5,3,2,"HM","Moderate","Harder than Reference","F","j","riskyDeck","safeDeck",14,0,7,"right",0,0,39,"present","safeDeck",1290,966,1,1
"tccbf44h8j",1245.3,432.249765309396,13408,"01/04/2022@18:51:05","Mozilla/5.0 (Windows NT 10.0; Win64; x64) AppleWebKit/537.36 (KHTML, like Gecko) Chrome/99.0.4844.84 Safari/537.36",1920,1080,1920,969,"main",877810,7,6,3,2,"HM","Moderate","Harder than Reference","F","k","riskyDeck","safeDeck",14,0,7,"right",0,0,39,"absent","safeDeck",1290,1784,1,1
"tccbf44h8j",1245.3,432.249765309396,13408,"01/04/2022@18:51:05","Mozilla/5.0 (Windows NT 10.0; Win64; x64) AppleWebKit/537.36 (KHTML, like Gecko) Chrome/99.0.4844.84 Safari/537.36",1920,1080,1920,969,"main",877810,7,7,3,2,"HM","Moderate","Harder than Reference","F","j","riskyDeck","safeDeck",14,0,7,"right",0,0,39,"present","safeDeck",1290,813,1,1
"tccbf44h8j",1245.3,432.249765309396,13408,"01/04/2022@18:51:05","Mozilla/5.0 (Windows NT 10.0; Win64; x64) AppleWebKit/537.36 (KHTML, like Gecko) Chrome/99.0.4844.84 Safari/537.36",1920,1080,1920,969,"main",877810,7,8,3,2,"HM","Moderate","Harder than Reference","F","k","riskyDeck","safeDeck",14,0,7,"right",0,0,39,"absent","safeDeck",1290,2103,1,1
"tccbf44h8j",1245.3,432.249765309396,13408,"01/04/2022@18:51:05","Mozilla/5.0 (Windows NT 10.0; Win64; x64) AppleWebKit/537.36 (KHTML, like Gecko) Chrome/99.0.4844.84 Safari/537.36",1920,1080,1920,969,"main",877810,7,9,3,2,"HM","Moderate","Harder than Reference","F","j","riskyDeck","safeDeck",14,0,7,"right",0,0,39,"present","safeDeck",1290,2314,1,1
"tccbf44h8j",1245.3,432.249765309396,13408,"01/04/2022@18:51:05","Mozilla/5.0 (Windows NT 10.0; Win64; x64) AppleWebKit/537.36 (KHTML, like Gecko) Chrome/99.0.4844.84 Safari/537.36",1920,1080,1920,969,"main",877810,8,1,3,3,"HE","Extreme","Harder than Reference","D","j","riskyDeck","safeDeck",28,0,14,"left",1,0,60,"present","riskyDeck",1766,1624,-1,0
"tccbf44h8j",1245.3,432.249765309396,13408,"01/04/2022@18:51:05","Mozilla/5.0 (Windows NT 10.0; Win64; x64) AppleWebKit/537.36 (KHTML, like Gecko) Chrome/99.0.4844.84 Safari/537.36",1920,1080,1920,969,"main",877810,8,2,4,3,"HE","Extreme","Harder than Reference","D","k","riskyDeck","safeDeck",28,0,14,"left",1,0,60,"absent","riskyDeck",1766,2172,-1,0
"tccbf44h8j",1245.3,432.249765309396,13408,"01/04/2022@18:51:05","Mozilla/5.0 (Windows NT 10.0; Win64; x64) AppleWebKit/537.36 (KHTML, like Gecko) Chrome/99.0.4844.84 Safari/537.36",1920,1080,1920,969,"main",877810,8,3,4,3,"HE","Extreme","Harder than Reference","D","j","riskyDeck","safeDeck",28,0,14,"left",1,0,60,"present","riskyDeck",1766,1237,-1,0
"tccbf44h8j",1245.3,432.249765309396,13408,"01/04/2022@18:51:05","Mozilla/5.0 (Windows NT 10.0; Win64; x64) AppleWebKit/537.36 (KHTML, like Gecko) Chrome/99.0.4844.84 Safari/537.36",1920,1080,1920,969,"main",877810,8,4,4,3,"HE","Extreme","Harder than Reference","D","k","riskyDeck","safeDeck",28,0,14,"left",1,0,60,"absent","riskyDeck",1766,1877,-1,0
"tccbf44h8j",1245.3,432.249765309396,13408,"01/04/2022@18:51:05","Mozilla/5.0 (Windows NT 10.0; Win64; x64) AppleWebKit/537.36 (KHTML, like Gecko) Chrome/99.0.4844.84 Safari/537.36",1920,1080,1920,969,"main",877810,8,5,4,3,"HE","Extreme","Harder than Reference","D","j","riskyDeck","safeDeck",28,0,14,"left",1,0,60,"present","riskyDeck",1766,1314,-1,0
"tccbf44h8j",1245.3,432.249765309396,13408,"01/04/2022@18:51:05","Mozilla/5.0 (Windows NT 10.0; Win64; x64) AppleWebKit/537.36 (KHTML, like Gecko) Chrome/99.0.4844.84 Safari/537.36",1920,1080,1920,969,"main",877810,8,6,4,3,"HE","Extreme","Harder than Reference","D","k","riskyDeck","safeDeck",28,0,14,"left",1,1,60,"present","riskyDeck",1766,2675,-1,0
"tccbf44h8j",1245.3,432.249765309396,13408,"01/04/2022@18:51:05","Mozilla/5.0 (Windows NT 10.0; Win64; x64) AppleWebKit/537.36 (KHTML, like Gecko) Chrome/99.0.4844.84 Safari/537.36",1920,1080,1920,969,"main",877810,8,7,4,3,"HE","Extreme","Harder than Reference","D","k","riskyDeck","safeDeck",28,0,14,"left",1,1,60,"present","riskyDeck",1766,3795,-1,0
"tccbf44h8j",1245.3,432.249765309396,13408,"01/04/2022@18:51:05","Mozilla/5.0 (Windows NT 10.0; Win64; x64) AppleWebKit/537.36 (KHTML, like Gecko) Chrome/99.0.4844.84 Safari/537.36",1920,1080,1920,969,"main",877810,8,8,4,3,"HE","Extreme","Harder than Reference","D","k","riskyDeck","safeDeck",28,0,14,"left",1,0,60,"absent","riskyDeck",1766,2922,-1,0
"tccbf44h8j",1245.3,432.249765309396,13408,"01/04/2022@18:51:05","Mozilla/5.0 (Windows NT 10.0; Win64; x64) AppleWebKit/537.36 (KHTML, like Gecko) Chrome/99.0.4844.84 Safari/537.36",1920,1080,1920,969,"main",877810,8,9,4,3,"HE","Extreme","Harder than Reference","D","k","riskyDeck","safeDeck",28,0,14,"left",1,0,60,"absent","riskyDeck",1766,2588,-1,0
"tccbf44h8j",1245.3,432.249765309396,13408,"01/04/2022@18:51:05","Mozilla/5.0 (Windows NT 10.0; Win64; x64) AppleWebKit/537.36 (KHTML, like Gecko) Chrome/99.0.4844.84 Safari/537.36",1920,1080,1920,969,"main",877810,10,1,4,4,"EM","Moderate","Easier than Reference","F","k","safeDeck","riskyDeck",-28,0,-14,"right",1,0,4,"absent","riskyDeck",1545,684,1,0
"tccbf44h8j",1245.3,432.249765309396,13408,"01/04/2022@18:51:05","Mozilla/5.0 (Windows NT 10.0; Win64; x64) AppleWebKit/537.36 (KHTML, like Gecko) Chrome/99.0.4844.84 Safari/537.36",1920,1080,1920,969,"main",877810,10,2,4,4,"EM","Moderate","Easier than Reference","F","k","safeDeck","riskyDeck",-28,0,-14,"right",1,0,4,"absent","riskyDeck",1545,606,1,0
"tccbf44h8j",1245.3,432.249765309396,13408,"01/04/2022@18:51:05","Mozilla/5.0 (Windows NT 10.0; Win64; x64) AppleWebKit/537.36 (KHTML, like Gecko) Chrome/99.0.4844.84 Safari/537.36",1920,1080,1920,969,"main",877810,10,3,4,4,"EM","Moderate","Easier than Reference","F","j","safeDeck","riskyDeck",-28,0,-14,"right",1,0,4,"present","riskyDeck",1545,559,1,0
"tccbf44h8j",1245.3,432.249765309396,13408,"01/04/2022@18:51:05","Mozilla/5.0 (Windows NT 10.0; Win64; x64) AppleWebKit/537.36 (KHTML, like Gecko) Chrome/99.0.4844.84 Safari/537.36",1920,1080,1920,969,"main",877810,10,4,4,4,"EM","Moderate","Easier than Reference","F","k","safeDeck","riskyDeck",-28,0,-14,"right",1,0,4,"absent","riskyDeck",1545,647,1,0
"tccbf44h8j",1245.3,432.249765309396,13408,"01/04/2022@18:51:05","Mozilla/5.0 (Windows NT 10.0; Win64; x64) AppleWebKit/537.36 (KHTML, like Gecko) Chrome/99.0.4844.84 Safari/537.36",1920,1080,1920,969,"main",877810,10,5,4,4,"EM","Moderate","Easier than Reference","F","j","safeDeck","riskyDeck",-28,0,-14,"right",1,0,4,"present","riskyDeck",1545,456,1,0
"tccbf44h8j",1245.3,432.249765309396,13408,"01/04/2022@18:51:05","Mozilla/5.0 (Windows NT 10.0; Win64; x64) AppleWebKit/537.36 (KHTML, like Gecko) Chrome/99.0.4844.84 Safari/537.36",1920,1080,1920,969,"main",877810,10,6,4,4,"EM","Moderate","Easier than Reference","F","j","safeDeck","riskyDeck",-28,0,-14,"right",1,0,4,"present","riskyDeck",1545,668,1,0
"tccbf44h8j",1245.3,432.249765309396,13408,"01/04/2022@18:51:05","Mozilla/5.0 (Windows NT 10.0; Win64; x64) AppleWebKit/537.36 (KHTML, like Gecko) Chrome/99.0.4844.84 Safari/537.36",1920,1080,1920,969,"main",877810,10,7,5,4,"EM","Moderate","Easier than Reference","F","j","safeDeck","riskyDeck",-28,0,-14,"right",1,0,4,"present","riskyDeck",1545,454,1,0
"tccbf44h8j",1245.3,432.249765309396,13408,"01/04/2022@18:51:05","Mozilla/5.0 (Windows NT 10.0; Win64; x64) AppleWebKit/537.36 (KHTML, like Gecko) Chrome/99.0.4844.84 Safari/537.36",1920,1080,1920,969,"main",877810,10,8,5,4,"EM","Moderate","Easier than Reference","F","k","safeDeck","riskyDeck",-28,0,-14,"right",1,0,4,"absent","riskyDeck",1545,566,1,0
"tccbf44h8j",1245.3,432.249765309396,13408,"01/04/2022@18:51:05","Mozilla/5.0 (Windows NT 10.0; Win64; x64) AppleWebKit/537.36 (KHTML, like Gecko) Chrome/99.0.4844.84 Safari/537.36",1920,1080,1920,969,"main",877810,10,9,5,4,"EM","Moderate","Easier than Reference","F","j","safeDeck","riskyDeck",-28,0,-14,"right",1,0,4,"present","riskyDeck",1545,733,1,0
"tccbf44h8j",1245.3,432.249765309396,13408,"01/04/2022@18:51:05","Mozilla/5.0 (Windows NT 10.0; Win64; x64) AppleWebKit/537.36 (KHTML, like Gecko) Chrome/99.0.4844.84 Safari/537.36",1920,1080,1920,969,"main",877810,11,1,5,4,"HM","Moderate","Harder than Reference","D","k","riskyDeck","safeDeck",14,0,7,"left",1,0,32,"absent","riskyDeck",1351,4220,-1,0
"tccbf44h8j",1245.3,432.249765309396,13408,"01/04/2022@18:51:05","Mozilla/5.0 (Windows NT 10.0; Win64; x64) AppleWebKit/537.36 (KHTML, like Gecko) Chrome/99.0.4844.84 Safari/537.36",1920,1080,1920,969,"main",877810,11,2,5,4,"HM","Moderate","Harder than Reference","D","j","riskyDeck","safeDeck",14,0,7,"left",1,0,32,"present","riskyDeck",1351,1674,-1,0
"tccbf44h8j",1245.3,432.249765309396,13408,"01/04/2022@18:51:05","Mozilla/5.0 (Windows NT 10.0; Win64; x64) AppleWebKit/537.36 (KHTML, like Gecko) Chrome/99.0.4844.84 Safari/537.36",1920,1080,1920,969,"main",877810,11,3,5,4,"HM","Moderate","Harder than Reference","D","k","riskyDeck","safeDeck",14,0,7,"left",1,0,32,"absent","riskyDeck",1351,2755,-1,0
"tccbf44h8j",1245.3,432.249765309396,13408,"01/04/2022@18:51:05","Mozilla/5.0 (Windows NT 10.0; Win64; x64) AppleWebKit/537.36 (KHTML, like Gecko) Chrome/99.0.4844.84 Safari/537.36",1920,1080,1920,969,"main",877810,11,4,5,4,"HM","Moderate","Harder than Reference","D","j","riskyDeck","safeDeck",14,0,7,"left",1,0,32,"present","riskyDeck",1351,1365,-1,0
"tccbf44h8j",1245.3,432.249765309396,13408,"01/04/2022@18:51:05","Mozilla/5.0 (Windows NT 10.0; Win64; x64) AppleWebKit/537.36 (KHTML, like Gecko) Chrome/99.0.4844.84 Safari/537.36",1920,1080,1920,969,"main",877810,11,5,5,4,"HM","Moderate","Harder than Reference","D","k","riskyDeck","safeDeck",14,0,7,"left",1,1,32,"present","riskyDeck",1351,1415,-1,0
"tccbf44h8j",1245.3,432.249765309396,13408,"01/04/2022@18:51:05","Mozilla/5.0 (Windows NT 10.0; Win64; x64) AppleWebKit/537.36 (KHTML, like Gecko) Chrome/99.0.4844.84 Safari/537.36",1920,1080,1920,969,"main",877810,11,6,5,4,"HM","Moderate","Harder than Reference","D","k","riskyDeck","safeDeck",14,0,7,"left",1,0,32,"absent","riskyDeck",1351,2525,-1,0
"tccbf44h8j",1245.3,432.249765309396,13408,"01/04/2022@18:51:05","Mozilla/5.0 (Windows NT 10.0; Win64; x64) AppleWebKit/537.36 (KHTML, like Gecko) Chrome/99.0.4844.84 Safari/537.36",1920,1080,1920,969,"main",877810,11,7,5,4,"HM","Moderate","Harder than Reference","D","j","riskyDeck","safeDeck",14,0,7,"left",1,0,32,"present","riskyDeck",1351,475,-1,0
"tccbf44h8j",1245.3,432.249765309396,13408,"01/04/2022@18:51:05","Mozilla/5.0 (Windows NT 10.0; Win64; x64) AppleWebKit/537.36 (KHTML, like Gecko) Chrome/99.0.4844.84 Safari/537.36",1920,1080,1920,969,"main",877810,11,8,5,4,"HM","Moderate","Harder than Reference","D","k","riskyDeck","safeDeck",14,0,7,"left",1,0,32,"absent","riskyDeck",1351,2045,-1,0
"tccbf44h8j",1245.3,432.249765309396,13408,"01/04/2022@18:51:05","Mozilla/5.0 (Windows NT 10.0; Win64; x64) AppleWebKit/537.36 (KHTML, like Gecko) Chrome/99.0.4844.84 Safari/537.36",1920,1080,1920,969,"main",877810,11,9,5,4,"HM","Moderate","Harder than Reference","D","k","riskyDeck","safeDeck",14,0,7,"left",1,0,32,"absent","riskyDeck",1351,1723,-1,0
"tccbf44h8j",1245.3,432.249765309396,13408,"01/04/2022@18:51:05","Mozilla/5.0 (Windows NT 10.0; Win64; x64) AppleWebKit/537.36 (KHTML, like Gecko) Chrome/99.0.4844.84 Safari/537.36",1920,1080,1920,969,"main",877810,12,1,5,4,"HE","Extreme","Harder than Reference","D","j","safeDeck","riskyDeck",0,28,14,"left",0,0,46,"present","safeDeck",1467,1595,-1,1
"tccbf44h8j",1245.3,432.249765309396,13408,"01/04/2022@18:51:05","Mozilla/5.0 (Windows NT 10.0; Win64; x64) AppleWebKit/537.36 (KHTML, like Gecko) Chrome/99.0.4844.84 Safari/537.36",1920,1080,1920,969,"main",877810,12,2,5,4,"HE","Extreme","Harder than Reference","D","j","safeDeck","riskyDeck",0,28,14,"left",0,0,46,"present","safeDeck",1467,1944,-1,1
"tccbf44h8j",1245.3,432.249765309396,13408,"01/04/2022@18:51:05","Mozilla/5.0 (Windows NT 10.0; Win64; x64) AppleWebKit/537.36 (KHTML, like Gecko) Chrome/99.0.4844.84 Safari/537.36",1920,1080,1920,969,"main",877810,12,3,5,4,"HE","Extreme","Harder than Reference","D","j","safeDeck","riskyDeck",0,28,14,"left",0,0,46,"present","safeDeck",1467,814,-1,1
"tccbf44h8j",1245.3,432.249765309396,13408,"01/04/2022@18:51:05","Mozilla/5.0 (Windows NT 10.0; Win64; x64) AppleWebKit/537.36 (KHTML, like Gecko) Chrome/99.0.4844.84 Safari/537.36",1920,1080,1920,969,"main",877810,12,4,5,4,"HE","Extreme","Harder than Reference","D","k","safeDeck","riskyDeck",0,28,14,"left",0,0,46,"absent","safeDeck",1467,1760,-1,1
"tccbf44h8j",1245.3,432.249765309396,13408,"01/04/2022@18:51:05","Mozilla/5.0 (Windows NT 10.0; Win64; x64) AppleWebKit/537.36 (KHTML, like Gecko) Chrome/99.0.4844.84 Safari/537.36",1920,1080,1920,969,"main",877810,12,5,5,4,"HE","Extreme","Harder than Reference","D","k","safeDeck","riskyDeck",0,28,14,"left",0,0,46,"absent","safeDeck",1467,2352,-1,1
"tccbf44h8j",1245.3,432.249765309396,13408,"01/04/2022@18:51:05","Mozilla/5.0 (Windows NT 10.0; Win64; x64) AppleWebKit/537.36 (KHTML, like Gecko) Chrome/99.0.4844.84 Safari/537.36",1920,1080,1920,969,"main",877810,12,6,5,4,"HE","Extreme","Harder than Reference","D","k","safeDeck","riskyDeck",0,28,14,"left",0,0,46,"absent","safeDeck",1467,2406,-1,1
"tccbf44h8j",1245.3,432.249765309396,13408,"01/04/2022@18:51:05","Mozilla/5.0 (Windows NT 10.0; Win64; x64) AppleWebKit/537.36 (KHTML, like Gecko) Chrome/99.0.4844.84 Safari/537.36",1920,1080,1920,969,"main",877810,12,7,5,4,"HE","Extreme","Harder than Reference","D","k","safeDeck","riskyDeck",0,28,14,"left",0,0,46,"absent","safeDeck",1467,2014,-1,1
"tccbf44h8j",1245.3,432.249765309396,13408,"01/04/2022@18:51:05","Mozilla/5.0 (Windows NT 10.0; Win64; x64) AppleWebKit/537.36 (KHTML, like Gecko) Chrome/99.0.4844.84 Safari/537.36",1920,1080,1920,969,"main",877810,12,8,5,4,"HE","Extreme","Harder than Reference","D","k","safeDeck","riskyDeck",0,28,14,"left",0,0,46,"absent","safeDeck",1467,4277,-1,1
"tccbf44h8j",1245.3,432.249765309396,13408,"01/04/2022@18:51:05","Mozilla/5.0 (Windows NT 10.0; Win64; x64) AppleWebKit/537.36 (KHTML, like Gecko) Chrome/99.0.4844.84 Safari/537.36",1920,1080,1920,969,"main",877810,12,9,5,5,"HE","Extreme","Harder than Reference","D","k","safeDeck","riskyDeck",0,28,14,"left",0,0,46,"absent","safeDeck",1467,3839,-1,1
"tccbf44h8j",1245.3,432.249765309396,13408,"01/04/2022@18:51:05","Mozilla/5.0 (Windows NT 10.0; Win64; x64) AppleWebKit/537.36 (KHTML, like Gecko) Chrome/99.0.4844.84 Safari/537.36",1920,1080,1920,969,"main",877810,13,1,6,5,"EM","Moderate","Easier than Reference","D","k","riskyDeck","safeDeck",0,-28,-14,"left",1,0,32,"absent","riskyDeck",1158,1493,-1,0
"tccbf44h8j",1245.3,432.249765309396,13408,"01/04/2022@18:51:05","Mozilla/5.0 (Windows NT 10.0; Win64; x64) AppleWebKit/537.36 (KHTML, like Gecko) Chrome/99.0.4844.84 Safari/537.36",1920,1080,1920,969,"main",877810,13,2,6,5,"EM","Moderate","Easier than Reference","D","j","riskyDeck","safeDeck",0,-28,-14,"left",1,0,32,"present","riskyDeck",1158,1732,-1,0
"tccbf44h8j",1245.3,432.249765309396,13408,"01/04/2022@18:51:05","Mozilla/5.0 (Windows NT 10.0; Win64; x64) AppleWebKit/537.36 (KHTML, like Gecko) Chrome/99.0.4844.84 Safari/537.36",1920,1080,1920,969,"main",877810,13,3,6,5,"EM","Moderate","Easier than Reference","D","j","riskyDeck","safeDeck",0,-28,-14,"left",1,0,32,"present","riskyDeck",1158,1083,-1,0
"tccbf44h8j",1245.3,432.249765309396,13408,"01/04/2022@18:51:05","Mozilla/5.0 (Windows NT 10.0; Win64; x64) AppleWebKit/537.36 (KHTML, like Gecko) Chrome/99.0.4844.84 Safari/537.36",1920,1080,1920,969,"main",877810,13,4,6,5,"EM","Moderate","Easier than Reference","D","k","riskyDeck","safeDeck",0,-28,-14,"left",1,0,32,"absent","riskyDeck",1158,1903,-1,0
"tccbf44h8j",1245.3,432.249765309396,13408,"01/04/2022@18:51:05","Mozilla/5.0 (Windows NT 10.0; Win64; x64) AppleWebKit/537.36 (KHTML, like Gecko) Chrome/99.0.4844.84 Safari/537.36",1920,1080,1920,969,"main",877810,13,5,6,5,"EM","Moderate","Easier than Reference","D","j","riskyDeck","safeDeck",0,-28,-14,"left",1,0,32,"present","riskyDeck",1158,1843,-1,0
"tccbf44h8j",1245.3,432.249765309396,13408,"01/04/2022@18:51:05","Mozilla/5.0 (Windows NT 10.0; Win64; x64) AppleWebKit/537.36 (KHTML, like Gecko) Chrome/99.0.4844.84 Safari/537.36",1920,1080,1920,969,"main",877810,13,6,6,5,"EM","Moderate","Easier than Reference","D","k","riskyDeck","safeDeck",0,-28,-14,"left",1,1,32,"present","riskyDeck",1158,1347,-1,0
"tccbf44h8j",1245.3,432.249765309396,13408,"01/04/2022@18:51:05","Mozilla/5.0 (Windows NT 10.0; Win64; x64) AppleWebKit/537.36 (KHTML, like Gecko) Chrome/99.0.4844.84 Safari/537.36",1920,1080,1920,969,"main",877810,13,7,6,5,"EM","Moderate","Easier than Reference","D","k","riskyDeck","safeDeck",0,-28,-14,"left",1,0,32,"absent","riskyDeck",1158,5131,-1,0
"tccbf44h8j",1245.3,432.249765309396,13408,"01/04/2022@18:51:05","Mozilla/5.0 (Windows NT 10.0; Win64; x64) AppleWebKit/537.36 (KHTML, like Gecko) Chrome/99.0.4844.84 Safari/537.36",1920,1080,1920,969,"main",877810,13,8,6,5,"EM","Moderate","Easier than Reference","D","k","riskyDeck","safeDeck",0,-28,-14,"left",1,0,32,"absent","riskyDeck",1158,3572,-1,0
"tccbf44h8j",1245.3,432.249765309396,13408,"01/04/2022@18:51:05","Mozilla/5.0 (Windows NT 10.0; Win64; x64) AppleWebKit/537.36 (KHTML, like Gecko) Chrome/99.0.4844.84 Safari/537.36",1920,1080,1920,969,"main",877810,13,9,6,5,"EM","Moderate","Easier than Reference","D","k","riskyDeck","safeDeck",0,-28,-14,"left",1,0,32,"absent","riskyDeck",1158,1382,-1,0
"tccbf44h8j",1245.3,432.249765309396,13408,"01/04/2022@18:51:05","Mozilla/5.0 (Windows NT 10.0; Win64; x64) AppleWebKit/537.36 (KHTML, like Gecko) Chrome/99.0.4844.84 Safari/537.36",1920,1080,1920,969,"main",877810,14,1,6,5,"HE","Extreme","Harder than Reference","D","j","riskyDeck","safeDeck",28,0,14,"left",1,0,60,"present","riskyDeck",1295,2176,-1,0
"tccbf44h8j",1245.3,432.249765309396,13408,"01/04/2022@18:51:05","Mozilla/5.0 (Windows NT 10.0; Win64; x64) AppleWebKit/537.36 (KHTML, like Gecko) Chrome/99.0.4844.84 Safari/537.36",1920,1080,1920,969,"main",877810,14,2,6,5,"HE","Extreme","Harder than Reference","D","k","riskyDeck","safeDeck",28,0,14,"left",1,1,60,"present","riskyDeck",1295,3078,-1,0
"tccbf44h8j",1245.3,432.249765309396,13408,"01/04/2022@18:51:05","Mozilla/5.0 (Windows NT 10.0; Win64; x64) AppleWebKit/537.36 (KHTML, like Gecko) Chrome/99.0.4844.84 Safari/537.36",1920,1080,1920,969,"main",877810,14,3,6,5,"HE","Extreme","Harder than Reference","D","j","riskyDeck","safeDeck",28,0,14,"left",1,0,60,"present","riskyDeck",1295,1668,-1,0
"tccbf44h8j",1245.3,432.249765309396,13408,"01/04/2022@18:51:05","Mozilla/5.0 (Windows NT 10.0; Win64; x64) AppleWebKit/537.36 (KHTML, like Gecko) Chrome/99.0.4844.84 Safari/537.36",1920,1080,1920,969,"main",877810,14,4,6,5,"HE","Extreme","Harder than Reference","D","k","riskyDeck","safeDeck",28,0,14,"left",1,0,60,"absent","riskyDeck",1295,1521,-1,0
"tccbf44h8j",1245.3,432.249765309396,13408,"01/04/2022@18:51:05","Mozilla/5.0 (Windows NT 10.0; Win64; x64) AppleWebKit/537.36 (KHTML, like Gecko) Chrome/99.0.4844.84 Safari/537.36",1920,1080,1920,969,"main",877810,14,5,6,5,"HE","Extreme","Harder than Reference","D","k","riskyDeck","safeDeck",28,0,14,"left",1,0,60,"absent","riskyDeck",1295,1661,-1,0
"tccbf44h8j",1245.3,432.249765309396,13408,"01/04/2022@18:51:05","Mozilla/5.0 (Windows NT 10.0; Win64; x64) AppleWebKit/537.36 (KHTML, like Gecko) Chrome/99.0.4844.84 Safari/537.36",1920,1080,1920,969,"main",877810,14,6,6,5,"HE","Extreme","Harder than Reference","D","k","riskyDeck","safeDeck",28,0,14,"left",1,0,60,"absent","riskyDeck",1295,1446,-1,0
"tccbf44h8j",1245.3,432.249765309396,13408,"01/04/2022@18:51:05","Mozilla/5.0 (Windows NT 10.0; Win64; x64) AppleWebKit/537.36 (KHTML, like Gecko) Chrome/99.0.4844.84 Safari/537.36",1920,1080,1920,969,"main",877810,14,7,6,5,"HE","Extreme","Harder than Reference","D","k","riskyDeck","safeDeck",28,0,14,"left",1,0,60,"absent","riskyDeck",1295,3083,-1,0
"tccbf44h8j",1245.3,432.249765309396,13408,"01/04/2022@18:51:05","Mozilla/5.0 (Windows NT 10.0; Win64; x64) AppleWebKit/537.36 (KHTML, like Gecko) Chrome/99.0.4844.84 Safari/537.36",1920,1080,1920,969,"main",877810,14,8,6,5,"HE","Extreme","Harder than Reference","D","j","riskyDeck","safeDeck",28,0,14,"left",1,0,60,"present","riskyDeck",1295,1901,-1,0
"tccbf44h8j",1245.3,432.249765309396,13408,"01/04/2022@18:51:05","Mozilla/5.0 (Windows NT 10.0; Win64; x64) AppleWebKit/537.36 (KHTML, like Gecko) Chrome/99.0.4844.84 Safari/537.36",1920,1080,1920,969,"main",877810,14,9,6,5,"HE","Extreme","Harder than Reference","D","j","riskyDeck","safeDeck",28,0,14,"left",1,0,60,"present","riskyDeck",1295,1422,-1,0
"tccbf44h8j",1245.3,432.249765309396,13408,"01/04/2022@18:51:05","Mozilla/5.0 (Windows NT 10.0; Win64; x64) AppleWebKit/537.36 (KHTML, like Gecko) Chrome/99.0.4844.84 Safari/537.36",1920,1080,1920,969,"main",877810,15,1,6,5,"EE","Extreme","Easier than Reference","F","k","safeDeck","riskyDeck",0,-14,-7,"right",1,0,18,"absent","riskyDeck",1057,1586,1,0
"tccbf44h8j",1245.3,432.249765309396,13408,"01/04/2022@18:51:05","Mozilla/5.0 (Windows NT 10.0; Win64; x64) AppleWebKit/537.36 (KHTML, like Gecko) Chrome/99.0.4844.84 Safari/537.36",1920,1080,1920,969,"main",877810,15,2,6,6,"EE","Extreme","Easier than Reference","F","j","safeDeck","riskyDeck",0,-14,-7,"right",1,0,18,"present","riskyDeck",1057,1097,1,0
"tccbf44h8j",1245.3,432.249765309396,13408,"01/04/2022@18:51:05","Mozilla/5.0 (Windows NT 10.0; Win64; x64) AppleWebKit/537.36 (KHTML, like Gecko) Chrome/99.0.4844.84 Safari/537.36",1920,1080,1920,969,"main",877810,15,3,6,6,"EE","Extreme","Easier than Reference","F","j","safeDeck","riskyDeck",0,-14,-7,"right",1,0,18,"present","riskyDeck",1057,1255,1,0
"tccbf44h8j",1245.3,432.249765309396,13408,"01/04/2022@18:51:05","Mozilla/5.0 (Windows NT 10.0; Win64; x64) AppleWebKit/537.36 (KHTML, like Gecko) Chrome/99.0.4844.84 Safari/537.36",1920,1080,1920,969,"main",877810,15,4,6,6,"EE","Extreme","Easier than Reference","F","j","safeDeck","riskyDeck",0,-14,-7,"right",1,0,18,"present","riskyDeck",1057,513,1,0
"tccbf44h8j",1245.3,432.249765309396,13408,"01/04/2022@18:51:05","Mozilla/5.0 (Windows NT 10.0; Win64; x64) AppleWebKit/537.36 (KHTML, like Gecko) Chrome/99.0.4844.84 Safari/537.36",1920,1080,1920,969,"main",877810,15,5,6,6,"EE","Extreme","Easier than Reference","F","k","safeDeck","riskyDeck",0,-14,-7,"right",1,0,18,"absent","riskyDeck",1057,1530,1,0
"tccbf44h8j",1245.3,432.249765309396,13408,"01/04/2022@18:51:05","Mozilla/5.0 (Windows NT 10.0; Win64; x64) AppleWebKit/537.36 (KHTML, like Gecko) Chrome/99.0.4844.84 Safari/537.36",1920,1080,1920,969,"main",877810,15,6,7,6,"EE","Extreme","Easier than Reference","F","k","safeDeck","riskyDeck",0,-14,-7,"right",1,0,18,"absent","riskyDeck",1057,1068,1,0
"tccbf44h8j",1245.3,432.249765309396,13408,"01/04/2022@18:51:05","Mozilla/5.0 (Windows NT 10.0; Win64; x64) AppleWebKit/537.36 (KHTML, like Gecko) Chrome/99.0.4844.84 Safari/537.36",1920,1080,1920,969,"main",877810,15,7,7,6,"EE","Extreme","Easier than Reference","F","k","safeDeck","riskyDeck",0,-14,-7,"right",1,0,18,"absent","riskyDeck",1057,1505,1,0
"tccbf44h8j",1245.3,432.249765309396,13408,"01/04/2022@18:51:05","Mozilla/5.0 (Windows NT 10.0; Win64; x64) AppleWebKit/537.36 (KHTML, like Gecko) Chrome/99.0.4844.84 Safari/537.36",1920,1080,1920,969,"main",877810,15,8,7,6,"EE","Extreme","Easier than Reference","F","j","safeDeck","riskyDeck",0,-14,-7,"right",1,0,18,"present","riskyDeck",1057,582,1,0
"tccbf44h8j",1245.3,432.249765309396,13408,"01/04/2022@18:51:05","Mozilla/5.0 (Windows NT 10.0; Win64; x64) AppleWebKit/537.36 (KHTML, like Gecko) Chrome/99.0.4844.84 Safari/537.36",1920,1080,1920,969,"main",877810,15,9,7,6,"EE","Extreme","Easier than Reference","F","j","safeDeck","riskyDeck",0,-14,-7,"right",1,0,18,"present","riskyDeck",1057,810,1,0
"tccbf44h8j",1245.3,432.249765309396,13408,"01/04/2022@18:51:05","Mozilla/5.0 (Windows NT 10.0; Win64; x64) AppleWebKit/537.36 (KHTML, like Gecko) Chrome/99.0.4844.84 Safari/537.36",1920,1080,1920,969,"main",877810,16,1,7,6,"HM","Moderate","Harder than Reference","D","j","safeDeck","riskyDeck",14,0,7,"left",0,0,39,"present","safeDeck",1348,2710,-1,1
"tccbf44h8j",1245.3,432.249765309396,13408,"01/04/2022@18:51:05","Mozilla/5.0 (Windows NT 10.0; Win64; x64) AppleWebKit/537.36 (KHTML, like Gecko) Chrome/99.0.4844.84 Safari/537.36",1920,1080,1920,969,"main",877810,16,2,7,6,"HM","Moderate","Harder than Reference","D","k","safeDeck","riskyDeck",14,0,7,"left",0,0,39,"absent","safeDeck",1348,2428,-1,1
"tccbf44h8j",1245.3,432.249765309396,13408,"01/04/2022@18:51:05","Mozilla/5.0 (Windows NT 10.0; Win64; x64) AppleWebKit/537.36 (KHTML, like Gecko) Chrome/99.0.4844.84 Safari/537.36",1920,1080,1920,969,"main",877810,16,3,7,6,"HM","Moderate","Harder than Reference","D","k","safeDeck","riskyDeck",14,0,7,"left",0,0,39,"absent","safeDeck",1348,1564,-1,1
"tccbf44h8j",1245.3,432.249765309396,13408,"01/04/2022@18:51:05","Mozilla/5.0 (Windows NT 10.0; Win64; x64) AppleWebKit/537.36 (KHTML, like Gecko) Chrome/99.0.4844.84 Safari/537.36",1920,1080,1920,969,"main",877810,16,4,7,6,"HM","Moderate","Harder than Reference","D","j","safeDeck","riskyDeck",14,0,7,"left",0,0,39,"present","safeDeck",1348,941,-1,1
"tccbf44h8j",1245.3,432.249765309396,13408,"01/04/2022@18:51:05","Mozilla/5.0 (Windows NT 10.0; Win64; x64) AppleWebKit/537.36 (KHTML, like Gecko) Chrome/99.0.4844.84 Safari/537.36",1920,1080,1920,969,"main",877810,16,5,7,6,"HM","Moderate","Harder than Reference","D","k","safeDeck","riskyDeck",14,0,7,"left",0,0,39,"absent","safeDeck",1348,1603,-1,1
"tccbf44h8j",1245.3,432.249765309396,13408,"01/04/2022@18:51:05","Mozilla/5.0 (Windows NT 10.0; Win64; x64) AppleWebKit/537.36 (KHTML, like Gecko) Chrome/99.0.4844.84 Safari/537.36",1920,1080,1920,969,"main",877810,16,6,7,6,"HM","Moderate","Harder than Reference","D","j","safeDeck","riskyDeck",14,0,7,"left",0,0,39,"present","safeDeck",1348,2111,-1,1
"tccbf44h8j",1245.3,432.249765309396,13408,"01/04/2022@18:51:05","Mozilla/5.0 (Windows NT 10.0; Win64; x64) AppleWebKit/537.36 (KHTML, like Gecko) Chrome/99.0.4844.84 Safari/537.36",1920,1080,1920,969,"main",877810,16,7,7,6,"HM","Moderate","Harder than Reference","D","j","safeDeck","riskyDeck",14,0,7,"left",0,0,39,"present","safeDeck",1348,955,-1,1
"tccbf44h8j",1245.3,432.249765309396,13408,"01/04/2022@18:51:05","Mozilla/5.0 (Windows NT 10.0; Win64; x64) AppleWebKit/537.36 (KHTML, like Gecko) Chrome/99.0.4844.84 Safari/537.36",1920,1080,1920,969,"main",877810,16,8,7,6,"HM","Moderate","Harder than Reference","D","j","safeDeck","riskyDeck",14,0,7,"left",0,0,39,"present","safeDeck",1348,1896,-1,1
"tccbf44h8j",1245.3,432.249765309396,13408,"01/04/2022@18:51:05","Mozilla/5.0 (Windows NT 10.0; Win64; x64) AppleWebKit/537.36 (KHTML, like Gecko) Chrome/99.0.4844.84 Safari/537.36",1920,1080,1920,969,"main",877810,16,9,7,6,"HM","Moderate","Harder than Reference","D","k","safeDeck","riskyDeck",14,0,7,"left",0,0,39,"absent","safeDeck",1348,1148,-1,1
"tccbf44h8j",1245.3,432.249765309396,13408,"01/04/2022@18:51:05","Mozilla/5.0 (Windows NT 10.0; Win64; x64) AppleWebKit/537.36 (KHTML, like Gecko) Chrome/99.0.4844.84 Safari/537.36",1920,1080,1920,969,"main",877810,17,1,7,6,"HM","Moderate","Harder than Reference","F","k","safeDeck","riskyDeck",0,14,7,"right",1,0,46,"absent","riskyDeck",982,1519,1,0
"tccbf44h8j",1245.3,432.249765309396,13408,"01/04/2022@18:51:05","Mozilla/5.0 (Windows NT 10.0; Win64; x64) AppleWebKit/537.36 (KHTML, like Gecko) Chrome/99.0.4844.84 Safari/537.36",1920,1080,1920,969,"main",877810,17,2,7,6,"HM","Moderate","Harder than Reference","F","j","safeDeck","riskyDeck",0,14,7,"right",1,0,46,"present","riskyDeck",982,3061,1,0
"tccbf44h8j",1245.3,432.249765309396,13408,"01/04/2022@18:51:05","Mozilla/5.0 (Windows NT 10.0; Win64; x64) AppleWebKit/537.36 (KHTML, like Gecko) Chrome/99.0.4844.84 Safari/537.36",1920,1080,1920,969,"main",877810,17,3,7,6,"HM","Moderate","Harder than Reference","F","k","safeDeck","riskyDeck",0,14,7,"right",1,0,46,"absent","riskyDeck",982,1798,1,0
"tccbf44h8j",1245.3,432.249765309396,13408,"01/04/2022@18:51:05","Mozilla/5.0 (Windows NT 10.0; Win64; x64) AppleWebKit/537.36 (KHTML, like Gecko) Chrome/99.0.4844.84 Safari/537.36",1920,1080,1920,969,"main",877810,17,4,7,6,"HM","Moderate","Harder than Reference","F","k","safeDeck","riskyDeck",0,14,7,"right",1,0,46,"absent","riskyDeck",982,2345,1,0
"tccbf44h8j",1245.3,432.249765309396,13408,"01/04/2022@18:51:05","Mozilla/5.0 (Windows NT 10.0; Win64; x64) AppleWebKit/537.36 (KHTML, like Gecko) Chrome/99.0.4844.84 Safari/537.36",1920,1080,1920,969,"main",877810,17,5,7,6,"HM","Moderate","Harder than Reference","F","k","safeDeck","riskyDeck",0,14,7,"right",1,0,46,"absent","riskyDeck",982,4116,1,0
"tccbf44h8j",1245.3,432.249765309396,13408,"01/04/2022@18:51:05","Mozilla/5.0 (Windows NT 10.0; Win64; x64) AppleWebKit/537.36 (KHTML, like Gecko) Chrome/99.0.4844.84 Safari/537.36",1920,1080,1920,969,"main",877810,17,6,7,6,"HM","Moderate","Harder than Reference","F","k","safeDeck","riskyDeck",0,14,7,"right",1,0,46,"absent","riskyDeck",982,2188,1,0
"tccbf44h8j",1245.3,432.249765309396,13408,"01/04/2022@18:51:05","Mozilla/5.0 (Windows NT 10.0; Win64; x64) AppleWebKit/537.36 (KHTML, like Gecko) Chrome/99.0.4844.84 Safari/537.36",1920,1080,1920,969,"main",877810,17,7,7,6,"HM","Moderate","Harder than Reference","F","j","safeDeck","riskyDeck",0,14,7,"right",1,0,46,"present","riskyDeck",982,980,1,0
"tccbf44h8j",1245.3,432.249765309396,13408,"01/04/2022@18:51:05","Mozilla/5.0 (Windows NT 10.0; Win64; x64) AppleWebKit/537.36 (KHTML, like Gecko) Chrome/99.0.4844.84 Safari/537.36",1920,1080,1920,969,"main",877810,17,8,7,6,"HM","Moderate","Harder than Reference","F","j","safeDeck","riskyDeck",0,14,7,"right",1,0,46,"present","riskyDeck",982,783,1,0
"tccbf44h8j",1245.3,432.249765309396,13408,"01/04/2022@18:51:05","Mozilla/5.0 (Windows NT 10.0; Win64; x64) AppleWebKit/537.36 (KHTML, like Gecko) Chrome/99.0.4844.84 Safari/537.36",1920,1080,1920,969,"main",877810,17,9,7,6,"HM","Moderate","Harder than Reference","F","k","safeDeck","riskyDeck",0,14,7,"right",1,0,46,"absent","riskyDeck",982,3827,1,0
"tccbf44h8j",1245.3,432.249765309396,13408,"01/04/2022@18:51:05","Mozilla/5.0 (Windows NT 10.0; Win64; x64) AppleWebKit/537.36 (KHTML, like Gecko) Chrome/99.0.4844.84 Safari/537.36",1920,1080,1920,969,"main",877810,18,1,7,7,"HE","Extreme","Harder than Reference","F","k","safeDeck","riskyDeck",28,0,14,"right",1,0,32,"absent","riskyDeck",1174,2306,1,0
"tccbf44h8j",1245.3,432.249765309396,13408,"01/04/2022@18:51:05","Mozilla/5.0 (Windows NT 10.0; Win64; x64) AppleWebKit/537.36 (KHTML, like Gecko) Chrome/99.0.4844.84 Safari/537.36",1920,1080,1920,969,"main",877810,18,2,8,7,"HE","Extreme","Harder than Reference","F","k","safeDeck","riskyDeck",28,0,14,"right",1,0,32,"absent","riskyDeck",1174,3476,1,0
"tccbf44h8j",1245.3,432.249765309396,13408,"01/04/2022@18:51:05","Mozilla/5.0 (Windows NT 10.0; Win64; x64) AppleWebKit/537.36 (KHTML, like Gecko) Chrome/99.0.4844.84 Safari/537.36",1920,1080,1920,969,"main",877810,18,3,8,7,"HE","Extreme","Harder than Reference","F","j","safeDeck","riskyDeck",28,0,14,"right",1,0,32,"present","riskyDeck",1174,1287,1,0
"tccbf44h8j",1245.3,432.249765309396,13408,"01/04/2022@18:51:05","Mozilla/5.0 (Windows NT 10.0; Win64; x64) AppleWebKit/537.36 (KHTML, like Gecko) Chrome/99.0.4844.84 Safari/537.36",1920,1080,1920,969,"main",877810,18,4,8,7,"HE","Extreme","Harder than Reference","F","j","safeDeck","riskyDeck",28,0,14,"right",1,0,32,"present","riskyDeck",1174,1127,1,0
"tccbf44h8j",1245.3,432.249765309396,13408,"01/04/2022@18:51:05","Mozilla/5.0 (Windows NT 10.0; Win64; x64) AppleWebKit/537.36 (KHTML, like Gecko) Chrome/99.0.4844.84 Safari/537.36",1920,1080,1920,969,"main",877810,18,5,8,7,"HE","Extreme","Harder than Reference","F","k","safeDeck","riskyDeck",28,0,14,"right",1,0,32,"absent","riskyDeck",1174,2127,1,0
"tccbf44h8j",1245.3,432.249765309396,13408,"01/04/2022@18:51:05","Mozilla/5.0 (Windows NT 10.0; Win64; x64) AppleWebKit/537.36 (KHTML, like Gecko) Chrome/99.0.4844.84 Safari/537.36",1920,1080,1920,969,"main",877810,18,6,8,7,"HE","Extreme","Harder than Reference","F","k","safeDeck","riskyDeck",28,0,14,"right",1,1,32,"present","riskyDeck",1174,5582,1,0
"tccbf44h8j",1245.3,432.249765309396,13408,"01/04/2022@18:51:05","Mozilla/5.0 (Windows NT 10.0; Win64; x64) AppleWebKit/537.36 (KHTML, like Gecko) Chrome/99.0.4844.84 Safari/537.36",1920,1080,1920,969,"main",877810,18,7,8,7,"HE","Extreme","Harder than Reference","F","j","safeDeck","riskyDeck",28,0,14,"right",1,0,32,"present","riskyDeck",1174,1299,1,0
"tccbf44h8j",1245.3,432.249765309396,13408,"01/04/2022@18:51:05","Mozilla/5.0 (Windows NT 10.0; Win64; x64) AppleWebKit/537.36 (KHTML, like Gecko) Chrome/99.0.4844.84 Safari/537.36",1920,1080,1920,969,"main",877810,18,8,8,7,"HE","Extreme","Harder than Reference","F","k","safeDeck","riskyDeck",28,0,14,"right",1,0,32,"absent","riskyDeck",1174,1244,1,0
"tccbf44h8j",1245.3,432.249765309396,13408,"01/04/2022@18:51:05","Mozilla/5.0 (Windows NT 10.0; Win64; x64) AppleWebKit/537.36 (KHTML, like Gecko) Chrome/99.0.4844.84 Safari/537.36",1920,1080,1920,969,"main",877810,18,9,8,7,"HE","Extreme","Harder than Reference","F","k","safeDeck","riskyDeck",28,0,14,"right",1,0,32,"absent","riskyDeck",1174,2682,1,0
"tccbf44h8j",1245.3,432.249765309396,13408,"01/04/2022@18:51:05","Mozilla/5.0 (Windows NT 10.0; Win64; x64) AppleWebKit/537.36 (KHTML, like Gecko) Chrome/99.0.4844.84 Safari/537.36",1920,1080,1920,969,"main",877810,19,1,8,7,"EM","Moderate","Easier than Reference","F","k","safeDeck","riskyDeck",0,-28,-14,"right",1,0,32,"absent","riskyDeck",930,2374,1,0
"tccbf44h8j",1245.3,432.249765309396,13408,"01/04/2022@18:51:05","Mozilla/5.0 (Windows NT 10.0; Win64; x64) AppleWebKit/537.36 (KHTML, like Gecko) Chrome/99.0.4844.84 Safari/537.36",1920,1080,1920,969,"main",877810,19,2,8,7,"EM","Moderate","Easier than Reference","F","k","safeDeck","riskyDeck",0,-28,-14,"right",1,0,32,"absent","riskyDeck",930,2181,1,0
"tccbf44h8j",1245.3,432.249765309396,13408,"01/04/2022@18:51:05","Mozilla/5.0 (Windows NT 10.0; Win64; x64) AppleWebKit/537.36 (KHTML, like Gecko) Chrome/99.0.4844.84 Safari/537.36",1920,1080,1920,969,"main",877810,19,3,8,7,"EM","Moderate","Easier than Reference","F","k","safeDeck","riskyDeck",0,-28,-14,"right",1,0,32,"absent","riskyDeck",930,1959,1,0
"tccbf44h8j",1245.3,432.249765309396,13408,"01/04/2022@18:51:05","Mozilla/5.0 (Windows NT 10.0; Win64; x64) AppleWebKit/537.36 (KHTML, like Gecko) Chrome/99.0.4844.84 Safari/537.36",1920,1080,1920,969,"main",877810,19,4,8,7,"EM","Moderate","Easier than Reference","F","j","safeDeck","riskyDeck",0,-28,-14,"right",1,0,32,"present","riskyDeck",930,1774,1,0
"tccbf44h8j",1245.3,432.249765309396,13408,"01/04/2022@18:51:05","Mozilla/5.0 (Windows NT 10.0; Win64; x64) AppleWebKit/537.36 (KHTML, like Gecko) Chrome/99.0.4844.84 Safari/537.36",1920,1080,1920,969,"main",877810,19,5,8,7,"EM","Moderate","Easier than Reference","F","j","safeDeck","riskyDeck",0,-28,-14,"right",1,0,32,"present","riskyDeck",930,773,1,0
"tccbf44h8j",1245.3,432.249765309396,13408,"01/04/2022@18:51:05","Mozilla/5.0 (Windows NT 10.0; Win64; x64) AppleWebKit/537.36 (KHTML, like Gecko) Chrome/99.0.4844.84 Safari/537.36",1920,1080,1920,969,"main",877810,19,6,8,7,"EM","Moderate","Easier than Reference","F","k","safeDeck","riskyDeck",0,-28,-14,"right",1,0,32,"absent","riskyDeck",930,1301,1,0
"tccbf44h8j",1245.3,432.249765309396,13408,"01/04/2022@18:51:05","Mozilla/5.0 (Windows NT 10.0; Win64; x64) AppleWebKit/537.36 (KHTML, like Gecko) Chrome/99.0.4844.84 Safari/537.36",1920,1080,1920,969,"main",877810,19,7,8,7,"EM","Moderate","Easier than Reference","F","j","safeDeck","riskyDeck",0,-28,-14,"right",1,0,32,"present","riskyDeck",930,1022,1,0
"tccbf44h8j",1245.3,432.249765309396,13408,"01/04/2022@18:51:05","Mozilla/5.0 (Windows NT 10.0; Win64; x64) AppleWebKit/537.36 (KHTML, like Gecko) Chrome/99.0.4844.84 Safari/537.36",1920,1080,1920,969,"main",877810,19,8,8,7,"EM","Moderate","Easier than Reference","F","k","safeDeck","riskyDeck",0,-28,-14,"right",1,0,32,"absent","riskyDeck",930,2943,1,0
"tccbf44h8j",1245.3,432.249765309396,13408,"01/04/2022@18:51:05","Mozilla/5.0 (Windows NT 10.0; Win64; x64) AppleWebKit/537.36 (KHTML, like Gecko) Chrome/99.0.4844.84 Safari/537.36",1920,1080,1920,969,"main",877810,19,9,8,7,"EM","Moderate","Easier than Reference","F","k","safeDeck","riskyDeck",0,-28,-14,"right",1,0,32,"absent","riskyDeck",930,1636,1,0
"tccbf44h8j",1245.3,432.249765309396,13408,"01/04/2022@18:51:05","Mozilla/5.0 (Windows NT 10.0; Win64; x64) AppleWebKit/537.36 (KHTML, like Gecko) Chrome/99.0.4844.84 Safari/537.36",1920,1080,1920,969,"main",877810,20,1,8,7,"EE","Extreme","Easier than Reference","D","k","riskyDeck","safeDeck",0,-14,-7,"left",1,0,32,"absent","riskyDeck",819,1909,-1,0
"tccbf44h8j",1245.3,432.249765309396,13408,"01/04/2022@18:51:05","Mozilla/5.0 (Windows NT 10.0; Win64; x64) AppleWebKit/537.36 (KHTML, like Gecko) Chrome/99.0.4844.84 Safari/537.36",1920,1080,1920,969,"main",877810,20,2,8,7,"EE","Extreme","Easier than Reference","D","j","riskyDeck","safeDeck",0,-14,-7,"left",1,0,32,"present","riskyDeck",819,695,-1,0
"tccbf44h8j",1245.3,432.249765309396,13408,"01/04/2022@18:51:05","Mozilla/5.0 (Windows NT 10.0; Win64; x64) AppleWebKit/537.36 (KHTML, like Gecko) Chrome/99.0.4844.84 Safari/537.36",1920,1080,1920,969,"main",877810,20,3,8,7,"EE","Extreme","Easier than Reference","D","k","riskyDeck","safeDeck",0,-14,-7,"left",1,0,32,"absent","riskyDeck",819,1529,-1,0
"tccbf44h8j",1245.3,432.249765309396,13408,"01/04/2022@18:51:05","Mozilla/5.0 (Windows NT 10.0; Win64; x64) AppleWebKit/537.36 (KHTML, like Gecko) Chrome/99.0.4844.84 Safari/537.36",1920,1080,1920,969,"main",877810,20,4,8,7,"EE","Extreme","Easier than Reference","D","k","riskyDeck","safeDeck",0,-14,-7,"left",1,0,32,"absent","riskyDeck",819,2016,-1,0
"tccbf44h8j",1245.3,432.249765309396,13408,"01/04/2022@18:51:05","Mozilla/5.0 (Windows NT 10.0; Win64; x64) AppleWebKit/537.36 (KHTML, like Gecko) Chrome/99.0.4844.84 Safari/537.36",1920,1080,1920,969,"main",877810,20,5,8,8,"EE","Extreme","Easier than Reference","D","k","riskyDeck","safeDeck",0,-14,-7,"left",1,0,32,"absent","riskyDeck",819,5672,-1,0
"tccbf44h8j",1245.3,432.249765309396,13408,"01/04/2022@18:51:05","Mozilla/5.0 (Windows NT 10.0; Win64; x64) AppleWebKit/537.36 (KHTML, like Gecko) Chrome/99.0.4844.84 Safari/537.36",1920,1080,1920,969,"main",877810,20,6,9,8,"EE","Extreme","Easier than Reference","D","k","riskyDeck","safeDeck",0,-14,-7,"left",1,0,32,"absent","riskyDeck",819,2525,-1,0
"tccbf44h8j",1245.3,432.249765309396,13408,"01/04/2022@18:51:05","Mozilla/5.0 (Windows NT 10.0; Win64; x64) AppleWebKit/537.36 (KHTML, like Gecko) Chrome/99.0.4844.84 Safari/537.36",1920,1080,1920,969,"main",877810,20,7,9,8,"EE","Extreme","Easier than Reference","D","k","riskyDeck","safeDeck",0,-14,-7,"left",1,0,32,"absent","riskyDeck",819,1945,-1,0
"tccbf44h8j",1245.3,432.249765309396,13408,"01/04/2022@18:51:05","Mozilla/5.0 (Windows NT 10.0; Win64; x64) AppleWebKit/537.36 (KHTML, like Gecko) Chrome/99.0.4844.84 Safari/537.36",1920,1080,1920,969,"main",877810,20,8,9,8,"EE","Extreme","Easier than Reference","D","j","riskyDeck","safeDeck",0,-14,-7,"left",1,0,32,"present","riskyDeck",819,913,-1,0
"tccbf44h8j",1245.3,432.249765309396,13408,"01/04/2022@18:51:05","Mozilla/5.0 (Windows NT 10.0; Win64; x64) AppleWebKit/537.36 (KHTML, like Gecko) Chrome/99.0.4844.84 Safari/537.36",1920,1080,1920,969,"main",877810,20,9,9,8,"EE","Extreme","Easier than Reference","D","k","riskyDeck","safeDeck",0,-14,-7,"left",1,0,32,"absent","riskyDeck",819,5206,-1,0
"tccbf44h8j",1245.3,432.249765309396,13408,"01/04/2022@18:51:05","Mozilla/5.0 (Windows NT 10.0; Win64; x64) AppleWebKit/537.36 (KHTML, like Gecko) Chrome/99.0.4844.84 Safari/537.36",1920,1080,1920,969,"main",877810,21,1,9,8,"EE","Extreme","Easier than Reference","F","k","safeDeck","riskyDeck",-14,0,-7,"right",1,0,18,"absent","riskyDeck",1278,877,1,0
"tccbf44h8j",1245.3,432.249765309396,13408,"01/04/2022@18:51:05","Mozilla/5.0 (Windows NT 10.0; Win64; x64) AppleWebKit/537.36 (KHTML, like Gecko) Chrome/99.0.4844.84 Safari/537.36",1920,1080,1920,969,"main",877810,21,2,9,8,"EE","Extreme","Easier than Reference","F","j","safeDeck","riskyDeck",-14,0,-7,"right",1,0,18,"present","riskyDeck",1278,1663,1,0
"tccbf44h8j",1245.3,432.249765309396,13408,"01/04/2022@18:51:05","Mozilla/5.0 (Windows NT 10.0; Win64; x64) AppleWebKit/537.36 (KHTML, like Gecko) Chrome/99.0.4844.84 Safari/537.36",1920,1080,1920,969,"main",877810,21,3,9,8,"EE","Extreme","Easier than Reference","F","k","safeDeck","riskyDeck",-14,0,-7,"right",1,0,18,"absent","riskyDeck",1278,1330,1,0
"tccbf44h8j",1245.3,432.249765309396,13408,"01/04/2022@18:51:05","Mozilla/5.0 (Windows NT 10.0; Win64; x64) AppleWebKit/537.36 (KHTML, like Gecko) Chrome/99.0.4844.84 Safari/537.36",1920,1080,1920,969,"main",877810,21,4,9,8,"EE","Extreme","Easier than Reference","F","k","safeDeck","riskyDeck",-14,0,-7,"right",1,0,18,"absent","riskyDeck",1278,1502,1,0
"tccbf44h8j",1245.3,432.249765309396,13408,"01/04/2022@18:51:05","Mozilla/5.0 (Windows NT 10.0; Win64; x64) AppleWebKit/537.36 (KHTML, like Gecko) Chrome/99.0.4844.84 Safari/537.36",1920,1080,1920,969,"main",877810,21,5,9,8,"EE","Extreme","Easier than Reference","F","k","safeDeck","riskyDeck",-14,0,-7,"right",1,0,18,"absent","riskyDeck",1278,1115,1,0
"tccbf44h8j",1245.3,432.249765309396,13408,"01/04/2022@18:51:05","Mozilla/5.0 (Windows NT 10.0; Win64; x64) AppleWebKit/537.36 (KHTML, like Gecko) Chrome/99.0.4844.84 Safari/537.36",1920,1080,1920,969,"main",877810,21,6,9,8,"EE","Extreme","Easier than Reference","F","j","safeDeck","riskyDeck",-14,0,-7,"right",1,0,18,"present","riskyDeck",1278,1107,1,0
"tccbf44h8j",1245.3,432.249765309396,13408,"01/04/2022@18:51:05","Mozilla/5.0 (Windows NT 10.0; Win64; x64) AppleWebKit/537.36 (KHTML, like Gecko) Chrome/99.0.4844.84 Safari/537.36",1920,1080,1920,969,"main",877810,21,7,9,8,"EE","Extreme","Easier than Reference","F","k","safeDeck","riskyDeck",-14,0,-7,"right",1,1,18,"present","riskyDeck",1278,1186,1,0
"tccbf44h8j",1245.3,432.249765309396,13408,"01/04/2022@18:51:05","Mozilla/5.0 (Windows NT 10.0; Win64; x64) AppleWebKit/537.36 (KHTML, like Gecko) Chrome/99.0.4844.84 Safari/537.36",1920,1080,1920,969,"main",877810,21,8,9,8,"EE","Extreme","Easier than Reference","F","k","safeDeck","riskyDeck",-14,0,-7,"right",1,0,18,"absent","riskyDeck",1278,1001,1,0
"tccbf44h8j",1245.3,432.249765309396,13408,"01/04/2022@18:51:05","Mozilla/5.0 (Windows NT 10.0; Win64; x64) AppleWebKit/537.36 (KHTML, like Gecko) Chrome/99.0.4844.84 Safari/537.36",1920,1080,1920,969,"main",877810,21,9,9,8,"EE","Extreme","Easier than Reference","F","k","safeDeck","riskyDeck",-14,0,-7,"right",1,0,18,"absent","riskyDeck",1278,938,1,0
"tccbf44h8j",1245.3,432.249765309396,13408,"01/04/2022@18:51:05","Mozilla/5.0 (Windows NT 10.0; Win64; x64) AppleWebKit/537.36 (KHTML, like Gecko) Chrome/99.0.4844.84 Safari/537.36",1920,1080,1920,969,"main",877810,22,1,9,8,"EM","Moderate","Easier than Reference","D","j","riskyDeck","safeDeck",0,-28,-14,"left",1,0,32,"present","riskyDeck",1407,1239,-1,0
"tccbf44h8j",1245.3,432.249765309396,13408,"01/04/2022@18:51:05","Mozilla/5.0 (Windows NT 10.0; Win64; x64) AppleWebKit/537.36 (KHTML, like Gecko) Chrome/99.0.4844.84 Safari/537.36",1920,1080,1920,969,"main",877810,22,2,9,8,"EM","Moderate","Easier than Reference","D","k","riskyDeck","safeDeck",0,-28,-14,"left",1,0,32,"absent","riskyDeck",1407,1422,-1,0
"tccbf44h8j",1245.3,432.249765309396,13408,"01/04/2022@18:51:05","Mozilla/5.0 (Windows NT 10.0; Win64; x64) AppleWebKit/537.36 (KHTML, like Gecko) Chrome/99.0.4844.84 Safari/537.36",1920,1080,1920,969,"main",877810,22,3,9,8,"EM","Moderate","Easier than Reference","D","j","riskyDeck","safeDeck",0,-28,-14,"left",1,0,32,"present","riskyDeck",1407,613,-1,0
"tccbf44h8j",1245.3,432.249765309396,13408,"01/04/2022@18:51:05","Mozilla/5.0 (Windows NT 10.0; Win64; x64) AppleWebKit/537.36 (KHTML, like Gecko) Chrome/99.0.4844.84 Safari/537.36",1920,1080,1920,969,"main",877810,22,4,9,8,"EM","Moderate","Easier than Reference","D","j","riskyDeck","safeDeck",0,-28,-14,"left",1,0,32,"present","riskyDeck",1407,1074,-1,0
"tccbf44h8j",1245.3,432.249765309396,13408,"01/04/2022@18:51:05","Mozilla/5.0 (Windows NT 10.0; Win64; x64) AppleWebKit/537.36 (KHTML, like Gecko) Chrome/99.0.4844.84 Safari/537.36",1920,1080,1920,969,"main",877810,22,5,9,8,"EM","Moderate","Easier than Reference","D","k","riskyDeck","safeDeck",0,-28,-14,"left",1,0,32,"absent","riskyDeck",1407,1225,-1,0
"tccbf44h8j",1245.3,432.249765309396,13408,"01/04/2022@18:51:05","Mozilla/5.0 (Windows NT 10.0; Win64; x64) AppleWebKit/537.36 (KHTML, like Gecko) Chrome/99.0.4844.84 Safari/537.36",1920,1080,1920,969,"main",877810,22,6,9,8,"EM","Moderate","Easier than Reference","D","k","riskyDeck","safeDeck",0,-28,-14,"left",1,1,32,"present","riskyDeck",1407,1722,-1,0
"tccbf44h8j",1245.3,432.249765309396,13408,"01/04/2022@18:51:05","Mozilla/5.0 (Windows NT 10.0; Win64; x64) AppleWebKit/537.36 (KHTML, like Gecko) Chrome/99.0.4844.84 Safari/537.36",1920,1080,1920,969,"main",877810,22,7,9,8,"EM","Moderate","Easier than Reference","D","k","riskyDeck","safeDeck",0,-28,-14,"left",1,0,32,"absent","riskyDeck",1407,4225,-1,0
"tccbf44h8j",1245.3,432.249765309396,13408,"01/04/2022@18:51:05","Mozilla/5.0 (Windows NT 10.0; Win64; x64) AppleWebKit/537.36 (KHTML, like Gecko) Chrome/99.0.4844.84 Safari/537.36",1920,1080,1920,969,"main",877810,22,8,9,8,"EM","Moderate","Easier than Reference","D","j","riskyDeck","safeDeck",0,-28,-14,"left",1,0,32,"present","riskyDeck",1407,699,-1,0
"tccbf44h8j",1245.3,432.249765309396,13408,"01/04/2022@18:51:05","Mozilla/5.0 (Windows NT 10.0; Win64; x64) AppleWebKit/537.36 (KHTML, like Gecko) Chrome/99.0.4844.84 Safari/537.36",1920,1080,1920,969,"main",877810,22,9,9,8,"EM","Moderate","Easier than Reference","D","j","riskyDeck","safeDeck",0,-28,-14,"left",1,0,32,"present","riskyDeck",1407,846,-1,0
"tccbf44h8j",1245.3,432.249765309396,13408,"01/04/2022@18:51:05","Mozilla/5.0 (Windows NT 10.0; Win64; x64) AppleWebKit/537.36 (KHTML, like Gecko) Chrome/99.0.4844.84 Safari/537.36",1920,1080,1920,969,"main",877810,23,1,9,9,"HM","Moderate","Harder than Reference","F","k","safeDeck","riskyDeck",0,14,7,"right",1,0,32,"absent","riskyDeck",1809,1105,1,0
"tccbf44h8j",1245.3,432.249765309396,13408,"01/04/2022@18:51:05","Mozilla/5.0 (Windows NT 10.0; Win64; x64) AppleWebKit/537.36 (KHTML, like Gecko) Chrome/99.0.4844.84 Safari/537.36",1920,1080,1920,969,"main",877810,23,2,9,9,"HM","Moderate","Harder than Reference","F","k","safeDeck","riskyDeck",0,14,7,"right",1,1,32,"present","riskyDeck",1809,892,1,0
"tccbf44h8j",1245.3,432.249765309396,13408,"01/04/2022@18:51:05","Mozilla/5.0 (Windows NT 10.0; Win64; x64) AppleWebKit/537.36 (KHTML, like Gecko) Chrome/99.0.4844.84 Safari/537.36",1920,1080,1920,969,"main",877810,23,3,10,9,"HM","Moderate","Harder than Reference","F","k","safeDeck","riskyDeck",0,14,7,"right",1,0,32,"absent","riskyDeck",1809,1514,1,0
"tccbf44h8j",1245.3,432.249765309396,13408,"01/04/2022@18:51:05","Mozilla/5.0 (Windows NT 10.0; Win64; x64) AppleWebKit/537.36 (KHTML, like Gecko) Chrome/99.0.4844.84 Safari/537.36",1920,1080,1920,969,"main",877810,23,4,10,9,"HM","Moderate","Harder than Reference","F","k","safeDeck","riskyDeck",0,14,7,"right",1,0,32,"absent","riskyDeck",1809,2416,1,0
"tccbf44h8j",1245.3,432.249765309396,13408,"01/04/2022@18:51:05","Mozilla/5.0 (Windows NT 10.0; Win64; x64) AppleWebKit/537.36 (KHTML, like Gecko) Chrome/99.0.4844.84 Safari/537.36",1920,1080,1920,969,"main",877810,23,5,10,9,"HM","Moderate","Harder than Reference","F","j","safeDeck","riskyDeck",0,14,7,"right",1,0,32,"present","riskyDeck",1809,2315,1,0
"tccbf44h8j",1245.3,432.249765309396,13408,"01/04/2022@18:51:05","Mozilla/5.0 (Windows NT 10.0; Win64; x64) AppleWebKit/537.36 (KHTML, like Gecko) Chrome/99.0.4844.84 Safari/537.36",1920,1080,1920,969,"main",877810,23,6,10,9,"HM","Moderate","Harder than Reference","F","j","safeDeck","riskyDeck",0,14,7,"right",1,0,32,"present","riskyDeck",1809,1328,1,0
"tccbf44h8j",1245.3,432.249765309396,13408,"01/04/2022@18:51:05","Mozilla/5.0 (Windows NT 10.0; Win64; x64) AppleWebKit/537.36 (KHTML, like Gecko) Chrome/99.0.4844.84 Safari/537.36",1920,1080,1920,969,"main",877810,23,7,10,9,"HM","Moderate","Harder than Reference","F","j","safeDeck","riskyDeck",0,14,7,"right",1,0,32,"present","riskyDeck",1809,1298,1,0
"tccbf44h8j",1245.3,432.249765309396,13408,"01/04/2022@18:51:05","Mozilla/5.0 (Windows NT 10.0; Win64; x64) AppleWebKit/537.36 (KHTML, like Gecko) Chrome/99.0.4844.84 Safari/537.36",1920,1080,1920,969,"main",877810,23,8,10,9,"HM","Moderate","Harder than Reference","F","k","safeDeck","riskyDeck",0,14,7,"right",1,0,32,"absent","riskyDeck",1809,3310,1,0
"tccbf44h8j",1245.3,432.249765309396,13408,"01/04/2022@18:51:05","Mozilla/5.0 (Windows NT 10.0; Win64; x64) AppleWebKit/537.36 (KHTML, like Gecko) Chrome/99.0.4844.84 Safari/537.36",1920,1080,1920,969,"main",877810,23,9,10,9,"HM","Moderate","Harder than Reference","F","k","safeDeck","riskyDeck",0,14,7,"right",1,0,32,"absent","riskyDeck",1809,2718,1,0
"tccbf44h8j",1245.3,432.249765309396,13408,"01/04/2022@18:51:05","Mozilla/5.0 (Windows NT 10.0; Win64; x64) AppleWebKit/537.36 (KHTML, like Gecko) Chrome/99.0.4844.84 Safari/537.36",1920,1080,1920,969,"main",877810,24,1,10,9,"HE","Extreme","Harder than Reference","D","k","safeDeck","riskyDeck",28,0,14,"left",0,0,46,"absent","safeDeck",955,2553,-1,1
"tccbf44h8j",1245.3,432.249765309396,13408,"01/04/2022@18:51:05","Mozilla/5.0 (Windows NT 10.0; Win64; x64) AppleWebKit/537.36 (KHTML, like Gecko) Chrome/99.0.4844.84 Safari/537.36",1920,1080,1920,969,"main",877810,24,2,10,9,"HE","Extreme","Harder than Reference","D","k","safeDeck","riskyDeck",28,0,14,"left",0,0,46,"absent","safeDeck",955,1472,-1,1
"tccbf44h8j",1245.3,432.249765309396,13408,"01/04/2022@18:51:05","Mozilla/5.0 (Windows NT 10.0; Win64; x64) AppleWebKit/537.36 (KHTML, like Gecko) Chrome/99.0.4844.84 Safari/537.36",1920,1080,1920,969,"main",877810,24,3,10,9,"HE","Extreme","Harder than Reference","D","k","safeDeck","riskyDeck",28,0,14,"left",0,1,46,"present","safeDeck",955,3236,-1,1
"tccbf44h8j",1245.3,432.249765309396,13408,"01/04/2022@18:51:05","Mozilla/5.0 (Windows NT 10.0; Win64; x64) AppleWebKit/537.36 (KHTML, like Gecko) Chrome/99.0.4844.84 Safari/537.36",1920,1080,1920,969,"main",877810,24,4,10,9,"HE","Extreme","Harder than Reference","D","k","safeDeck","riskyDeck",28,0,14,"left",0,0,46,"absent","safeDeck",955,1893,-1,1
"tccbf44h8j",1245.3,432.249765309396,13408,"01/04/2022@18:51:05","Mozilla/5.0 (Windows NT 10.0; Win64; x64) AppleWebKit/537.36 (KHTML, like Gecko) Chrome/99.0.4844.84 Safari/537.36",1920,1080,1920,969,"main",877810,24,5,10,9,"HE","Extreme","Harder than Reference","D","k","safeDeck","riskyDeck",28,0,14,"left",0,0,46,"absent","safeDeck",955,2066,-1,1
"tccbf44h8j",1245.3,432.249765309396,13408,"01/04/2022@18:51:05","Mozilla/5.0 (Windows NT 10.0; Win64; x64) AppleWebKit/537.36 (KHTML, like Gecko) Chrome/99.0.4844.84 Safari/537.36",1920,1080,1920,969,"main",877810,24,6,10,9,"HE","Extreme","Harder than Reference","D","k","safeDeck","riskyDeck",28,0,14,"left",0,0,46,"absent","safeDeck",955,4294,-1,1
"tccbf44h8j",1245.3,432.249765309396,13408,"01/04/2022@18:51:05","Mozilla/5.0 (Windows NT 10.0; Win64; x64) AppleWebKit/537.36 (KHTML, like Gecko) Chrome/99.0.4844.84 Safari/537.36",1920,1080,1920,969,"main",877810,24,7,10,9,"HE","Extreme","Harder than Reference","D","k","safeDeck","riskyDeck",28,0,14,"left",0,0,46,"absent","safeDeck",955,3233,-1,1
"tccbf44h8j",1245.3,432.249765309396,13408,"01/04/2022@18:51:05","Mozilla/5.0 (Windows NT 10.0; Win64; x64) AppleWebKit/537.36 (KHTML, like Gecko) Chrome/99.0.4844.84 Safari/537.36",1920,1080,1920,969,"main",877810,24,8,10,9,"HE","Extreme","Harder than Reference","D","j","safeDeck","riskyDeck",28,0,14,"left",0,0,46,"present","safeDeck",955,960,-1,1
"tccbf44h8j",1245.3,432.249765309396,13408,"01/04/2022@18:51:05","Mozilla/5.0 (Windows NT 10.0; Win64; x64) AppleWebKit/537.36 (KHTML, like Gecko) Chrome/99.0.4844.84 Safari/537.36",1920,1080,1920,969,"main",877810,24,9,10,9,"HE","Extreme","Harder than Reference","D","k","safeDeck","riskyDeck",28,0,14,"left",0,0,46,"absent","safeDeck",955,2605,-1,1
"tccbf44h8j",1245.3,432.249765309396,13408,"01/04/2022@18:51:05","Mozilla/5.0 (Windows NT 10.0; Win64; x64) AppleWebKit/537.36 (KHTML, like Gecko) Chrome/99.0.4844.84 Safari/537.36",1920,1080,1920,969,"main",877810,25,1,10,9,"EM","Moderate","Easier than Reference","F","k","safeDeck","riskyDeck",0,-28,-14,"right",1,0,4,"absent","riskyDeck",1086,537,1,0
"tccbf44h8j",1245.3,432.249765309396,13408,"01/04/2022@18:51:05","Mozilla/5.0 (Windows NT 10.0; Win64; x64) AppleWebKit/537.36 (KHTML, like Gecko) Chrome/99.0.4844.84 Safari/537.36",1920,1080,1920,969,"main",877810,25,2,10,9,"EM","Moderate","Easier than Reference","F","k","safeDeck","riskyDeck",0,-28,-14,"right",1,0,4,"absent","riskyDeck",1086,784,1,0
"tccbf44h8j",1245.3,432.249765309396,13408,"01/04/2022@18:51:05","Mozilla/5.0 (Windows NT 10.0; Win64; x64) AppleWebKit/537.36 (KHTML, like Gecko) Chrome/99.0.4844.84 Safari/537.36",1920,1080,1920,969,"main",877810,25,3,10,9,"EM","Moderate","Easier than Reference","F","k","safeDeck","riskyDeck",0,-28,-14,"right",1,0,4,"absent","riskyDeck",1086,618,1,0
"tccbf44h8j",1245.3,432.249765309396,13408,"01/04/2022@18:51:05","Mozilla/5.0 (Windows NT 10.0; Win64; x64) AppleWebKit/537.36 (KHTML, like Gecko) Chrome/99.0.4844.84 Safari/537.36",1920,1080,1920,969,"main",877810,25,4,10,9,"EM","Moderate","Easier than Reference","F","j","safeDeck","riskyDeck",0,-28,-14,"right",1,0,4,"present","riskyDeck",1086,390,1,0
"tccbf44h8j",1245.3,432.249765309396,13408,"01/04/2022@18:51:05","Mozilla/5.0 (Windows NT 10.0; Win64; x64) AppleWebKit/537.36 (KHTML, like Gecko) Chrome/99.0.4844.84 Safari/537.36",1920,1080,1920,969,"main",877810,25,5,10,9,"EM","Moderate","Easier than Reference","F","j","safeDeck","riskyDeck",0,-28,-14,"right",1,0,4,"present","riskyDeck",1086,483,1,0
"tccbf44h8j",1245.3,432.249765309396,13408,"01/04/2022@18:51:05","Mozilla/5.0 (Windows NT 10.0; Win64; x64) AppleWebKit/537.36 (KHTML, like Gecko) Chrome/99.0.4844.84 Safari/537.36",1920,1080,1920,969,"main",877810,25,6,10,9,"EM","Moderate","Easier than Reference","F","j","safeDeck","riskyDeck",0,-28,-14,"right",1,0,4,"present","riskyDeck",1086,443,1,0
"tccbf44h8j",1245.3,432.249765309396,13408,"01/04/2022@18:51:05","Mozilla/5.0 (Windows NT 10.0; Win64; x64) AppleWebKit/537.36 (KHTML, like Gecko) Chrome/99.0.4844.84 Safari/537.36",1920,1080,1920,969,"main",877810,25,7,10,9,"EM","Moderate","Easier than Reference","F","k","safeDeck","riskyDeck",0,-28,-14,"right",1,0,4,"absent","riskyDeck",1086,581,1,0
"tccbf44h8j",1245.3,432.249765309396,13408,"01/04/2022@18:51:05","Mozilla/5.0 (Windows NT 10.0; Win64; x64) AppleWebKit/537.36 (KHTML, like Gecko) Chrome/99.0.4844.84 Safari/537.36",1920,1080,1920,969,"main",877810,25,8,10,10,"EM","Moderate","Easier than Reference","F","j","safeDeck","riskyDeck",0,-28,-14,"right",1,0,4,"present","riskyDeck",1086,568,1,0
"tccbf44h8j",1245.3,432.249765309396,13408,"01/04/2022@18:51:05","Mozilla/5.0 (Windows NT 10.0; Win64; x64) AppleWebKit/537.36 (KHTML, like Gecko) Chrome/99.0.4844.84 Safari/537.36",1920,1080,1920,969,"main",877810,25,9,10,10,"EM","Moderate","Easier than Reference","F","k","safeDeck","riskyDeck",0,-28,-14,"right",1,0,4,"absent","riskyDeck",1086,768,1,0
"tccbf44h8j",1245.3,432.249765309396,13408,"01/04/2022@18:51:05","Mozilla/5.0 (Windows NT 10.0; Win64; x64) AppleWebKit/537.36 (KHTML, like Gecko) Chrome/99.0.4844.84 Safari/537.36",1920,1080,1920,969,"main",877810,26,1,11,10,"HE","Extreme","Harder than Reference","D","k","riskyDeck","safeDeck",0,28,14,"left",1,0,32,"absent","riskyDeck",886,1862,-1,0
"tccbf44h8j",1245.3,432.249765309396,13408,"01/04/2022@18:51:05","Mozilla/5.0 (Windows NT 10.0; Win64; x64) AppleWebKit/537.36 (KHTML, like Gecko) Chrome/99.0.4844.84 Safari/537.36",1920,1080,1920,969,"main",877810,26,2,11,10,"HE","Extreme","Harder than Reference","D","k","riskyDeck","safeDeck",0,28,14,"left",1,0,32,"absent","riskyDeck",886,2053,-1,0
"tccbf44h8j",1245.3,432.249765309396,13408,"01/04/2022@18:51:05","Mozilla/5.0 (Windows NT 10.0; Win64; x64) AppleWebKit/537.36 (KHTML, like Gecko) Chrome/99.0.4844.84 Safari/537.36",1920,1080,1920,969,"main",877810,26,3,11,10,"HE","Extreme","Harder than Reference","D","k","riskyDeck","safeDeck",0,28,14,"left",1,0,32,"absent","riskyDeck",886,2357,-1,0
"tccbf44h8j",1245.3,432.249765309396,13408,"01/04/2022@18:51:05","Mozilla/5.0 (Windows NT 10.0; Win64; x64) AppleWebKit/537.36 (KHTML, like Gecko) Chrome/99.0.4844.84 Safari/537.36",1920,1080,1920,969,"main",877810,26,4,11,10,"HE","Extreme","Harder than Reference","D","j","riskyDeck","safeDeck",0,28,14,"left",1,0,32,"present","riskyDeck",886,1183,-1,0
"tccbf44h8j",1245.3,432.249765309396,13408,"01/04/2022@18:51:05","Mozilla/5.0 (Windows NT 10.0; Win64; x64) AppleWebKit/537.36 (KHTML, like Gecko) Chrome/99.0.4844.84 Safari/537.36",1920,1080,1920,969,"main",877810,26,5,11,10,"HE","Extreme","Harder than Reference","D","k","riskyDeck","safeDeck",0,28,14,"left",1,0,32,"absent","riskyDeck",886,1761,-1,0
"tccbf44h8j",1245.3,432.249765309396,13408,"01/04/2022@18:51:05","Mozilla/5.0 (Windows NT 10.0; Win64; x64) AppleWebKit/537.36 (KHTML, like Gecko) Chrome/99.0.4844.84 Safari/537.36",1920,1080,1920,969,"main",877810,26,6,11,10,"HE","Extreme","Harder than Reference","D","k","riskyDeck","safeDeck",0,28,14,"left",1,0,32,"absent","riskyDeck",886,950,-1,0
"tccbf44h8j",1245.3,432.249765309396,13408,"01/04/2022@18:51:05","Mozilla/5.0 (Windows NT 10.0; Win64; x64) AppleWebKit/537.36 (KHTML, like Gecko) Chrome/99.0.4844.84 Safari/537.36",1920,1080,1920,969,"main",877810,26,7,11,10,"HE","Extreme","Harder than Reference","D","k","riskyDeck","safeDeck",0,28,14,"left",1,0,32,"absent","riskyDeck",886,1582,-1,0
"tccbf44h8j",1245.3,432.249765309396,13408,"01/04/2022@18:51:05","Mozilla/5.0 (Windows NT 10.0; Win64; x64) AppleWebKit/537.36 (KHTML, like Gecko) Chrome/99.0.4844.84 Safari/537.36",1920,1080,1920,969,"main",877810,26,8,11,10,"HE","Extreme","Harder than Reference","D","j","riskyDeck","safeDeck",0,28,14,"left",1,0,32,"present","riskyDeck",886,507,-1,0
"tccbf44h8j",1245.3,432.249765309396,13408,"01/04/2022@18:51:05","Mozilla/5.0 (Windows NT 10.0; Win64; x64) AppleWebKit/537.36 (KHTML, like Gecko) Chrome/99.0.4844.84 Safari/537.36",1920,1080,1920,969,"main",877810,26,9,11,10,"HE","Extreme","Harder than Reference","D","k","riskyDeck","safeDeck",0,28,14,"left",1,0,32,"absent","riskyDeck",886,2486,-1,0
"tccbf44h8j",1245.3,432.249765309396,13408,"01/04/2022@18:51:05","Mozilla/5.0 (Windows NT 10.0; Win64; x64) AppleWebKit/537.36 (KHTML, like Gecko) Chrome/99.0.4844.84 Safari/537.36",1920,1080,1920,969,"main",877810,27,1,11,10,"EE","Extreme","Easier than Reference","D","j","riskyDeck","safeDeck",0,-14,-7,"left",1,0,32,"present","riskyDeck",800,644,-1,0
"tccbf44h8j",1245.3,432.249765309396,13408,"01/04/2022@18:51:05","Mozilla/5.0 (Windows NT 10.0; Win64; x64) AppleWebKit/537.36 (KHTML, like Gecko) Chrome/99.0.4844.84 Safari/537.36",1920,1080,1920,969,"main",877810,27,2,11,10,"EE","Extreme","Easier than Reference","D","k","riskyDeck","safeDeck",0,-14,-7,"left",1,0,32,"absent","riskyDeck",800,1089,-1,0
"tccbf44h8j",1245.3,432.249765309396,13408,"01/04/2022@18:51:05","Mozilla/5.0 (Windows NT 10.0; Win64; x64) AppleWebKit/537.36 (KHTML, like Gecko) Chrome/99.0.4844.84 Safari/537.36",1920,1080,1920,969,"main",877810,27,3,11,10,"EE","Extreme","Easier than Reference","D","j","riskyDeck","safeDeck",0,-14,-7,"left",1,0,32,"present","riskyDeck",800,1016,-1,0
"tccbf44h8j",1245.3,432.249765309396,13408,"01/04/2022@18:51:05","Mozilla/5.0 (Windows NT 10.0; Win64; x64) AppleWebKit/537.36 (KHTML, like Gecko) Chrome/99.0.4844.84 Safari/537.36",1920,1080,1920,969,"main",877810,27,4,11,10,"EE","Extreme","Easier than Reference","D","k","riskyDeck","safeDeck",0,-14,-7,"left",1,0,32,"absent","riskyDeck",800,1335,-1,0
"tccbf44h8j",1245.3,432.249765309396,13408,"01/04/2022@18:51:05","Mozilla/5.0 (Windows NT 10.0; Win64; x64) AppleWebKit/537.36 (KHTML, like Gecko) Chrome/99.0.4844.84 Safari/537.36",1920,1080,1920,969,"main",877810,27,5,11,10,"EE","Extreme","Easier than Reference","D","k","riskyDeck","safeDeck",0,-14,-7,"left",1,0,32,"absent","riskyDeck",800,1216,-1,0
"tccbf44h8j",1245.3,432.249765309396,13408,"01/04/2022@18:51:05","Mozilla/5.0 (Windows NT 10.0; Win64; x64) AppleWebKit/537.36 (KHTML, like Gecko) Chrome/99.0.4844.84 Safari/537.36",1920,1080,1920,969,"main",877810,27,6,11,10,"EE","Extreme","Easier than Reference","D","k","riskyDeck","safeDeck",0,-14,-7,"left",1,0,32,"absent","riskyDeck",800,1475,-1,0
"tccbf44h8j",1245.3,432.249765309396,13408,"01/04/2022@18:51:05","Mozilla/5.0 (Windows NT 10.0; Win64; x64) AppleWebKit/537.36 (KHTML, like Gecko) Chrome/99.0.4844.84 Safari/537.36",1920,1080,1920,969,"main",877810,27,7,11,10,"EE","Extreme","Easier than Reference","D","j","riskyDeck","safeDeck",0,-14,-7,"left",1,0,32,"present","riskyDeck",800,2067,-1,0
"tccbf44h8j",1245.3,432.249765309396,13408,"01/04/2022@18:51:05","Mozilla/5.0 (Windows NT 10.0; Win64; x64) AppleWebKit/537.36 (KHTML, like Gecko) Chrome/99.0.4844.84 Safari/537.36",1920,1080,1920,969,"main",877810,27,8,11,10,"EE","Extreme","Easier than Reference","D","j","riskyDeck","safeDeck",0,-14,-7,"left",1,0,32,"present","riskyDeck",800,782,-1,0
"tccbf44h8j",1245.3,432.249765309396,13408,"01/04/2022@18:51:05","Mozilla/5.0 (Windows NT 10.0; Win64; x64) AppleWebKit/537.36 (KHTML, like Gecko) Chrome/99.0.4844.84 Safari/537.36",1920,1080,1920,969,"main",877810,27,9,11,10,"EE","Extreme","Easier than Reference","D","j","riskyDeck","safeDeck",0,-14,-7,"left",1,0,32,"present","riskyDeck",800,1411,-1,0
"tccbf44h8j",1245.3,432.249765309396,13408,"01/04/2022@18:51:05","Mozilla/5.0 (Windows NT 10.0; Win64; x64) AppleWebKit/537.36 (KHTML, like Gecko) Chrome/99.0.4844.84 Safari/537.36",1920,1080,1920,969,"main",877810,28,1,11,10,"HM","Moderate","Harder than Reference","F","j","safeDeck","riskyDeck",14,0,7,"right",1,0,32,"present","riskyDeck",986,616,1,0
"tccbf44h8j",1245.3,432.249765309396,13408,"01/04/2022@18:51:05","Mozilla/5.0 (Windows NT 10.0; Win64; x64) AppleWebKit/537.36 (KHTML, like Gecko) Chrome/99.0.4844.84 Safari/537.36",1920,1080,1920,969,"main",877810,28,2,11,10,"HM","Moderate","Harder than Reference","F","k","safeDeck","riskyDeck",14,0,7,"right",1,0,32,"absent","riskyDeck",986,1508,1,0
"tccbf44h8j",1245.3,432.249765309396,13408,"01/04/2022@18:51:05","Mozilla/5.0 (Windows NT 10.0; Win64; x64) AppleWebKit/537.36 (KHTML, like Gecko) Chrome/99.0.4844.84 Safari/537.36",1920,1080,1920,969,"main",877810,28,3,11,10,"HM","Moderate","Harder than Reference","F","k","safeDeck","riskyDeck",14,0,7,"right",1,0,32,"absent","riskyDeck",986,2053,1,0
"tccbf44h8j",1245.3,432.249765309396,13408,"01/04/2022@18:51:05","Mozilla/5.0 (Windows NT 10.0; Win64; x64) AppleWebKit/537.36 (KHTML, like Gecko) Chrome/99.0.4844.84 Safari/537.36",1920,1080,1920,969,"main",877810,28,4,11,10,"HM","Moderate","Harder than Reference","F","j","safeDeck","riskyDeck",14,0,7,"right",1,0,32,"present","riskyDeck",986,539,1,0
"tccbf44h8j",1245.3,432.249765309396,13408,"01/04/2022@18:51:05","Mozilla/5.0 (Windows NT 10.0; Win64; x64) AppleWebKit/537.36 (KHTML, like Gecko) Chrome/99.0.4844.84 Safari/537.36",1920,1080,1920,969,"main",877810,28,5,11,10,"HM","Moderate","Harder than Reference","F","k","safeDeck","riskyDeck",14,0,7,"right",1,0,32,"absent","riskyDeck",986,1525,1,0
"tccbf44h8j",1245.3,432.249765309396,13408,"01/04/2022@18:51:05","Mozilla/5.0 (Windows NT 10.0; Win64; x64) AppleWebKit/537.36 (KHTML, like Gecko) Chrome/99.0.4844.84 Safari/537.36",1920,1080,1920,969,"main",877810,28,6,11,10,"HM","Moderate","Harder than Reference","F","k","safeDeck","riskyDeck",14,0,7,"right",1,0,32,"absent","riskyDeck",986,1158,1,0
"tccbf44h8j",1245.3,432.249765309396,13408,"01/04/2022@18:51:05","Mozilla/5.0 (Windows NT 10.0; Win64; x64) AppleWebKit/537.36 (KHTML, like Gecko) Chrome/99.0.4844.84 Safari/537.36",1920,1080,1920,969,"main",877810,28,7,11,10,"HM","Moderate","Harder than Reference","F","j","safeDeck","riskyDeck",14,0,7,"right",1,0,32,"present","riskyDeck",986,1148,1,0
"tccbf44h8j",1245.3,432.249765309396,13408,"01/04/2022@18:51:05","Mozilla/5.0 (Windows NT 10.0; Win64; x64) AppleWebKit/537.36 (KHTML, like Gecko) Chrome/99.0.4844.84 Safari/537.36",1920,1080,1920,969,"main",877810,28,8,11,10,"HM","Moderate","Harder than Reference","F","j","safeDeck","riskyDeck",14,0,7,"right",1,0,32,"present","riskyDeck",986,827,1,0
"tccbf44h8j",1245.3,432.249765309396,13408,"01/04/2022@18:51:05","Mozilla/5.0 (Windows NT 10.0; Win64; x64) AppleWebKit/537.36 (KHTML, like Gecko) Chrome/99.0.4844.84 Safari/537.36",1920,1080,1920,969,"main",877810,28,9,11,10,"HM","Moderate","Harder than Reference","F","j","safeDeck","riskyDeck",14,0,7,"right",1,0,32,"present","riskyDeck",986,1250,1,0
"tccbf44h8j",1245.3,432.249765309396,13408,"01/04/2022@18:51:05","Mozilla/5.0 (Windows NT 10.0; Win64; x64) AppleWebKit/537.36 (KHTML, like Gecko) Chrome/99.0.4844.84 Safari/537.36",1920,1080,1920,969,"main",877810,29,1,11,10,"EM","Moderate","Easier than Reference","F","j","safeDeck","riskyDeck",-28,0,-14,"right",1,0,32,"present","riskyDeck",1071,462,1,0
"tccbf44h8j",1245.3,432.249765309396,13408,"01/04/2022@18:51:05","Mozilla/5.0 (Windows NT 10.0; Win64; x64) AppleWebKit/537.36 (KHTML, like Gecko) Chrome/99.0.4844.84 Safari/537.36",1920,1080,1920,969,"main",877810,29,2,11,10,"EM","Moderate","Easier than Reference","F","k","safeDeck","riskyDeck",-28,0,-14,"right",1,0,32,"absent","riskyDeck",1071,1032,1,0
"tccbf44h8j",1245.3,432.249765309396,13408,"01/04/2022@18:51:05","Mozilla/5.0 (Windows NT 10.0; Win64; x64) AppleWebKit/537.36 (KHTML, like Gecko) Chrome/99.0.4844.84 Safari/537.36",1920,1080,1920,969,"main",877810,29,3,11,10,"EM","Moderate","Easier than Reference","F","j","safeDeck","riskyDeck",-28,0,-14,"right",1,0,32,"present","riskyDeck",1071,1102,1,0
"tccbf44h8j",1245.3,432.249765309396,13408,"01/04/2022@18:51:05","Mozilla/5.0 (Windows NT 10.0; Win64; x64) AppleWebKit/537.36 (KHTML, like Gecko) Chrome/99.0.4844.84 Safari/537.36",1920,1080,1920,969,"main",877810,29,4,11,11,"EM","Moderate","Easier than Reference","F","k","safeDeck","riskyDeck",-28,0,-14,"right",1,1,32,"present","riskyDeck",1071,1612,1,0
"tccbf44h8j",1245.3,432.249765309396,13408,"01/04/2022@18:51:05","Mozilla/5.0 (Windows NT 10.0; Win64; x64) AppleWebKit/537.36 (KHTML, like Gecko) Chrome/99.0.4844.84 Safari/537.36",1920,1080,1920,969,"main",877810,29,5,11,11,"EM","Moderate","Easier than Reference","F","k","safeDeck","riskyDeck",-28,0,-14,"right",1,1,32,"present","riskyDeck",1071,1443,1,0
"tccbf44h8j",1245.3,432.249765309396,13408,"01/04/2022@18:51:05","Mozilla/5.0 (Windows NT 10.0; Win64; x64) AppleWebKit/537.36 (KHTML, like Gecko) Chrome/99.0.4844.84 Safari/537.36",1920,1080,1920,969,"main",877810,29,6,12,11,"EM","Moderate","Easier than Reference","F","j","safeDeck","riskyDeck",-28,0,-14,"right",1,0,32,"present","riskyDeck",1071,1411,1,0
"tccbf44h8j",1245.3,432.249765309396,13408,"01/04/2022@18:51:05","Mozilla/5.0 (Windows NT 10.0; Win64; x64) AppleWebKit/537.36 (KHTML, like Gecko) Chrome/99.0.4844.84 Safari/537.36",1920,1080,1920,969,"main",877810,29,7,12,11,"EM","Moderate","Easier than Reference","F","k","safeDeck","riskyDeck",-28,0,-14,"right",1,0,32,"absent","riskyDeck",1071,2207,1,0
"tccbf44h8j",1245.3,432.249765309396,13408,"01/04/2022@18:51:05","Mozilla/5.0 (Windows NT 10.0; Win64; x64) AppleWebKit/537.36 (KHTML, like Gecko) Chrome/99.0.4844.84 Safari/537.36",1920,1080,1920,969,"main",877810,29,8,12,11,"EM","Moderate","Easier than Reference","F","k","safeDeck","riskyDeck",-28,0,-14,"right",1,0,32,"absent","riskyDeck",1071,1887,1,0
"tccbf44h8j",1245.3,432.249765309396,13408,"01/04/2022@18:51:05","Mozilla/5.0 (Windows NT 10.0; Win64; x64) AppleWebKit/537.36 (KHTML, like Gecko) Chrome/99.0.4844.84 Safari/537.36",1920,1080,1920,969,"main",877810,29,9,12,11,"EM","Moderate","Easier than Reference","F","k","safeDeck","riskyDeck",-28,0,-14,"right",1,0,32,"absent","riskyDeck",1071,1563,1,0
"tccbf44h8j",1245.3,432.249765309396,13408,"01/04/2022@18:51:05","Mozilla/5.0 (Windows NT 10.0; Win64; x64) AppleWebKit/537.36 (KHTML, like Gecko) Chrome/99.0.4844.84 Safari/537.36",1920,1080,1920,969,"main",877810,30,1,12,11,"HM","Moderate","Harder than Reference","F","k","safeDeck","riskyDeck",0,14,7,"right",1,0,46,"absent","riskyDeck",976,2480,1,0
"tccbf44h8j",1245.3,432.249765309396,13408,"01/04/2022@18:51:05","Mozilla/5.0 (Windows NT 10.0; Win64; x64) AppleWebKit/537.36 (KHTML, like Gecko) Chrome/99.0.4844.84 Safari/537.36",1920,1080,1920,969,"main",877810,30,2,12,11,"HM","Moderate","Harder than Reference","F","k","safeDeck","riskyDeck",0,14,7,"right",1,1,46,"present","riskyDeck",976,1573,1,0
"tccbf44h8j",1245.3,432.249765309396,13408,"01/04/2022@18:51:05","Mozilla/5.0 (Windows NT 10.0; Win64; x64) AppleWebKit/537.36 (KHTML, like Gecko) Chrome/99.0.4844.84 Safari/537.36",1920,1080,1920,969,"main",877810,30,3,12,11,"HM","Moderate","Harder than Reference","F","j","safeDeck","riskyDeck",0,14,7,"right",1,0,46,"present","riskyDeck",976,1631,1,0
"tccbf44h8j",1245.3,432.249765309396,13408,"01/04/2022@18:51:05","Mozilla/5.0 (Windows NT 10.0; Win64; x64) AppleWebKit/537.36 (KHTML, like Gecko) Chrome/99.0.4844.84 Safari/537.36",1920,1080,1920,969,"main",877810,30,4,12,11,"HM","Moderate","Harder than Reference","F","k","safeDeck","riskyDeck",0,14,7,"right",1,1,46,"present","riskyDeck",976,2374,1,0
"tccbf44h8j",1245.3,432.249765309396,13408,"01/04/2022@18:51:05","Mozilla/5.0 (Windows NT 10.0; Win64; x64) AppleWebKit/537.36 (KHTML, like Gecko) Chrome/99.0.4844.84 Safari/537.36",1920,1080,1920,969,"main",877810,30,5,12,11,"HM","Moderate","Harder than Reference","F","j","safeDeck","riskyDeck",0,14,7,"right",1,0,46,"present","riskyDeck",976,1415,1,0
"tccbf44h8j",1245.3,432.249765309396,13408,"01/04/2022@18:51:05","Mozilla/5.0 (Windows NT 10.0; Win64; x64) AppleWebKit/537.36 (KHTML, like Gecko) Chrome/99.0.4844.84 Safari/537.36",1920,1080,1920,969,"main",877810,30,6,12,11,"HM","Moderate","Harder than Reference","F","j","safeDeck","riskyDeck",0,14,7,"right",1,0,46,"present","riskyDeck",976,577,1,0
"tccbf44h8j",1245.3,432.249765309396,13408,"01/04/2022@18:51:05","Mozilla/5.0 (Windows NT 10.0; Win64; x64) AppleWebKit/537.36 (KHTML, like Gecko) Chrome/99.0.4844.84 Safari/537.36",1920,1080,1920,969,"main",877810,30,7,12,11,"HM","Moderate","Harder than Reference","F","k","safeDeck","riskyDeck",0,14,7,"right",1,0,46,"absent","riskyDeck",976,1821,1,0
"tccbf44h8j",1245.3,432.249765309396,13408,"01/04/2022@18:51:05","Mozilla/5.0 (Windows NT 10.0; Win64; x64) AppleWebKit/537.36 (KHTML, like Gecko) Chrome/99.0.4844.84 Safari/537.36",1920,1080,1920,969,"main",877810,30,8,12,11,"HM","Moderate","Harder than Reference","F","j","safeDeck","riskyDeck",0,14,7,"right",1,0,46,"present","riskyDeck",976,790,1,0
"tccbf44h8j",1245.3,432.249765309396,13408,"01/04/2022@18:51:05","Mozilla/5.0 (Windows NT 10.0; Win64; x64) AppleWebKit/537.36 (KHTML, like Gecko) Chrome/99.0.4844.84 Safari/537.36",1920,1080,1920,969,"main",877810,30,9,12,11,"HM","Moderate","Harder than Reference","F","k","safeDeck","riskyDeck",0,14,7,"right",1,0,46,"absent","riskyDeck",976,1826,1,0
"tccbf44h8j",1245.3,432.249765309396,13408,"01/04/2022@18:51:05","Mozilla/5.0 (Windows NT 10.0; Win64; x64) AppleWebKit/537.36 (KHTML, like Gecko) Chrome/99.0.4844.84 Safari/537.36",1920,1080,1920,969,"main",877810,31,1,12,11,"HE","Extreme","Harder than Reference","F","k","safeDeck","riskyDeck",28,0,14,"right",1,0,32,"absent","riskyDeck",855,4758,1,0
"tccbf44h8j",1245.3,432.249765309396,13408,"01/04/2022@18:51:05","Mozilla/5.0 (Windows NT 10.0; Win64; x64) AppleWebKit/537.36 (KHTML, like Gecko) Chrome/99.0.4844.84 Safari/537.36",1920,1080,1920,969,"main",877810,31,2,12,11,"HE","Extreme","Harder than Reference","F","j","safeDeck","riskyDeck",28,0,14,"right",1,0,32,"present","riskyDeck",855,1381,1,0
"tccbf44h8j",1245.3,432.249765309396,13408,"01/04/2022@18:51:05","Mozilla/5.0 (Windows NT 10.0; Win64; x64) AppleWebKit/537.36 (KHTML, like Gecko) Chrome/99.0.4844.84 Safari/537.36",1920,1080,1920,969,"main",877810,31,3,12,11,"HE","Extreme","Harder than Reference","F","k","safeDeck","riskyDeck",28,0,14,"right",1,0,32,"absent","riskyDeck",855,1241,1,0
"tccbf44h8j",1245.3,432.249765309396,13408,"01/04/2022@18:51:05","Mozilla/5.0 (Windows NT 10.0; Win64; x64) AppleWebKit/537.36 (KHTML, like Gecko) Chrome/99.0.4844.84 Safari/537.36",1920,1080,1920,969,"main",877810,31,4,12,11,"HE","Extreme","Harder than Reference","F","k","safeDeck","riskyDeck",28,0,14,"right",1,0,32,"absent","riskyDeck",855,1070,1,0
"tccbf44h8j",1245.3,432.249765309396,13408,"01/04/2022@18:51:05","Mozilla/5.0 (Windows NT 10.0; Win64; x64) AppleWebKit/537.36 (KHTML, like Gecko) Chrome/99.0.4844.84 Safari/537.36",1920,1080,1920,969,"main",877810,31,5,12,11,"HE","Extreme","Harder than Reference","F","k","safeDeck","riskyDeck",28,0,14,"right",1,0,32,"absent","riskyDeck",855,2030,1,0
"tccbf44h8j",1245.3,432.249765309396,13408,"01/04/2022@18:51:05","Mozilla/5.0 (Windows NT 10.0; Win64; x64) AppleWebKit/537.36 (KHTML, like Gecko) Chrome/99.0.4844.84 Safari/537.36",1920,1080,1920,969,"main",877810,31,6,12,11,"HE","Extreme","Harder than Reference","F","k","safeDeck","riskyDeck",28,0,14,"right",1,0,32,"absent","riskyDeck",855,1514,1,0
"tccbf44h8j",1245.3,432.249765309396,13408,"01/04/2022@18:51:05","Mozilla/5.0 (Windows NT 10.0; Win64; x64) AppleWebKit/537.36 (KHTML, like Gecko) Chrome/99.0.4844.84 Safari/537.36",1920,1080,1920,969,"main",877810,31,7,12,11,"HE","Extreme","Harder than Reference","F","k","safeDeck","riskyDeck",28,0,14,"right",1,1,32,"present","riskyDeck",855,2066,1,0
"tccbf44h8j",1245.3,432.249765309396,13408,"01/04/2022@18:51:05","Mozilla/5.0 (Windows NT 10.0; Win64; x64) AppleWebKit/537.36 (KHTML, like Gecko) Chrome/99.0.4844.84 Safari/537.36",1920,1080,1920,969,"main",877810,31,8,12,12,"HE","Extreme","Harder than Reference","F","k","safeDeck","riskyDeck",28,0,14,"right",1,0,32,"absent","riskyDeck",855,1775,1,0
"tccbf44h8j",1245.3,432.249765309396,13408,"01/04/2022@18:51:05","Mozilla/5.0 (Windows NT 10.0; Win64; x64) AppleWebKit/537.36 (KHTML, like Gecko) Chrome/99.0.4844.84 Safari/537.36",1920,1080,1920,969,"main",877810,31,9,13,12,"HE","Extreme","Harder than Reference","F","k","safeDeck","riskyDeck",28,0,14,"right",1,0,32,"absent","riskyDeck",855,2195,1,0
"tccbf44h8j",1245.3,432.249765309396,13408,"01/04/2022@18:51:05","Mozilla/5.0 (Windows NT 10.0; Win64; x64) AppleWebKit/537.36 (KHTML, like Gecko) Chrome/99.0.4844.84 Safari/537.36",1920,1080,1920,969,"main",877810,32,1,13,12,"EE","Extreme","Easier than Reference","F","k","safeDeck","riskyDeck",-14,0,-7,"right",1,0,18,"absent","riskyDeck",813,1925,1,0
"tccbf44h8j",1245.3,432.249765309396,13408,"01/04/2022@18:51:05","Mozilla/5.0 (Windows NT 10.0; Win64; x64) AppleWebKit/537.36 (KHTML, like Gecko) Chrome/99.0.4844.84 Safari/537.36",1920,1080,1920,969,"main",877810,32,2,13,12,"EE","Extreme","Easier than Reference","F","k","safeDeck","riskyDeck",-14,0,-7,"right",1,0,18,"absent","riskyDeck",813,656,1,0
"tccbf44h8j",1245.3,432.249765309396,13408,"01/04/2022@18:51:05","Mozilla/5.0 (Windows NT 10.0; Win64; x64) AppleWebKit/537.36 (KHTML, like Gecko) Chrome/99.0.4844.84 Safari/537.36",1920,1080,1920,969,"main",877810,32,3,13,12,"EE","Extreme","Easier than Reference","F","j","safeDeck","riskyDeck",-14,0,-7,"right",1,0,18,"present","riskyDeck",813,689,1,0
"tccbf44h8j",1245.3,432.249765309396,13408,"01/04/2022@18:51:05","Mozilla/5.0 (Windows NT 10.0; Win64; x64) AppleWebKit/537.36 (KHTML, like Gecko) Chrome/99.0.4844.84 Safari/537.36",1920,1080,1920,969,"main",877810,32,4,13,12,"EE","Extreme","Easier than Reference","F","j","safeDeck","riskyDeck",-14,0,-7,"right",1,0,18,"present","riskyDeck",813,543,1,0
"tccbf44h8j",1245.3,432.249765309396,13408,"01/04/2022@18:51:05","Mozilla/5.0 (Windows NT 10.0; Win64; x64) AppleWebKit/537.36 (KHTML, like Gecko) Chrome/99.0.4844.84 Safari/537.36",1920,1080,1920,969,"main",877810,32,5,13,12,"EE","Extreme","Easier than Reference","F","j","safeDeck","riskyDeck",-14,0,-7,"right",1,0,18,"present","riskyDeck",813,466,1,0
"tccbf44h8j",1245.3,432.249765309396,13408,"01/04/2022@18:51:05","Mozilla/5.0 (Windows NT 10.0; Win64; x64) AppleWebKit/537.36 (KHTML, like Gecko) Chrome/99.0.4844.84 Safari/537.36",1920,1080,1920,969,"main",877810,32,6,13,12,"EE","Extreme","Easier than Reference","F","j","safeDeck","riskyDeck",-14,0,-7,"right",1,0,18,"present","riskyDeck",813,713,1,0
"tccbf44h8j",1245.3,432.249765309396,13408,"01/04/2022@18:51:05","Mozilla/5.0 (Windows NT 10.0; Win64; x64) AppleWebKit/537.36 (KHTML, like Gecko) Chrome/99.0.4844.84 Safari/537.36",1920,1080,1920,969,"main",877810,32,7,13,12,"EE","Extreme","Easier than Reference","F","k","safeDeck","riskyDeck",-14,0,-7,"right",1,0,18,"absent","riskyDeck",813,922,1,0
"tccbf44h8j",1245.3,432.249765309396,13408,"01/04/2022@18:51:05","Mozilla/5.0 (Windows NT 10.0; Win64; x64) AppleWebKit/537.36 (KHTML, like Gecko) Chrome/99.0.4844.84 Safari/537.36",1920,1080,1920,969,"main",877810,32,8,13,12,"EE","Extreme","Easier than Reference","F","k","safeDeck","riskyDeck",-14,0,-7,"right",1,0,18,"absent","riskyDeck",813,686,1,0
"tccbf44h8j",1245.3,432.249765309396,13408,"01/04/2022@18:51:05","Mozilla/5.0 (Windows NT 10.0; Win64; x64) AppleWebKit/537.36 (KHTML, like Gecko) Chrome/99.0.4844.84 Safari/537.36",1920,1080,1920,969,"main",877810,32,9,13,12,"EE","Extreme","Easier than Reference","F","j","safeDeck","riskyDeck",-14,0,-7,"right",1,0,18,"present","riskyDeck",813,791,1,0
"tccbf44h8j",1245.3,432.249765309396,13408,"01/04/2022@18:51:05","Mozilla/5.0 (Windows NT 10.0; Win64; x64) AppleWebKit/537.36 (KHTML, like Gecko) Chrome/99.0.4844.84 Safari/537.36",1920,1080,1920,969,"main",877810,33,1,13,12,"EM","Moderate","Easier than Reference","F","k","safeDeck","riskyDeck",-28,0,-14,"right",1,0,32,"absent","riskyDeck",770,1380,1,0
"tccbf44h8j",1245.3,432.249765309396,13408,"01/04/2022@18:51:05","Mozilla/5.0 (Windows NT 10.0; Win64; x64) AppleWebKit/537.36 (KHTML, like Gecko) Chrome/99.0.4844.84 Safari/537.36",1920,1080,1920,969,"main",877810,33,2,13,12,"EM","Moderate","Easier than Reference","F","k","safeDeck","riskyDeck",-28,0,-14,"right",1,0,32,"absent","riskyDeck",770,2565,1,0
