"subject","choice_rt_m","choice_rt_sd","sona_id","curTime","userAgent","screenWidth","screenHeight","windowWidth","windowHeight","phase","phase_run_time","choice_trial","search_trial","exp_runtime_mins","phase_runtime_mins","condition","magnitude","direction","choice_response_key","search_response_key","left_deck_id","right_deck_id","risky_deck_outcome_top","risky_deck_outcome_bottom","safe_deck_outcome","selected_deck_location","selectedRiskyDeck","error","n_stimuli","present_or_absent","chosenDeckId","choice_rt","search_rt","selected_deck_location_num","ssd"
"03b2uyxbciy",954.3,451.531000055524,13515,"06/04/2022@17:57:03","Mozilla/5.0 (Windows NT 10.0; Win64; x64) AppleWebKit/537.36 (KHTML, like Gecko) Chrome/99.0.4844.51 Safari/537.36 Edg/99.0.1150.39",1536,1024,1536,914,"main",1666137,1,1,15,12,"HM","Moderate","Harder than Reference","F","k","safeDeck","riskyDeck",14,0,7,"right",1,0,46,"absent","riskyDeck",1463,2480,1,0
"03b2uyxbciy",954.3,451.531000055524,13515,"06/04/2022@17:57:03","Mozilla/5.0 (Windows NT 10.0; Win64; x64) AppleWebKit/537.36 (KHTML, like Gecko) Chrome/99.0.4844.51 Safari/537.36 Edg/99.0.1150.39",1536,1024,1536,914,"main",1666137,1,2,15,12,"HM","Moderate","Harder than Reference","F","k","safeDeck","riskyDeck",14,0,7,"right",1,0,46,"absent","riskyDeck",1463,4809,1,0
"03b2uyxbciy",954.3,451.531000055524,13515,"06/04/2022@17:57:03","Mozilla/5.0 (Windows NT 10.0; Win64; x64) AppleWebKit/537.36 (KHTML, like Gecko) Chrome/99.0.4844.51 Safari/537.36 Edg/99.0.1150.39",1536,1024,1536,914,"main",1666137,1,3,15,13,"HM","Moderate","Harder than Reference","F","j","safeDeck","riskyDeck",14,0,7,"right",1,0,46,"present","riskyDeck",1463,3099,1,0
"03b2uyxbciy",954.3,451.531000055524,13515,"06/04/2022@17:57:03","Mozilla/5.0 (Windows NT 10.0; Win64; x64) AppleWebKit/537.36 (KHTML, like Gecko) Chrome/99.0.4844.51 Safari/537.36 Edg/99.0.1150.39",1536,1024,1536,914,"main",1666137,1,4,15,13,"HM","Moderate","Harder than Reference","F","k","safeDeck","riskyDeck",14,0,7,"right",1,0,46,"absent","riskyDeck",1463,5428,1,0
"03b2uyxbciy",954.3,451.531000055524,13515,"06/04/2022@17:57:03","Mozilla/5.0 (Windows NT 10.0; Win64; x64) AppleWebKit/537.36 (KHTML, like Gecko) Chrome/99.0.4844.51 Safari/537.36 Edg/99.0.1150.39",1536,1024,1536,914,"main",1666137,1,5,15,13,"HM","Moderate","Harder than Reference","F","j","safeDeck","riskyDeck",14,0,7,"right",1,0,46,"present","riskyDeck",1463,2204,1,0
"03b2uyxbciy",954.3,451.531000055524,13515,"06/04/2022@17:57:03","Mozilla/5.0 (Windows NT 10.0; Win64; x64) AppleWebKit/537.36 (KHTML, like Gecko) Chrome/99.0.4844.51 Safari/537.36 Edg/99.0.1150.39",1536,1024,1536,914,"main",1666137,1,6,15,13,"HM","Moderate","Harder than Reference","F","k","safeDeck","riskyDeck",14,0,7,"right",1,0,46,"absent","riskyDeck",1463,4032,1,0
"03b2uyxbciy",954.3,451.531000055524,13515,"06/04/2022@17:57:03","Mozilla/5.0 (Windows NT 10.0; Win64; x64) AppleWebKit/537.36 (KHTML, like Gecko) Chrome/99.0.4844.51 Safari/537.36 Edg/99.0.1150.39",1536,1024,1536,914,"main",1666137,1,7,15,13,"HM","Moderate","Harder than Reference","F","j","safeDeck","riskyDeck",14,0,7,"right",1,0,46,"present","riskyDeck",1463,953,1,0
"03b2uyxbciy",954.3,451.531000055524,13515,"06/04/2022@17:57:03","Mozilla/5.0 (Windows NT 10.0; Win64; x64) AppleWebKit/537.36 (KHTML, like Gecko) Chrome/99.0.4844.51 Safari/537.36 Edg/99.0.1150.39",1536,1024,1536,914,"main",1666137,1,8,15,13,"HM","Moderate","Harder than Reference","F","k","safeDeck","riskyDeck",14,0,7,"right",1,0,46,"absent","riskyDeck",1463,3924,1,0
"03b2uyxbciy",954.3,451.531000055524,13515,"06/04/2022@17:57:03","Mozilla/5.0 (Windows NT 10.0; Win64; x64) AppleWebKit/537.36 (KHTML, like Gecko) Chrome/99.0.4844.51 Safari/537.36 Edg/99.0.1150.39",1536,1024,1536,914,"main",1666137,1,9,15,13,"HM","Moderate","Harder than Reference","F","j","safeDeck","riskyDeck",14,0,7,"right",1,0,46,"present","riskyDeck",1463,3070,1,0
"03b2uyxbciy",954.3,451.531000055524,13515,"06/04/2022@17:57:03","Mozilla/5.0 (Windows NT 10.0; Win64; x64) AppleWebKit/537.36 (KHTML, like Gecko) Chrome/99.0.4844.51 Safari/537.36 Edg/99.0.1150.39",1536,1024,1536,914,"main",1666137,2,1,15,13,"HE","Extreme","Harder than Reference","D","k","riskyDeck","safeDeck",0,28,14,"left",1,0,60,"absent","riskyDeck",1697,6159,-1,0
"03b2uyxbciy",954.3,451.531000055524,13515,"06/04/2022@17:57:03","Mozilla/5.0 (Windows NT 10.0; Win64; x64) AppleWebKit/537.36 (KHTML, like Gecko) Chrome/99.0.4844.51 Safari/537.36 Edg/99.0.1150.39",1536,1024,1536,914,"main",1666137,2,2,15,13,"HE","Extreme","Harder than Reference","D","k","riskyDeck","safeDeck",0,28,14,"left",1,0,60,"absent","riskyDeck",1697,4778,-1,0
"03b2uyxbciy",954.3,451.531000055524,13515,"06/04/2022@17:57:03","Mozilla/5.0 (Windows NT 10.0; Win64; x64) AppleWebKit/537.36 (KHTML, like Gecko) Chrome/99.0.4844.51 Safari/537.36 Edg/99.0.1150.39",1536,1024,1536,914,"main",1666137,2,3,15,13,"HE","Extreme","Harder than Reference","D","k","riskyDeck","safeDeck",0,28,14,"left",1,0,60,"absent","riskyDeck",1697,4303,-1,0
"03b2uyxbciy",954.3,451.531000055524,13515,"06/04/2022@17:57:03","Mozilla/5.0 (Windows NT 10.0; Win64; x64) AppleWebKit/537.36 (KHTML, like Gecko) Chrome/99.0.4844.51 Safari/537.36 Edg/99.0.1150.39",1536,1024,1536,914,"main",1666137,2,4,15,13,"HE","Extreme","Harder than Reference","D","k","riskyDeck","safeDeck",0,28,14,"left",1,0,60,"absent","riskyDeck",1697,3726,-1,0
"03b2uyxbciy",954.3,451.531000055524,13515,"06/04/2022@17:57:03","Mozilla/5.0 (Windows NT 10.0; Win64; x64) AppleWebKit/537.36 (KHTML, like Gecko) Chrome/99.0.4844.51 Safari/537.36 Edg/99.0.1150.39",1536,1024,1536,914,"main",1666137,2,5,16,13,"HE","Extreme","Harder than Reference","D","j","riskyDeck","safeDeck",0,28,14,"left",1,0,60,"present","riskyDeck",1697,2111,-1,0
"03b2uyxbciy",954.3,451.531000055524,13515,"06/04/2022@17:57:03","Mozilla/5.0 (Windows NT 10.0; Win64; x64) AppleWebKit/537.36 (KHTML, like Gecko) Chrome/99.0.4844.51 Safari/537.36 Edg/99.0.1150.39",1536,1024,1536,914,"main",1666137,2,6,16,13,"HE","Extreme","Harder than Reference","D","k","riskyDeck","safeDeck",0,28,14,"left",1,0,60,"absent","riskyDeck",1697,4935,-1,0
"03b2uyxbciy",954.3,451.531000055524,13515,"06/04/2022@17:57:03","Mozilla/5.0 (Windows NT 10.0; Win64; x64) AppleWebKit/537.36 (KHTML, like Gecko) Chrome/99.0.4844.51 Safari/537.36 Edg/99.0.1150.39",1536,1024,1536,914,"main",1666137,2,7,16,13,"HE","Extreme","Harder than Reference","D","k","riskyDeck","safeDeck",0,28,14,"left",1,0,60,"absent","riskyDeck",1697,6087,-1,0
"03b2uyxbciy",954.3,451.531000055524,13515,"06/04/2022@17:57:03","Mozilla/5.0 (Windows NT 10.0; Win64; x64) AppleWebKit/537.36 (KHTML, like Gecko) Chrome/99.0.4844.51 Safari/537.36 Edg/99.0.1150.39",1536,1024,1536,914,"main",1666137,2,8,16,14,"HE","Extreme","Harder than Reference","D","j","riskyDeck","safeDeck",0,28,14,"left",1,0,60,"present","riskyDeck",1697,2299,-1,0
"03b2uyxbciy",954.3,451.531000055524,13515,"06/04/2022@17:57:03","Mozilla/5.0 (Windows NT 10.0; Win64; x64) AppleWebKit/537.36 (KHTML, like Gecko) Chrome/99.0.4844.51 Safari/537.36 Edg/99.0.1150.39",1536,1024,1536,914,"main",1666137,2,9,16,14,"HE","Extreme","Harder than Reference","D","j","riskyDeck","safeDeck",0,28,14,"left",1,0,60,"present","riskyDeck",1697,1524,-1,0
"03b2uyxbciy",954.3,451.531000055524,13515,"06/04/2022@17:57:03","Mozilla/5.0 (Windows NT 10.0; Win64; x64) AppleWebKit/537.36 (KHTML, like Gecko) Chrome/99.0.4844.51 Safari/537.36 Edg/99.0.1150.39",1536,1024,1536,914,"main",1666137,4,1,16,14,"EE","Extreme","Easier than Reference","F","k","safeDeck","riskyDeck",0,-14,-7,"right",1,0,32,"absent","riskyDeck",947,2873,1,0
"03b2uyxbciy",954.3,451.531000055524,13515,"06/04/2022@17:57:03","Mozilla/5.0 (Windows NT 10.0; Win64; x64) AppleWebKit/537.36 (KHTML, like Gecko) Chrome/99.0.4844.51 Safari/537.36 Edg/99.0.1150.39",1536,1024,1536,914,"main",1666137,4,2,16,14,"EE","Extreme","Easier than Reference","F","k","safeDeck","riskyDeck",0,-14,-7,"right",1,0,32,"absent","riskyDeck",947,2373,1,0
"03b2uyxbciy",954.3,451.531000055524,13515,"06/04/2022@17:57:03","Mozilla/5.0 (Windows NT 10.0; Win64; x64) AppleWebKit/537.36 (KHTML, like Gecko) Chrome/99.0.4844.51 Safari/537.36 Edg/99.0.1150.39",1536,1024,1536,914,"main",1666137,4,3,16,14,"EE","Extreme","Easier than Reference","F","k","safeDeck","riskyDeck",0,-14,-7,"right",1,0,32,"absent","riskyDeck",947,1994,1,0
"03b2uyxbciy",954.3,451.531000055524,13515,"06/04/2022@17:57:03","Mozilla/5.0 (Windows NT 10.0; Win64; x64) AppleWebKit/537.36 (KHTML, like Gecko) Chrome/99.0.4844.51 Safari/537.36 Edg/99.0.1150.39",1536,1024,1536,914,"main",1666137,4,4,16,14,"EE","Extreme","Easier than Reference","F","k","safeDeck","riskyDeck",0,-14,-7,"right",1,0,32,"absent","riskyDeck",947,2737,1,0
"03b2uyxbciy",954.3,451.531000055524,13515,"06/04/2022@17:57:03","Mozilla/5.0 (Windows NT 10.0; Win64; x64) AppleWebKit/537.36 (KHTML, like Gecko) Chrome/99.0.4844.51 Safari/537.36 Edg/99.0.1150.39",1536,1024,1536,914,"main",1666137,4,5,16,14,"EE","Extreme","Easier than Reference","F","k","safeDeck","riskyDeck",0,-14,-7,"right",1,0,32,"absent","riskyDeck",947,2878,1,0
"03b2uyxbciy",954.3,451.531000055524,13515,"06/04/2022@17:57:03","Mozilla/5.0 (Windows NT 10.0; Win64; x64) AppleWebKit/537.36 (KHTML, like Gecko) Chrome/99.0.4844.51 Safari/537.36 Edg/99.0.1150.39",1536,1024,1536,914,"main",1666137,4,6,16,14,"EE","Extreme","Easier than Reference","F","k","safeDeck","riskyDeck",0,-14,-7,"right",1,0,32,"absent","riskyDeck",947,2120,1,0
"03b2uyxbciy",954.3,451.531000055524,13515,"06/04/2022@17:57:03","Mozilla/5.0 (Windows NT 10.0; Win64; x64) AppleWebKit/537.36 (KHTML, like Gecko) Chrome/99.0.4844.51 Safari/537.36 Edg/99.0.1150.39",1536,1024,1536,914,"main",1666137,4,7,16,14,"EE","Extreme","Easier than Reference","F","j","safeDeck","riskyDeck",0,-14,-7,"right",1,0,32,"present","riskyDeck",947,1238,1,0
"03b2uyxbciy",954.3,451.531000055524,13515,"06/04/2022@17:57:03","Mozilla/5.0 (Windows NT 10.0; Win64; x64) AppleWebKit/537.36 (KHTML, like Gecko) Chrome/99.0.4844.51 Safari/537.36 Edg/99.0.1150.39",1536,1024,1536,914,"main",1666137,4,8,17,14,"EE","Extreme","Easier than Reference","F","j","safeDeck","riskyDeck",0,-14,-7,"right",1,0,32,"present","riskyDeck",947,1577,1,0
"03b2uyxbciy",954.3,451.531000055524,13515,"06/04/2022@17:57:03","Mozilla/5.0 (Windows NT 10.0; Win64; x64) AppleWebKit/537.36 (KHTML, like Gecko) Chrome/99.0.4844.51 Safari/537.36 Edg/99.0.1150.39",1536,1024,1536,914,"main",1666137,4,9,17,14,"EE","Extreme","Easier than Reference","F","k","safeDeck","riskyDeck",0,-14,-7,"right",1,0,32,"absent","riskyDeck",947,3168,1,0
"03b2uyxbciy",954.3,451.531000055524,13515,"06/04/2022@17:57:03","Mozilla/5.0 (Windows NT 10.0; Win64; x64) AppleWebKit/537.36 (KHTML, like Gecko) Chrome/99.0.4844.51 Safari/537.36 Edg/99.0.1150.39",1536,1024,1536,914,"main",1666137,5,1,17,14,"HM","Moderate","Harder than Reference","F","j","safeDeck","riskyDeck",0,14,7,"right",1,0,46,"present","riskyDeck",1797,1022,1,0
"03b2uyxbciy",954.3,451.531000055524,13515,"06/04/2022@17:57:03","Mozilla/5.0 (Windows NT 10.0; Win64; x64) AppleWebKit/537.36 (KHTML, like Gecko) Chrome/99.0.4844.51 Safari/537.36 Edg/99.0.1150.39",1536,1024,1536,914,"main",1666137,5,2,17,14,"HM","Moderate","Harder than Reference","F","k","safeDeck","riskyDeck",0,14,7,"right",1,0,46,"absent","riskyDeck",1797,2279,1,0
"03b2uyxbciy",954.3,451.531000055524,13515,"06/04/2022@17:57:03","Mozilla/5.0 (Windows NT 10.0; Win64; x64) AppleWebKit/537.36 (KHTML, like Gecko) Chrome/99.0.4844.51 Safari/537.36 Edg/99.0.1150.39",1536,1024,1536,914,"main",1666137,5,3,17,15,"HM","Moderate","Harder than Reference","F","k","safeDeck","riskyDeck",0,14,7,"right",1,0,46,"absent","riskyDeck",1797,2519,1,0
"03b2uyxbciy",954.3,451.531000055524,13515,"06/04/2022@17:57:03","Mozilla/5.0 (Windows NT 10.0; Win64; x64) AppleWebKit/537.36 (KHTML, like Gecko) Chrome/99.0.4844.51 Safari/537.36 Edg/99.0.1150.39",1536,1024,1536,914,"main",1666137,5,4,17,15,"HM","Moderate","Harder than Reference","F","j","safeDeck","riskyDeck",0,14,7,"right",1,0,46,"present","riskyDeck",1797,1424,1,0
"03b2uyxbciy",954.3,451.531000055524,13515,"06/04/2022@17:57:03","Mozilla/5.0 (Windows NT 10.0; Win64; x64) AppleWebKit/537.36 (KHTML, like Gecko) Chrome/99.0.4844.51 Safari/537.36 Edg/99.0.1150.39",1536,1024,1536,914,"main",1666137,5,5,17,15,"HM","Moderate","Harder than Reference","F","j","safeDeck","riskyDeck",0,14,7,"right",1,0,46,"present","riskyDeck",1797,952,1,0
"03b2uyxbciy",954.3,451.531000055524,13515,"06/04/2022@17:57:03","Mozilla/5.0 (Windows NT 10.0; Win64; x64) AppleWebKit/537.36 (KHTML, like Gecko) Chrome/99.0.4844.51 Safari/537.36 Edg/99.0.1150.39",1536,1024,1536,914,"main",1666137,5,6,17,15,"HM","Moderate","Harder than Reference","F","k","safeDeck","riskyDeck",0,14,7,"right",1,0,46,"absent","riskyDeck",1797,2161,1,0
"03b2uyxbciy",954.3,451.531000055524,13515,"06/04/2022@17:57:03","Mozilla/5.0 (Windows NT 10.0; Win64; x64) AppleWebKit/537.36 (KHTML, like Gecko) Chrome/99.0.4844.51 Safari/537.36 Edg/99.0.1150.39",1536,1024,1536,914,"main",1666137,5,7,17,15,"HM","Moderate","Harder than Reference","F","k","safeDeck","riskyDeck",0,14,7,"right",1,0,46,"absent","riskyDeck",1797,2157,1,0
"03b2uyxbciy",954.3,451.531000055524,13515,"06/04/2022@17:57:03","Mozilla/5.0 (Windows NT 10.0; Win64; x64) AppleWebKit/537.36 (KHTML, like Gecko) Chrome/99.0.4844.51 Safari/537.36 Edg/99.0.1150.39",1536,1024,1536,914,"main",1666137,5,8,17,15,"HM","Moderate","Harder than Reference","F","k","safeDeck","riskyDeck",0,14,7,"right",1,0,46,"absent","riskyDeck",1797,4766,1,0
"03b2uyxbciy",954.3,451.531000055524,13515,"06/04/2022@17:57:03","Mozilla/5.0 (Windows NT 10.0; Win64; x64) AppleWebKit/537.36 (KHTML, like Gecko) Chrome/99.0.4844.51 Safari/537.36 Edg/99.0.1150.39",1536,1024,1536,914,"main",1666137,5,9,17,15,"HM","Moderate","Harder than Reference","F","k","safeDeck","riskyDeck",0,14,7,"right",1,0,46,"absent","riskyDeck",1797,2797,1,0
"03b2uyxbciy",954.3,451.531000055524,13515,"06/04/2022@17:57:03","Mozilla/5.0 (Windows NT 10.0; Win64; x64) AppleWebKit/537.36 (KHTML, like Gecko) Chrome/99.0.4844.51 Safari/537.36 Edg/99.0.1150.39",1536,1024,1536,914,"main",1666137,6,1,17,15,"EM","Moderate","Easier than Reference","D","k","safeDeck","riskyDeck",-28,0,-14,"left",0,0,18,"absent","safeDeck",778,1115,-1,1
"03b2uyxbciy",954.3,451.531000055524,13515,"06/04/2022@17:57:03","Mozilla/5.0 (Windows NT 10.0; Win64; x64) AppleWebKit/537.36 (KHTML, like Gecko) Chrome/99.0.4844.51 Safari/537.36 Edg/99.0.1150.39",1536,1024,1536,914,"main",1666137,6,2,17,15,"EM","Moderate","Easier than Reference","D","j","safeDeck","riskyDeck",-28,0,-14,"left",0,0,18,"present","safeDeck",778,750,-1,1
"03b2uyxbciy",954.3,451.531000055524,13515,"06/04/2022@17:57:03","Mozilla/5.0 (Windows NT 10.0; Win64; x64) AppleWebKit/537.36 (KHTML, like Gecko) Chrome/99.0.4844.51 Safari/537.36 Edg/99.0.1150.39",1536,1024,1536,914,"main",1666137,6,3,17,15,"EM","Moderate","Easier than Reference","D","k","safeDeck","riskyDeck",-28,0,-14,"left",0,0,18,"absent","safeDeck",778,1021,-1,1
"03b2uyxbciy",954.3,451.531000055524,13515,"06/04/2022@17:57:03","Mozilla/5.0 (Windows NT 10.0; Win64; x64) AppleWebKit/537.36 (KHTML, like Gecko) Chrome/99.0.4844.51 Safari/537.36 Edg/99.0.1150.39",1536,1024,1536,914,"main",1666137,6,4,17,15,"EM","Moderate","Easier than Reference","D","j","safeDeck","riskyDeck",-28,0,-14,"left",0,0,18,"present","safeDeck",778,995,-1,1
"03b2uyxbciy",954.3,451.531000055524,13515,"06/04/2022@17:57:03","Mozilla/5.0 (Windows NT 10.0; Win64; x64) AppleWebKit/537.36 (KHTML, like Gecko) Chrome/99.0.4844.51 Safari/537.36 Edg/99.0.1150.39",1536,1024,1536,914,"main",1666137,6,5,17,15,"EM","Moderate","Easier than Reference","D","j","safeDeck","riskyDeck",-28,0,-14,"left",0,0,18,"present","safeDeck",778,1162,-1,1
"03b2uyxbciy",954.3,451.531000055524,13515,"06/04/2022@17:57:03","Mozilla/5.0 (Windows NT 10.0; Win64; x64) AppleWebKit/537.36 (KHTML, like Gecko) Chrome/99.0.4844.51 Safari/537.36 Edg/99.0.1150.39",1536,1024,1536,914,"main",1666137,6,6,17,15,"EM","Moderate","Easier than Reference","D","k","safeDeck","riskyDeck",-28,0,-14,"left",0,0,18,"absent","safeDeck",778,1251,-1,1
"03b2uyxbciy",954.3,451.531000055524,13515,"06/04/2022@17:57:03","Mozilla/5.0 (Windows NT 10.0; Win64; x64) AppleWebKit/537.36 (KHTML, like Gecko) Chrome/99.0.4844.51 Safari/537.36 Edg/99.0.1150.39",1536,1024,1536,914,"main",1666137,6,7,17,15,"EM","Moderate","Easier than Reference","D","j","safeDeck","riskyDeck",-28,0,-14,"left",0,0,18,"present","safeDeck",778,1789,-1,1
"03b2uyxbciy",954.3,451.531000055524,13515,"06/04/2022@17:57:03","Mozilla/5.0 (Windows NT 10.0; Win64; x64) AppleWebKit/537.36 (KHTML, like Gecko) Chrome/99.0.4844.51 Safari/537.36 Edg/99.0.1150.39",1536,1024,1536,914,"main",1666137,6,8,17,15,"EM","Moderate","Easier than Reference","D","k","safeDeck","riskyDeck",-28,0,-14,"left",0,0,18,"absent","safeDeck",778,1856,-1,1
"03b2uyxbciy",954.3,451.531000055524,13515,"06/04/2022@17:57:03","Mozilla/5.0 (Windows NT 10.0; Win64; x64) AppleWebKit/537.36 (KHTML, like Gecko) Chrome/99.0.4844.51 Safari/537.36 Edg/99.0.1150.39",1536,1024,1536,914,"main",1666137,6,9,17,15,"EM","Moderate","Easier than Reference","D","j","safeDeck","riskyDeck",-28,0,-14,"left",0,0,18,"present","safeDeck",778,1285,-1,1
"03b2uyxbciy",954.3,451.531000055524,13515,"06/04/2022@17:57:03","Mozilla/5.0 (Windows NT 10.0; Win64; x64) AppleWebKit/537.36 (KHTML, like Gecko) Chrome/99.0.4844.51 Safari/537.36 Edg/99.0.1150.39",1536,1024,1536,914,"main",1666137,7,1,17,15,"EE","Extreme","Easier than Reference","F","k","riskyDeck","safeDeck",-14,0,-7,"right",0,0,25,"absent","safeDeck",1467,1157,1,1
"03b2uyxbciy",954.3,451.531000055524,13515,"06/04/2022@17:57:03","Mozilla/5.0 (Windows NT 10.0; Win64; x64) AppleWebKit/537.36 (KHTML, like Gecko) Chrome/99.0.4844.51 Safari/537.36 Edg/99.0.1150.39",1536,1024,1536,914,"main",1666137,7,2,17,15,"EE","Extreme","Easier than Reference","F","j","riskyDeck","safeDeck",-14,0,-7,"right",0,0,25,"present","safeDeck",1467,824,1,1
"03b2uyxbciy",954.3,451.531000055524,13515,"06/04/2022@17:57:03","Mozilla/5.0 (Windows NT 10.0; Win64; x64) AppleWebKit/537.36 (KHTML, like Gecko) Chrome/99.0.4844.51 Safari/537.36 Edg/99.0.1150.39",1536,1024,1536,914,"main",1666137,7,3,17,15,"EE","Extreme","Easier than Reference","F","k","riskyDeck","safeDeck",-14,0,-7,"right",0,0,25,"absent","safeDeck",1467,1593,1,1
"03b2uyxbciy",954.3,451.531000055524,13515,"06/04/2022@17:57:03","Mozilla/5.0 (Windows NT 10.0; Win64; x64) AppleWebKit/537.36 (KHTML, like Gecko) Chrome/99.0.4844.51 Safari/537.36 Edg/99.0.1150.39",1536,1024,1536,914,"main",1666137,7,4,17,15,"EE","Extreme","Easier than Reference","F","j","riskyDeck","safeDeck",-14,0,-7,"right",0,0,25,"present","safeDeck",1467,1168,1,1
"03b2uyxbciy",954.3,451.531000055524,13515,"06/04/2022@17:57:03","Mozilla/5.0 (Windows NT 10.0; Win64; x64) AppleWebKit/537.36 (KHTML, like Gecko) Chrome/99.0.4844.51 Safari/537.36 Edg/99.0.1150.39",1536,1024,1536,914,"main",1666137,7,5,17,15,"EE","Extreme","Easier than Reference","F","k","riskyDeck","safeDeck",-14,0,-7,"right",0,0,25,"absent","safeDeck",1467,2155,1,1
"03b2uyxbciy",954.3,451.531000055524,13515,"06/04/2022@17:57:03","Mozilla/5.0 (Windows NT 10.0; Win64; x64) AppleWebKit/537.36 (KHTML, like Gecko) Chrome/99.0.4844.51 Safari/537.36 Edg/99.0.1150.39",1536,1024,1536,914,"main",1666137,7,6,18,15,"EE","Extreme","Easier than Reference","F","k","riskyDeck","safeDeck",-14,0,-7,"right",0,0,25,"absent","safeDeck",1467,1397,1,1
"03b2uyxbciy",954.3,451.531000055524,13515,"06/04/2022@17:57:03","Mozilla/5.0 (Windows NT 10.0; Win64; x64) AppleWebKit/537.36 (KHTML, like Gecko) Chrome/99.0.4844.51 Safari/537.36 Edg/99.0.1150.39",1536,1024,1536,914,"main",1666137,7,7,18,15,"EE","Extreme","Easier than Reference","F","j","riskyDeck","safeDeck",-14,0,-7,"right",0,0,25,"present","safeDeck",1467,729,1,1
"03b2uyxbciy",954.3,451.531000055524,13515,"06/04/2022@17:57:03","Mozilla/5.0 (Windows NT 10.0; Win64; x64) AppleWebKit/537.36 (KHTML, like Gecko) Chrome/99.0.4844.51 Safari/537.36 Edg/99.0.1150.39",1536,1024,1536,914,"main",1666137,7,8,18,15,"EE","Extreme","Easier than Reference","F","k","riskyDeck","safeDeck",-14,0,-7,"right",0,0,25,"absent","safeDeck",1467,1903,1,1
"03b2uyxbciy",954.3,451.531000055524,13515,"06/04/2022@17:57:03","Mozilla/5.0 (Windows NT 10.0; Win64; x64) AppleWebKit/537.36 (KHTML, like Gecko) Chrome/99.0.4844.51 Safari/537.36 Edg/99.0.1150.39",1536,1024,1536,914,"main",1666137,7,9,18,15,"EE","Extreme","Easier than Reference","F","k","riskyDeck","safeDeck",-14,0,-7,"right",0,1,25,"present","safeDeck",1467,2177,1,1
"03b2uyxbciy",954.3,451.531000055524,13515,"06/04/2022@17:57:03","Mozilla/5.0 (Windows NT 10.0; Win64; x64) AppleWebKit/537.36 (KHTML, like Gecko) Chrome/99.0.4844.51 Safari/537.36 Edg/99.0.1150.39",1536,1024,1536,914,"main",1666137,8,1,18,15,"HE","Extreme","Harder than Reference","D","k","riskyDeck","safeDeck",28,0,14,"left",1,1,32,"present","riskyDeck",1829,1832,-1,0
"03b2uyxbciy",954.3,451.531000055524,13515,"06/04/2022@17:57:03","Mozilla/5.0 (Windows NT 10.0; Win64; x64) AppleWebKit/537.36 (KHTML, like Gecko) Chrome/99.0.4844.51 Safari/537.36 Edg/99.0.1150.39",1536,1024,1536,914,"main",1666137,8,2,18,16,"HE","Extreme","Harder than Reference","D","j","riskyDeck","safeDeck",28,0,14,"left",1,0,32,"present","riskyDeck",1829,1207,-1,0
"03b2uyxbciy",954.3,451.531000055524,13515,"06/04/2022@17:57:03","Mozilla/5.0 (Windows NT 10.0; Win64; x64) AppleWebKit/537.36 (KHTML, like Gecko) Chrome/99.0.4844.51 Safari/537.36 Edg/99.0.1150.39",1536,1024,1536,914,"main",1666137,8,3,18,16,"HE","Extreme","Harder than Reference","D","j","riskyDeck","safeDeck",28,0,14,"left",1,0,32,"present","riskyDeck",1829,1324,-1,0
"03b2uyxbciy",954.3,451.531000055524,13515,"06/04/2022@17:57:03","Mozilla/5.0 (Windows NT 10.0; Win64; x64) AppleWebKit/537.36 (KHTML, like Gecko) Chrome/99.0.4844.51 Safari/537.36 Edg/99.0.1150.39",1536,1024,1536,914,"main",1666137,8,4,18,16,"HE","Extreme","Harder than Reference","D","k","riskyDeck","safeDeck",28,0,14,"left",1,0,32,"absent","riskyDeck",1829,3184,-1,0
"03b2uyxbciy",954.3,451.531000055524,13515,"06/04/2022@17:57:03","Mozilla/5.0 (Windows NT 10.0; Win64; x64) AppleWebKit/537.36 (KHTML, like Gecko) Chrome/99.0.4844.51 Safari/537.36 Edg/99.0.1150.39",1536,1024,1536,914,"main",1666137,8,5,18,16,"HE","Extreme","Harder than Reference","D","k","riskyDeck","safeDeck",28,0,14,"left",1,0,32,"absent","riskyDeck",1829,3449,-1,0
"03b2uyxbciy",954.3,451.531000055524,13515,"06/04/2022@17:57:03","Mozilla/5.0 (Windows NT 10.0; Win64; x64) AppleWebKit/537.36 (KHTML, like Gecko) Chrome/99.0.4844.51 Safari/537.36 Edg/99.0.1150.39",1536,1024,1536,914,"main",1666137,8,6,18,16,"HE","Extreme","Harder than Reference","D","j","riskyDeck","safeDeck",28,0,14,"left",1,0,32,"present","riskyDeck",1829,1095,-1,0
"03b2uyxbciy",954.3,451.531000055524,13515,"06/04/2022@17:57:03","Mozilla/5.0 (Windows NT 10.0; Win64; x64) AppleWebKit/537.36 (KHTML, like Gecko) Chrome/99.0.4844.51 Safari/537.36 Edg/99.0.1150.39",1536,1024,1536,914,"main",1666137,8,7,18,16,"HE","Extreme","Harder than Reference","D","j","riskyDeck","safeDeck",28,0,14,"left",1,0,32,"present","riskyDeck",1829,1342,-1,0
"03b2uyxbciy",954.3,451.531000055524,13515,"06/04/2022@17:57:03","Mozilla/5.0 (Windows NT 10.0; Win64; x64) AppleWebKit/537.36 (KHTML, like Gecko) Chrome/99.0.4844.51 Safari/537.36 Edg/99.0.1150.39",1536,1024,1536,914,"main",1666137,8,8,18,16,"HE","Extreme","Harder than Reference","D","k","riskyDeck","safeDeck",28,0,14,"left",1,0,32,"absent","riskyDeck",1829,3188,-1,0
"03b2uyxbciy",954.3,451.531000055524,13515,"06/04/2022@17:57:03","Mozilla/5.0 (Windows NT 10.0; Win64; x64) AppleWebKit/537.36 (KHTML, like Gecko) Chrome/99.0.4844.51 Safari/537.36 Edg/99.0.1150.39",1536,1024,1536,914,"main",1666137,8,9,18,16,"HE","Extreme","Harder than Reference","D","k","riskyDeck","safeDeck",28,0,14,"left",1,0,32,"absent","riskyDeck",1829,2008,-1,0
"03b2uyxbciy",954.3,451.531000055524,13515,"06/04/2022@17:57:03","Mozilla/5.0 (Windows NT 10.0; Win64; x64) AppleWebKit/537.36 (KHTML, like Gecko) Chrome/99.0.4844.51 Safari/537.36 Edg/99.0.1150.39",1536,1024,1536,914,"main",1666137,9,1,18,16,"HE","Extreme","Harder than Reference","D","k","riskyDeck","safeDeck",0,28,14,"left",1,0,60,"absent","riskyDeck",926,2850,-1,0
"03b2uyxbciy",954.3,451.531000055524,13515,"06/04/2022@17:57:03","Mozilla/5.0 (Windows NT 10.0; Win64; x64) AppleWebKit/537.36 (KHTML, like Gecko) Chrome/99.0.4844.51 Safari/537.36 Edg/99.0.1150.39",1536,1024,1536,914,"main",1666137,9,2,18,16,"HE","Extreme","Harder than Reference","D","k","riskyDeck","safeDeck",0,28,14,"left",1,0,60,"absent","riskyDeck",926,4639,-1,0
"03b2uyxbciy",954.3,451.531000055524,13515,"06/04/2022@17:57:03","Mozilla/5.0 (Windows NT 10.0; Win64; x64) AppleWebKit/537.36 (KHTML, like Gecko) Chrome/99.0.4844.51 Safari/537.36 Edg/99.0.1150.39",1536,1024,1536,914,"main",1666137,9,3,18,16,"HE","Extreme","Harder than Reference","D","j","riskyDeck","safeDeck",0,28,14,"left",1,0,60,"present","riskyDeck",926,2668,-1,0
"03b2uyxbciy",954.3,451.531000055524,13515,"06/04/2022@17:57:03","Mozilla/5.0 (Windows NT 10.0; Win64; x64) AppleWebKit/537.36 (KHTML, like Gecko) Chrome/99.0.4844.51 Safari/537.36 Edg/99.0.1150.39",1536,1024,1536,914,"main",1666137,9,4,18,16,"HE","Extreme","Harder than Reference","D","j","riskyDeck","safeDeck",0,28,14,"left",1,0,60,"present","riskyDeck",926,2246,-1,0
"03b2uyxbciy",954.3,451.531000055524,13515,"06/04/2022@17:57:03","Mozilla/5.0 (Windows NT 10.0; Win64; x64) AppleWebKit/537.36 (KHTML, like Gecko) Chrome/99.0.4844.51 Safari/537.36 Edg/99.0.1150.39",1536,1024,1536,914,"main",1666137,9,5,18,16,"HE","Extreme","Harder than Reference","D","j","riskyDeck","safeDeck",0,28,14,"left",1,0,60,"present","riskyDeck",926,969,-1,0
"03b2uyxbciy",954.3,451.531000055524,13515,"06/04/2022@17:57:03","Mozilla/5.0 (Windows NT 10.0; Win64; x64) AppleWebKit/537.36 (KHTML, like Gecko) Chrome/99.0.4844.51 Safari/537.36 Edg/99.0.1150.39",1536,1024,1536,914,"main",1666137,9,6,18,16,"HE","Extreme","Harder than Reference","D","j","riskyDeck","safeDeck",0,28,14,"left",1,0,60,"present","riskyDeck",926,724,-1,0
"03b2uyxbciy",954.3,451.531000055524,13515,"06/04/2022@17:57:03","Mozilla/5.0 (Windows NT 10.0; Win64; x64) AppleWebKit/537.36 (KHTML, like Gecko) Chrome/99.0.4844.51 Safari/537.36 Edg/99.0.1150.39",1536,1024,1536,914,"main",1666137,9,7,18,16,"HE","Extreme","Harder than Reference","D","k","riskyDeck","safeDeck",0,28,14,"left",1,0,60,"absent","riskyDeck",926,3878,-1,0
"03b2uyxbciy",954.3,451.531000055524,13515,"06/04/2022@17:57:03","Mozilla/5.0 (Windows NT 10.0; Win64; x64) AppleWebKit/537.36 (KHTML, like Gecko) Chrome/99.0.4844.51 Safari/537.36 Edg/99.0.1150.39",1536,1024,1536,914,"main",1666137,9,8,19,16,"HE","Extreme","Harder than Reference","D","j","riskyDeck","safeDeck",0,28,14,"left",1,0,60,"present","riskyDeck",926,1884,-1,0
"03b2uyxbciy",954.3,451.531000055524,13515,"06/04/2022@17:57:03","Mozilla/5.0 (Windows NT 10.0; Win64; x64) AppleWebKit/537.36 (KHTML, like Gecko) Chrome/99.0.4844.51 Safari/537.36 Edg/99.0.1150.39",1536,1024,1536,914,"main",1666137,9,9,19,16,"HE","Extreme","Harder than Reference","D","j","riskyDeck","safeDeck",0,28,14,"left",1,0,60,"present","riskyDeck",926,1175,-1,0
"03b2uyxbciy",954.3,451.531000055524,13515,"06/04/2022@17:57:03","Mozilla/5.0 (Windows NT 10.0; Win64; x64) AppleWebKit/537.36 (KHTML, like Gecko) Chrome/99.0.4844.51 Safari/537.36 Edg/99.0.1150.39",1536,1024,1536,914,"main",1666137,10,1,19,16,"HM","Moderate","Harder than Reference","F","j","riskyDeck","safeDeck",14,0,7,"right",0,0,39,"present","safeDeck",1313,1411,1,1
"03b2uyxbciy",954.3,451.531000055524,13515,"06/04/2022@17:57:03","Mozilla/5.0 (Windows NT 10.0; Win64; x64) AppleWebKit/537.36 (KHTML, like Gecko) Chrome/99.0.4844.51 Safari/537.36 Edg/99.0.1150.39",1536,1024,1536,914,"main",1666137,10,2,19,16,"HM","Moderate","Harder than Reference","F","j","riskyDeck","safeDeck",14,0,7,"right",0,0,39,"present","safeDeck",1313,629,1,1
"03b2uyxbciy",954.3,451.531000055524,13515,"06/04/2022@17:57:03","Mozilla/5.0 (Windows NT 10.0; Win64; x64) AppleWebKit/537.36 (KHTML, like Gecko) Chrome/99.0.4844.51 Safari/537.36 Edg/99.0.1150.39",1536,1024,1536,914,"main",1666137,10,3,19,16,"HM","Moderate","Harder than Reference","F","k","riskyDeck","safeDeck",14,0,7,"right",0,0,39,"absent","safeDeck",1313,2039,1,1
"03b2uyxbciy",954.3,451.531000055524,13515,"06/04/2022@17:57:03","Mozilla/5.0 (Windows NT 10.0; Win64; x64) AppleWebKit/537.36 (KHTML, like Gecko) Chrome/99.0.4844.51 Safari/537.36 Edg/99.0.1150.39",1536,1024,1536,914,"main",1666137,10,4,19,16,"HM","Moderate","Harder than Reference","F","k","riskyDeck","safeDeck",14,0,7,"right",0,0,39,"absent","safeDeck",1313,2684,1,1
"03b2uyxbciy",954.3,451.531000055524,13515,"06/04/2022@17:57:03","Mozilla/5.0 (Windows NT 10.0; Win64; x64) AppleWebKit/537.36 (KHTML, like Gecko) Chrome/99.0.4844.51 Safari/537.36 Edg/99.0.1150.39",1536,1024,1536,914,"main",1666137,10,5,19,17,"HM","Moderate","Harder than Reference","F","k","riskyDeck","safeDeck",14,0,7,"right",0,0,39,"absent","safeDeck",1313,2924,1,1
"03b2uyxbciy",954.3,451.531000055524,13515,"06/04/2022@17:57:03","Mozilla/5.0 (Windows NT 10.0; Win64; x64) AppleWebKit/537.36 (KHTML, like Gecko) Chrome/99.0.4844.51 Safari/537.36 Edg/99.0.1150.39",1536,1024,1536,914,"main",1666137,10,6,19,17,"HM","Moderate","Harder than Reference","F","k","riskyDeck","safeDeck",14,0,7,"right",0,0,39,"absent","safeDeck",1313,2994,1,1
"03b2uyxbciy",954.3,451.531000055524,13515,"06/04/2022@17:57:03","Mozilla/5.0 (Windows NT 10.0; Win64; x64) AppleWebKit/537.36 (KHTML, like Gecko) Chrome/99.0.4844.51 Safari/537.36 Edg/99.0.1150.39",1536,1024,1536,914,"main",1666137,10,7,19,17,"HM","Moderate","Harder than Reference","F","j","riskyDeck","safeDeck",14,0,7,"right",0,0,39,"present","safeDeck",1313,1276,1,1
"03b2uyxbciy",954.3,451.531000055524,13515,"06/04/2022@17:57:03","Mozilla/5.0 (Windows NT 10.0; Win64; x64) AppleWebKit/537.36 (KHTML, like Gecko) Chrome/99.0.4844.51 Safari/537.36 Edg/99.0.1150.39",1536,1024,1536,914,"main",1666137,10,8,19,17,"HM","Moderate","Harder than Reference","F","k","riskyDeck","safeDeck",14,0,7,"right",0,0,39,"absent","safeDeck",1313,2286,1,1
"03b2uyxbciy",954.3,451.531000055524,13515,"06/04/2022@17:57:03","Mozilla/5.0 (Windows NT 10.0; Win64; x64) AppleWebKit/537.36 (KHTML, like Gecko) Chrome/99.0.4844.51 Safari/537.36 Edg/99.0.1150.39",1536,1024,1536,914,"main",1666137,10,9,19,17,"HM","Moderate","Harder than Reference","F","j","riskyDeck","safeDeck",14,0,7,"right",0,0,39,"present","safeDeck",1313,1231,1,1
"03b2uyxbciy",954.3,451.531000055524,13515,"06/04/2022@17:57:03","Mozilla/5.0 (Windows NT 10.0; Win64; x64) AppleWebKit/537.36 (KHTML, like Gecko) Chrome/99.0.4844.51 Safari/537.36 Edg/99.0.1150.39",1536,1024,1536,914,"main",1666137,12,1,19,17,"EM","Moderate","Easier than Reference","F","j","riskyDeck","safeDeck",-28,0,-14,"right",0,1,18,"absent","safeDeck",924,1191,1,1
"03b2uyxbciy",954.3,451.531000055524,13515,"06/04/2022@17:57:03","Mozilla/5.0 (Windows NT 10.0; Win64; x64) AppleWebKit/537.36 (KHTML, like Gecko) Chrome/99.0.4844.51 Safari/537.36 Edg/99.0.1150.39",1536,1024,1536,914,"main",1666137,12,2,19,17,"EM","Moderate","Easier than Reference","F","k","riskyDeck","safeDeck",-28,0,-14,"right",0,0,18,"absent","safeDeck",924,1553,1,1
"03b2uyxbciy",954.3,451.531000055524,13515,"06/04/2022@17:57:03","Mozilla/5.0 (Windows NT 10.0; Win64; x64) AppleWebKit/537.36 (KHTML, like Gecko) Chrome/99.0.4844.51 Safari/537.36 Edg/99.0.1150.39",1536,1024,1536,914,"main",1666137,12,3,19,17,"EM","Moderate","Easier than Reference","F","k","riskyDeck","safeDeck",-28,0,-14,"right",0,0,18,"absent","safeDeck",924,1328,1,1
"03b2uyxbciy",954.3,451.531000055524,13515,"06/04/2022@17:57:03","Mozilla/5.0 (Windows NT 10.0; Win64; x64) AppleWebKit/537.36 (KHTML, like Gecko) Chrome/99.0.4844.51 Safari/537.36 Edg/99.0.1150.39",1536,1024,1536,914,"main",1666137,12,4,19,17,"EM","Moderate","Easier than Reference","F","k","riskyDeck","safeDeck",-28,0,-14,"right",0,0,18,"absent","safeDeck",924,1121,1,1
"03b2uyxbciy",954.3,451.531000055524,13515,"06/04/2022@17:57:03","Mozilla/5.0 (Windows NT 10.0; Win64; x64) AppleWebKit/537.36 (KHTML, like Gecko) Chrome/99.0.4844.51 Safari/537.36 Edg/99.0.1150.39",1536,1024,1536,914,"main",1666137,12,5,19,17,"EM","Moderate","Easier than Reference","F","k","riskyDeck","safeDeck",-28,0,-14,"right",0,0,18,"absent","safeDeck",924,1344,1,1
"03b2uyxbciy",954.3,451.531000055524,13515,"06/04/2022@17:57:03","Mozilla/5.0 (Windows NT 10.0; Win64; x64) AppleWebKit/537.36 (KHTML, like Gecko) Chrome/99.0.4844.51 Safari/537.36 Edg/99.0.1150.39",1536,1024,1536,914,"main",1666137,12,6,20,17,"EM","Moderate","Easier than Reference","F","j","riskyDeck","safeDeck",-28,0,-14,"right",0,0,18,"present","safeDeck",924,648,1,1
"03b2uyxbciy",954.3,451.531000055524,13515,"06/04/2022@17:57:03","Mozilla/5.0 (Windows NT 10.0; Win64; x64) AppleWebKit/537.36 (KHTML, like Gecko) Chrome/99.0.4844.51 Safari/537.36 Edg/99.0.1150.39",1536,1024,1536,914,"main",1666137,12,7,20,17,"EM","Moderate","Easier than Reference","F","j","riskyDeck","safeDeck",-28,0,-14,"right",0,0,18,"present","safeDeck",924,614,1,1
"03b2uyxbciy",954.3,451.531000055524,13515,"06/04/2022@17:57:03","Mozilla/5.0 (Windows NT 10.0; Win64; x64) AppleWebKit/537.36 (KHTML, like Gecko) Chrome/99.0.4844.51 Safari/537.36 Edg/99.0.1150.39",1536,1024,1536,914,"main",1666137,12,8,20,17,"EM","Moderate","Easier than Reference","F","k","riskyDeck","safeDeck",-28,0,-14,"right",0,0,18,"absent","safeDeck",924,1475,1,1
"03b2uyxbciy",954.3,451.531000055524,13515,"06/04/2022@17:57:03","Mozilla/5.0 (Windows NT 10.0; Win64; x64) AppleWebKit/537.36 (KHTML, like Gecko) Chrome/99.0.4844.51 Safari/537.36 Edg/99.0.1150.39",1536,1024,1536,914,"main",1666137,12,9,20,17,"EM","Moderate","Easier than Reference","F","j","riskyDeck","safeDeck",-28,0,-14,"right",0,0,18,"present","safeDeck",924,1891,1,1
"03b2uyxbciy",954.3,451.531000055524,13515,"06/04/2022@17:57:03","Mozilla/5.0 (Windows NT 10.0; Win64; x64) AppleWebKit/537.36 (KHTML, like Gecko) Chrome/99.0.4844.51 Safari/537.36 Edg/99.0.1150.39",1536,1024,1536,914,"main",1666137,13,1,20,17,"HE","Extreme","Harder than Reference","F","k","safeDeck","riskyDeck",0,28,14,"right",1,1,60,"present","riskyDeck",1320,2183,1,0
"03b2uyxbciy",954.3,451.531000055524,13515,"06/04/2022@17:57:03","Mozilla/5.0 (Windows NT 10.0; Win64; x64) AppleWebKit/537.36 (KHTML, like Gecko) Chrome/99.0.4844.51 Safari/537.36 Edg/99.0.1150.39",1536,1024,1536,914,"main",1666137,13,2,20,17,"HE","Extreme","Harder than Reference","F","j","safeDeck","riskyDeck",0,28,14,"right",1,0,60,"present","riskyDeck",1320,664,1,0
"03b2uyxbciy",954.3,451.531000055524,13515,"06/04/2022@17:57:03","Mozilla/5.0 (Windows NT 10.0; Win64; x64) AppleWebKit/537.36 (KHTML, like Gecko) Chrome/99.0.4844.51 Safari/537.36 Edg/99.0.1150.39",1536,1024,1536,914,"main",1666137,13,3,20,18,"HE","Extreme","Harder than Reference","F","j","safeDeck","riskyDeck",0,28,14,"right",1,0,60,"present","riskyDeck",1320,2059,1,0
"03b2uyxbciy",954.3,451.531000055524,13515,"06/04/2022@17:57:03","Mozilla/5.0 (Windows NT 10.0; Win64; x64) AppleWebKit/537.36 (KHTML, like Gecko) Chrome/99.0.4844.51 Safari/537.36 Edg/99.0.1150.39",1536,1024,1536,914,"main",1666137,13,4,20,18,"HE","Extreme","Harder than Reference","F","j","safeDeck","riskyDeck",0,28,14,"right",1,0,60,"present","riskyDeck",1320,2251,1,0
"03b2uyxbciy",954.3,451.531000055524,13515,"06/04/2022@17:57:03","Mozilla/5.0 (Windows NT 10.0; Win64; x64) AppleWebKit/537.36 (KHTML, like Gecko) Chrome/99.0.4844.51 Safari/537.36 Edg/99.0.1150.39",1536,1024,1536,914,"main",1666137,13,5,20,18,"HE","Extreme","Harder than Reference","F","k","safeDeck","riskyDeck",0,28,14,"right",1,0,60,"absent","riskyDeck",1320,6216,1,0
"03b2uyxbciy",954.3,451.531000055524,13515,"06/04/2022@17:57:03","Mozilla/5.0 (Windows NT 10.0; Win64; x64) AppleWebKit/537.36 (KHTML, like Gecko) Chrome/99.0.4844.51 Safari/537.36 Edg/99.0.1150.39",1536,1024,1536,914,"main",1666137,13,6,20,18,"HE","Extreme","Harder than Reference","F","k","safeDeck","riskyDeck",0,28,14,"right",1,0,60,"absent","riskyDeck",1320,3608,1,0
"03b2uyxbciy",954.3,451.531000055524,13515,"06/04/2022@17:57:03","Mozilla/5.0 (Windows NT 10.0; Win64; x64) AppleWebKit/537.36 (KHTML, like Gecko) Chrome/99.0.4844.51 Safari/537.36 Edg/99.0.1150.39",1536,1024,1536,914,"main",1666137,13,7,20,18,"HE","Extreme","Harder than Reference","F","k","safeDeck","riskyDeck",0,28,14,"right",1,0,60,"absent","riskyDeck",1320,3829,1,0
"03b2uyxbciy",954.3,451.531000055524,13515,"06/04/2022@17:57:03","Mozilla/5.0 (Windows NT 10.0; Win64; x64) AppleWebKit/537.36 (KHTML, like Gecko) Chrome/99.0.4844.51 Safari/537.36 Edg/99.0.1150.39",1536,1024,1536,914,"main",1666137,13,8,20,18,"HE","Extreme","Harder than Reference","F","k","safeDeck","riskyDeck",0,28,14,"right",1,0,60,"absent","riskyDeck",1320,3025,1,0
"03b2uyxbciy",954.3,451.531000055524,13515,"06/04/2022@17:57:03","Mozilla/5.0 (Windows NT 10.0; Win64; x64) AppleWebKit/537.36 (KHTML, like Gecko) Chrome/99.0.4844.51 Safari/537.36 Edg/99.0.1150.39",1536,1024,1536,914,"main",1666137,13,9,20,18,"HE","Extreme","Harder than Reference","F","k","safeDeck","riskyDeck",0,28,14,"right",1,0,60,"absent","riskyDeck",1320,6594,1,0
"03b2uyxbciy",954.3,451.531000055524,13515,"06/04/2022@17:57:03","Mozilla/5.0 (Windows NT 10.0; Win64; x64) AppleWebKit/537.36 (KHTML, like Gecko) Chrome/99.0.4844.51 Safari/537.36 Edg/99.0.1150.39",1536,1024,1536,914,"main",1666137,14,1,20,18,"EM","Moderate","Easier than Reference","F","j","riskyDeck","safeDeck",0,-28,-14,"right",0,1,18,"absent","safeDeck",1158,1748,1,1
"03b2uyxbciy",954.3,451.531000055524,13515,"06/04/2022@17:57:03","Mozilla/5.0 (Windows NT 10.0; Win64; x64) AppleWebKit/537.36 (KHTML, like Gecko) Chrome/99.0.4844.51 Safari/537.36 Edg/99.0.1150.39",1536,1024,1536,914,"main",1666137,14,2,20,18,"EM","Moderate","Easier than Reference","F","j","riskyDeck","safeDeck",0,-28,-14,"right",0,1,18,"absent","safeDeck",1158,1803,1,1
"03b2uyxbciy",954.3,451.531000055524,13515,"06/04/2022@17:57:03","Mozilla/5.0 (Windows NT 10.0; Win64; x64) AppleWebKit/537.36 (KHTML, like Gecko) Chrome/99.0.4844.51 Safari/537.36 Edg/99.0.1150.39",1536,1024,1536,914,"main",1666137,14,3,20,18,"EM","Moderate","Easier than Reference","F","j","riskyDeck","safeDeck",0,-28,-14,"right",0,0,18,"present","safeDeck",1158,1033,1,1
"03b2uyxbciy",954.3,451.531000055524,13515,"06/04/2022@17:57:03","Mozilla/5.0 (Windows NT 10.0; Win64; x64) AppleWebKit/537.36 (KHTML, like Gecko) Chrome/99.0.4844.51 Safari/537.36 Edg/99.0.1150.39",1536,1024,1536,914,"main",1666137,14,4,20,18,"EM","Moderate","Easier than Reference","F","k","riskyDeck","safeDeck",0,-28,-14,"right",0,0,18,"absent","safeDeck",1158,1521,1,1
"03b2uyxbciy",954.3,451.531000055524,13515,"06/04/2022@17:57:03","Mozilla/5.0 (Windows NT 10.0; Win64; x64) AppleWebKit/537.36 (KHTML, like Gecko) Chrome/99.0.4844.51 Safari/537.36 Edg/99.0.1150.39",1536,1024,1536,914,"main",1666137,14,5,20,18,"EM","Moderate","Easier than Reference","F","k","riskyDeck","safeDeck",0,-28,-14,"right",0,0,18,"absent","safeDeck",1158,1194,1,1
"03b2uyxbciy",954.3,451.531000055524,13515,"06/04/2022@17:57:03","Mozilla/5.0 (Windows NT 10.0; Win64; x64) AppleWebKit/537.36 (KHTML, like Gecko) Chrome/99.0.4844.51 Safari/537.36 Edg/99.0.1150.39",1536,1024,1536,914,"main",1666137,14,6,21,18,"EM","Moderate","Easier than Reference","F","k","riskyDeck","safeDeck",0,-28,-14,"right",0,0,18,"absent","safeDeck",1158,3253,1,1
"03b2uyxbciy",954.3,451.531000055524,13515,"06/04/2022@17:57:03","Mozilla/5.0 (Windows NT 10.0; Win64; x64) AppleWebKit/537.36 (KHTML, like Gecko) Chrome/99.0.4844.51 Safari/537.36 Edg/99.0.1150.39",1536,1024,1536,914,"main",1666137,14,7,21,18,"EM","Moderate","Easier than Reference","F","k","riskyDeck","safeDeck",0,-28,-14,"right",0,0,18,"absent","safeDeck",1158,1256,1,1
"03b2uyxbciy",954.3,451.531000055524,13515,"06/04/2022@17:57:03","Mozilla/5.0 (Windows NT 10.0; Win64; x64) AppleWebKit/537.36 (KHTML, like Gecko) Chrome/99.0.4844.51 Safari/537.36 Edg/99.0.1150.39",1536,1024,1536,914,"main",1666137,14,8,21,18,"EM","Moderate","Easier than Reference","F","k","riskyDeck","safeDeck",0,-28,-14,"right",0,0,18,"absent","safeDeck",1158,1905,1,1
"03b2uyxbciy",954.3,451.531000055524,13515,"06/04/2022@17:57:03","Mozilla/5.0 (Windows NT 10.0; Win64; x64) AppleWebKit/537.36 (KHTML, like Gecko) Chrome/99.0.4844.51 Safari/537.36 Edg/99.0.1150.39",1536,1024,1536,914,"main",1666137,14,9,21,18,"EM","Moderate","Easier than Reference","F","j","riskyDeck","safeDeck",0,-28,-14,"right",0,0,18,"present","safeDeck",1158,1031,1,1
"03b2uyxbciy",954.3,451.531000055524,13515,"06/04/2022@17:57:03","Mozilla/5.0 (Windows NT 10.0; Win64; x64) AppleWebKit/537.36 (KHTML, like Gecko) Chrome/99.0.4844.51 Safari/537.36 Edg/99.0.1150.39",1536,1024,1536,914,"main",1666137,15,1,21,18,"EE","Extreme","Easier than Reference","D","j","safeDeck","riskyDeck",-14,0,-7,"left",0,0,25,"present","safeDeck",563,1509,-1,1
"03b2uyxbciy",954.3,451.531000055524,13515,"06/04/2022@17:57:03","Mozilla/5.0 (Windows NT 10.0; Win64; x64) AppleWebKit/537.36 (KHTML, like Gecko) Chrome/99.0.4844.51 Safari/537.36 Edg/99.0.1150.39",1536,1024,1536,914,"main",1666137,15,2,21,18,"EE","Extreme","Easier than Reference","D","j","safeDeck","riskyDeck",-14,0,-7,"left",0,0,25,"present","safeDeck",563,1352,-1,1
"03b2uyxbciy",954.3,451.531000055524,13515,"06/04/2022@17:57:03","Mozilla/5.0 (Windows NT 10.0; Win64; x64) AppleWebKit/537.36 (KHTML, like Gecko) Chrome/99.0.4844.51 Safari/537.36 Edg/99.0.1150.39",1536,1024,1536,914,"main",1666137,15,3,21,19,"EE","Extreme","Easier than Reference","D","k","safeDeck","riskyDeck",-14,0,-7,"left",0,0,25,"absent","safeDeck",563,2408,-1,1
"03b2uyxbciy",954.3,451.531000055524,13515,"06/04/2022@17:57:03","Mozilla/5.0 (Windows NT 10.0; Win64; x64) AppleWebKit/537.36 (KHTML, like Gecko) Chrome/99.0.4844.51 Safari/537.36 Edg/99.0.1150.39",1536,1024,1536,914,"main",1666137,15,4,21,19,"EE","Extreme","Easier than Reference","D","k","safeDeck","riskyDeck",-14,0,-7,"left",0,0,25,"absent","safeDeck",563,2098,-1,1
"03b2uyxbciy",954.3,451.531000055524,13515,"06/04/2022@17:57:03","Mozilla/5.0 (Windows NT 10.0; Win64; x64) AppleWebKit/537.36 (KHTML, like Gecko) Chrome/99.0.4844.51 Safari/537.36 Edg/99.0.1150.39",1536,1024,1536,914,"main",1666137,15,5,21,19,"EE","Extreme","Easier than Reference","D","j","safeDeck","riskyDeck",-14,0,-7,"left",0,0,25,"present","safeDeck",563,1517,-1,1
"03b2uyxbciy",954.3,451.531000055524,13515,"06/04/2022@17:57:03","Mozilla/5.0 (Windows NT 10.0; Win64; x64) AppleWebKit/537.36 (KHTML, like Gecko) Chrome/99.0.4844.51 Safari/537.36 Edg/99.0.1150.39",1536,1024,1536,914,"main",1666137,15,6,21,19,"EE","Extreme","Easier than Reference","D","j","safeDeck","riskyDeck",-14,0,-7,"left",0,0,25,"present","safeDeck",563,1166,-1,1
"03b2uyxbciy",954.3,451.531000055524,13515,"06/04/2022@17:57:03","Mozilla/5.0 (Windows NT 10.0; Win64; x64) AppleWebKit/537.36 (KHTML, like Gecko) Chrome/99.0.4844.51 Safari/537.36 Edg/99.0.1150.39",1536,1024,1536,914,"main",1666137,15,7,21,19,"EE","Extreme","Easier than Reference","D","k","safeDeck","riskyDeck",-14,0,-7,"left",0,0,25,"absent","safeDeck",563,2423,-1,1
"03b2uyxbciy",954.3,451.531000055524,13515,"06/04/2022@17:57:03","Mozilla/5.0 (Windows NT 10.0; Win64; x64) AppleWebKit/537.36 (KHTML, like Gecko) Chrome/99.0.4844.51 Safari/537.36 Edg/99.0.1150.39",1536,1024,1536,914,"main",1666137,15,8,21,19,"EE","Extreme","Easier than Reference","D","j","safeDeck","riskyDeck",-14,0,-7,"left",0,0,25,"present","safeDeck",563,1404,-1,1
"03b2uyxbciy",954.3,451.531000055524,13515,"06/04/2022@17:57:03","Mozilla/5.0 (Windows NT 10.0; Win64; x64) AppleWebKit/537.36 (KHTML, like Gecko) Chrome/99.0.4844.51 Safari/537.36 Edg/99.0.1150.39",1536,1024,1536,914,"main",1666137,15,9,21,19,"EE","Extreme","Easier than Reference","D","j","safeDeck","riskyDeck",-14,0,-7,"left",0,0,25,"present","safeDeck",563,1422,-1,1
"03b2uyxbciy",954.3,451.531000055524,13515,"06/04/2022@17:57:03","Mozilla/5.0 (Windows NT 10.0; Win64; x64) AppleWebKit/537.36 (KHTML, like Gecko) Chrome/99.0.4844.51 Safari/537.36 Edg/99.0.1150.39",1536,1024,1536,914,"main",1666137,16,1,21,19,"HM","Moderate","Harder than Reference","D","k","riskyDeck","safeDeck",0,14,7,"left",1,0,46,"absent","riskyDeck",673,2869,-1,0
"03b2uyxbciy",954.3,451.531000055524,13515,"06/04/2022@17:57:03","Mozilla/5.0 (Windows NT 10.0; Win64; x64) AppleWebKit/537.36 (KHTML, like Gecko) Chrome/99.0.4844.51 Safari/537.36 Edg/99.0.1150.39",1536,1024,1536,914,"main",1666137,16,2,21,19,"HM","Moderate","Harder than Reference","D","k","riskyDeck","safeDeck",0,14,7,"left",1,1,46,"present","riskyDeck",673,2621,-1,0
"03b2uyxbciy",954.3,451.531000055524,13515,"06/04/2022@17:57:03","Mozilla/5.0 (Windows NT 10.0; Win64; x64) AppleWebKit/537.36 (KHTML, like Gecko) Chrome/99.0.4844.51 Safari/537.36 Edg/99.0.1150.39",1536,1024,1536,914,"main",1666137,16,3,21,19,"HM","Moderate","Harder than Reference","D","k","riskyDeck","safeDeck",0,14,7,"left",1,0,46,"absent","riskyDeck",673,3106,-1,0
"03b2uyxbciy",954.3,451.531000055524,13515,"06/04/2022@17:57:03","Mozilla/5.0 (Windows NT 10.0; Win64; x64) AppleWebKit/537.36 (KHTML, like Gecko) Chrome/99.0.4844.51 Safari/537.36 Edg/99.0.1150.39",1536,1024,1536,914,"main",1666137,16,4,21,19,"HM","Moderate","Harder than Reference","D","j","riskyDeck","safeDeck",0,14,7,"left",1,0,46,"present","riskyDeck",673,999,-1,0
"03b2uyxbciy",954.3,451.531000055524,13515,"06/04/2022@17:57:03","Mozilla/5.0 (Windows NT 10.0; Win64; x64) AppleWebKit/537.36 (KHTML, like Gecko) Chrome/99.0.4844.51 Safari/537.36 Edg/99.0.1150.39",1536,1024,1536,914,"main",1666137,16,5,21,19,"HM","Moderate","Harder than Reference","D","j","riskyDeck","safeDeck",0,14,7,"left",1,0,46,"present","riskyDeck",673,1478,-1,0
"03b2uyxbciy",954.3,451.531000055524,13515,"06/04/2022@17:57:03","Mozilla/5.0 (Windows NT 10.0; Win64; x64) AppleWebKit/537.36 (KHTML, like Gecko) Chrome/99.0.4844.51 Safari/537.36 Edg/99.0.1150.39",1536,1024,1536,914,"main",1666137,16,6,21,19,"HM","Moderate","Harder than Reference","D","j","riskyDeck","safeDeck",0,14,7,"left",1,0,46,"present","riskyDeck",673,778,-1,0
"03b2uyxbciy",954.3,451.531000055524,13515,"06/04/2022@17:57:03","Mozilla/5.0 (Windows NT 10.0; Win64; x64) AppleWebKit/537.36 (KHTML, like Gecko) Chrome/99.0.4844.51 Safari/537.36 Edg/99.0.1150.39",1536,1024,1536,914,"main",1666137,16,7,21,19,"HM","Moderate","Harder than Reference","D","j","riskyDeck","safeDeck",0,14,7,"left",1,0,46,"present","riskyDeck",673,916,-1,0
"03b2uyxbciy",954.3,451.531000055524,13515,"06/04/2022@17:57:03","Mozilla/5.0 (Windows NT 10.0; Win64; x64) AppleWebKit/537.36 (KHTML, like Gecko) Chrome/99.0.4844.51 Safari/537.36 Edg/99.0.1150.39",1536,1024,1536,914,"main",1666137,16,8,21,19,"HM","Moderate","Harder than Reference","D","k","riskyDeck","safeDeck",0,14,7,"left",1,0,46,"absent","riskyDeck",673,2708,-1,0
"03b2uyxbciy",954.3,451.531000055524,13515,"06/04/2022@17:57:03","Mozilla/5.0 (Windows NT 10.0; Win64; x64) AppleWebKit/537.36 (KHTML, like Gecko) Chrome/99.0.4844.51 Safari/537.36 Edg/99.0.1150.39",1536,1024,1536,914,"main",1666137,16,9,21,19,"HM","Moderate","Harder than Reference","D","j","riskyDeck","safeDeck",0,14,7,"left",1,0,46,"present","riskyDeck",673,775,-1,0
"03b2uyxbciy",954.3,451.531000055524,13515,"06/04/2022@17:57:03","Mozilla/5.0 (Windows NT 10.0; Win64; x64) AppleWebKit/537.36 (KHTML, like Gecko) Chrome/99.0.4844.51 Safari/537.36 Edg/99.0.1150.39",1536,1024,1536,914,"main",1666137,17,1,21,19,"HM","Moderate","Harder than Reference","F","j","safeDeck","riskyDeck",0,14,7,"right",1,0,32,"present","riskyDeck",761,772,1,0
"03b2uyxbciy",954.3,451.531000055524,13515,"06/04/2022@17:57:03","Mozilla/5.0 (Windows NT 10.0; Win64; x64) AppleWebKit/537.36 (KHTML, like Gecko) Chrome/99.0.4844.51 Safari/537.36 Edg/99.0.1150.39",1536,1024,1536,914,"main",1666137,17,2,21,19,"HM","Moderate","Harder than Reference","F","j","safeDeck","riskyDeck",0,14,7,"right",1,0,32,"present","riskyDeck",761,1214,1,0
"03b2uyxbciy",954.3,451.531000055524,13515,"06/04/2022@17:57:03","Mozilla/5.0 (Windows NT 10.0; Win64; x64) AppleWebKit/537.36 (KHTML, like Gecko) Chrome/99.0.4844.51 Safari/537.36 Edg/99.0.1150.39",1536,1024,1536,914,"main",1666137,17,3,21,19,"HM","Moderate","Harder than Reference","F","j","safeDeck","riskyDeck",0,14,7,"right",1,0,32,"present","riskyDeck",761,687,1,0
"03b2uyxbciy",954.3,451.531000055524,13515,"06/04/2022@17:57:03","Mozilla/5.0 (Windows NT 10.0; Win64; x64) AppleWebKit/537.36 (KHTML, like Gecko) Chrome/99.0.4844.51 Safari/537.36 Edg/99.0.1150.39",1536,1024,1536,914,"main",1666137,17,4,21,19,"HM","Moderate","Harder than Reference","F","k","safeDeck","riskyDeck",0,14,7,"right",1,0,32,"absent","riskyDeck",761,2000,1,0
"03b2uyxbciy",954.3,451.531000055524,13515,"06/04/2022@17:57:03","Mozilla/5.0 (Windows NT 10.0; Win64; x64) AppleWebKit/537.36 (KHTML, like Gecko) Chrome/99.0.4844.51 Safari/537.36 Edg/99.0.1150.39",1536,1024,1536,914,"main",1666137,17,5,22,19,"HM","Moderate","Harder than Reference","F","k","safeDeck","riskyDeck",0,14,7,"right",1,0,32,"absent","riskyDeck",761,2087,1,0
"03b2uyxbciy",954.3,451.531000055524,13515,"06/04/2022@17:57:03","Mozilla/5.0 (Windows NT 10.0; Win64; x64) AppleWebKit/537.36 (KHTML, like Gecko) Chrome/99.0.4844.51 Safari/537.36 Edg/99.0.1150.39",1536,1024,1536,914,"main",1666137,17,6,22,19,"HM","Moderate","Harder than Reference","F","k","safeDeck","riskyDeck",0,14,7,"right",1,0,32,"absent","riskyDeck",761,1935,1,0
"03b2uyxbciy",954.3,451.531000055524,13515,"06/04/2022@17:57:03","Mozilla/5.0 (Windows NT 10.0; Win64; x64) AppleWebKit/537.36 (KHTML, like Gecko) Chrome/99.0.4844.51 Safari/537.36 Edg/99.0.1150.39",1536,1024,1536,914,"main",1666137,17,7,22,19,"HM","Moderate","Harder than Reference","F","j","safeDeck","riskyDeck",0,14,7,"right",1,0,32,"present","riskyDeck",761,740,1,0
"03b2uyxbciy",954.3,451.531000055524,13515,"06/04/2022@17:57:03","Mozilla/5.0 (Windows NT 10.0; Win64; x64) AppleWebKit/537.36 (KHTML, like Gecko) Chrome/99.0.4844.51 Safari/537.36 Edg/99.0.1150.39",1536,1024,1536,914,"main",1666137,17,8,22,19,"HM","Moderate","Harder than Reference","F","k","safeDeck","riskyDeck",0,14,7,"right",1,0,32,"absent","riskyDeck",761,2142,1,0
"03b2uyxbciy",954.3,451.531000055524,13515,"06/04/2022@17:57:03","Mozilla/5.0 (Windows NT 10.0; Win64; x64) AppleWebKit/537.36 (KHTML, like Gecko) Chrome/99.0.4844.51 Safari/537.36 Edg/99.0.1150.39",1536,1024,1536,914,"main",1666137,17,9,22,19,"HM","Moderate","Harder than Reference","F","j","safeDeck","riskyDeck",0,14,7,"right",1,0,32,"present","riskyDeck",761,2101,1,0
"03b2uyxbciy",954.3,451.531000055524,13515,"06/04/2022@17:57:03","Mozilla/5.0 (Windows NT 10.0; Win64; x64) AppleWebKit/537.36 (KHTML, like Gecko) Chrome/99.0.4844.51 Safari/537.36 Edg/99.0.1150.39",1536,1024,1536,914,"main",1666137,18,1,22,19,"EE","Extreme","Easier than Reference","F","j","riskyDeck","safeDeck",-14,0,-7,"right",0,0,25,"present","safeDeck",805,1618,1,1
"03b2uyxbciy",954.3,451.531000055524,13515,"06/04/2022@17:57:03","Mozilla/5.0 (Windows NT 10.0; Win64; x64) AppleWebKit/537.36 (KHTML, like Gecko) Chrome/99.0.4844.51 Safari/537.36 Edg/99.0.1150.39",1536,1024,1536,914,"main",1666137,18,2,22,20,"EE","Extreme","Easier than Reference","F","k","riskyDeck","safeDeck",-14,0,-7,"right",0,0,25,"absent","safeDeck",805,2116,1,1
"03b2uyxbciy",954.3,451.531000055524,13515,"06/04/2022@17:57:03","Mozilla/5.0 (Windows NT 10.0; Win64; x64) AppleWebKit/537.36 (KHTML, like Gecko) Chrome/99.0.4844.51 Safari/537.36 Edg/99.0.1150.39",1536,1024,1536,914,"main",1666137,18,3,22,20,"EE","Extreme","Easier than Reference","F","k","riskyDeck","safeDeck",-14,0,-7,"right",0,0,25,"absent","safeDeck",805,2944,1,1
"03b2uyxbciy",954.3,451.531000055524,13515,"06/04/2022@17:57:03","Mozilla/5.0 (Windows NT 10.0; Win64; x64) AppleWebKit/537.36 (KHTML, like Gecko) Chrome/99.0.4844.51 Safari/537.36 Edg/99.0.1150.39",1536,1024,1536,914,"main",1666137,18,4,22,20,"EE","Extreme","Easier than Reference","F","k","riskyDeck","safeDeck",-14,0,-7,"right",0,0,25,"absent","safeDeck",805,2577,1,1
"03b2uyxbciy",954.3,451.531000055524,13515,"06/04/2022@17:57:03","Mozilla/5.0 (Windows NT 10.0; Win64; x64) AppleWebKit/537.36 (KHTML, like Gecko) Chrome/99.0.4844.51 Safari/537.36 Edg/99.0.1150.39",1536,1024,1536,914,"main",1666137,18,5,22,20,"EE","Extreme","Easier than Reference","F","j","riskyDeck","safeDeck",-14,0,-7,"right",0,0,25,"present","safeDeck",805,857,1,1
"03b2uyxbciy",954.3,451.531000055524,13515,"06/04/2022@17:57:03","Mozilla/5.0 (Windows NT 10.0; Win64; x64) AppleWebKit/537.36 (KHTML, like Gecko) Chrome/99.0.4844.51 Safari/537.36 Edg/99.0.1150.39",1536,1024,1536,914,"main",1666137,18,6,22,20,"EE","Extreme","Easier than Reference","F","k","riskyDeck","safeDeck",-14,0,-7,"right",0,0,25,"absent","safeDeck",805,2319,1,1
"03b2uyxbciy",954.3,451.531000055524,13515,"06/04/2022@17:57:03","Mozilla/5.0 (Windows NT 10.0; Win64; x64) AppleWebKit/537.36 (KHTML, like Gecko) Chrome/99.0.4844.51 Safari/537.36 Edg/99.0.1150.39",1536,1024,1536,914,"main",1666137,18,7,22,20,"EE","Extreme","Easier than Reference","F","k","riskyDeck","safeDeck",-14,0,-7,"right",0,0,25,"absent","safeDeck",805,2156,1,1
"03b2uyxbciy",954.3,451.531000055524,13515,"06/04/2022@17:57:03","Mozilla/5.0 (Windows NT 10.0; Win64; x64) AppleWebKit/537.36 (KHTML, like Gecko) Chrome/99.0.4844.51 Safari/537.36 Edg/99.0.1150.39",1536,1024,1536,914,"main",1666137,18,8,22,20,"EE","Extreme","Easier than Reference","F","k","riskyDeck","safeDeck",-14,0,-7,"right",0,0,25,"absent","safeDeck",805,1682,1,1
"03b2uyxbciy",954.3,451.531000055524,13515,"06/04/2022@17:57:03","Mozilla/5.0 (Windows NT 10.0; Win64; x64) AppleWebKit/537.36 (KHTML, like Gecko) Chrome/99.0.4844.51 Safari/537.36 Edg/99.0.1150.39",1536,1024,1536,914,"main",1666137,18,9,22,20,"EE","Extreme","Easier than Reference","F","j","riskyDeck","safeDeck",-14,0,-7,"right",0,0,25,"present","safeDeck",805,684,1,1
"03b2uyxbciy",954.3,451.531000055524,13515,"06/04/2022@17:57:03","Mozilla/5.0 (Windows NT 10.0; Win64; x64) AppleWebKit/537.36 (KHTML, like Gecko) Chrome/99.0.4844.51 Safari/537.36 Edg/99.0.1150.39",1536,1024,1536,914,"main",1666137,19,1,22,20,"EM","Moderate","Easier than Reference","D","j","safeDeck","riskyDeck",-28,0,-14,"left",0,0,18,"present","safeDeck",516,769,-1,1
"03b2uyxbciy",954.3,451.531000055524,13515,"06/04/2022@17:57:03","Mozilla/5.0 (Windows NT 10.0; Win64; x64) AppleWebKit/537.36 (KHTML, like Gecko) Chrome/99.0.4844.51 Safari/537.36 Edg/99.0.1150.39",1536,1024,1536,914,"main",1666137,19,2,22,20,"EM","Moderate","Easier than Reference","D","j","safeDeck","riskyDeck",-28,0,-14,"left",0,0,18,"present","safeDeck",516,634,-1,1
"03b2uyxbciy",954.3,451.531000055524,13515,"06/04/2022@17:57:03","Mozilla/5.0 (Windows NT 10.0; Win64; x64) AppleWebKit/537.36 (KHTML, like Gecko) Chrome/99.0.4844.51 Safari/537.36 Edg/99.0.1150.39",1536,1024,1536,914,"main",1666137,19,3,22,20,"EM","Moderate","Easier than Reference","D","j","safeDeck","riskyDeck",-28,0,-14,"left",0,0,18,"present","safeDeck",516,1379,-1,1
"03b2uyxbciy",954.3,451.531000055524,13515,"06/04/2022@17:57:03","Mozilla/5.0 (Windows NT 10.0; Win64; x64) AppleWebKit/537.36 (KHTML, like Gecko) Chrome/99.0.4844.51 Safari/537.36 Edg/99.0.1150.39",1536,1024,1536,914,"main",1666137,19,4,22,20,"EM","Moderate","Easier than Reference","D","k","safeDeck","riskyDeck",-28,0,-14,"left",0,0,18,"absent","safeDeck",516,2146,-1,1
"03b2uyxbciy",954.3,451.531000055524,13515,"06/04/2022@17:57:03","Mozilla/5.0 (Windows NT 10.0; Win64; x64) AppleWebKit/537.36 (KHTML, like Gecko) Chrome/99.0.4844.51 Safari/537.36 Edg/99.0.1150.39",1536,1024,1536,914,"main",1666137,19,5,22,20,"EM","Moderate","Easier than Reference","D","j","safeDeck","riskyDeck",-28,0,-14,"left",0,0,18,"present","safeDeck",516,1059,-1,1
"03b2uyxbciy",954.3,451.531000055524,13515,"06/04/2022@17:57:03","Mozilla/5.0 (Windows NT 10.0; Win64; x64) AppleWebKit/537.36 (KHTML, like Gecko) Chrome/99.0.4844.51 Safari/537.36 Edg/99.0.1150.39",1536,1024,1536,914,"main",1666137,19,6,22,20,"EM","Moderate","Easier than Reference","D","j","safeDeck","riskyDeck",-28,0,-14,"left",0,0,18,"present","safeDeck",516,1006,-1,1
"03b2uyxbciy",954.3,451.531000055524,13515,"06/04/2022@17:57:03","Mozilla/5.0 (Windows NT 10.0; Win64; x64) AppleWebKit/537.36 (KHTML, like Gecko) Chrome/99.0.4844.51 Safari/537.36 Edg/99.0.1150.39",1536,1024,1536,914,"main",1666137,19,7,22,20,"EM","Moderate","Easier than Reference","D","k","safeDeck","riskyDeck",-28,0,-14,"left",0,0,18,"absent","safeDeck",516,1812,-1,1
"03b2uyxbciy",954.3,451.531000055524,13515,"06/04/2022@17:57:03","Mozilla/5.0 (Windows NT 10.0; Win64; x64) AppleWebKit/537.36 (KHTML, like Gecko) Chrome/99.0.4844.51 Safari/537.36 Edg/99.0.1150.39",1536,1024,1536,914,"main",1666137,19,8,22,20,"EM","Moderate","Easier than Reference","D","j","safeDeck","riskyDeck",-28,0,-14,"left",0,0,18,"present","safeDeck",516,1425,-1,1
"03b2uyxbciy",954.3,451.531000055524,13515,"06/04/2022@17:57:03","Mozilla/5.0 (Windows NT 10.0; Win64; x64) AppleWebKit/537.36 (KHTML, like Gecko) Chrome/99.0.4844.51 Safari/537.36 Edg/99.0.1150.39",1536,1024,1536,914,"main",1666137,19,9,22,20,"EM","Moderate","Easier than Reference","D","j","safeDeck","riskyDeck",-28,0,-14,"left",0,0,18,"present","safeDeck",516,890,-1,1
"03b2uyxbciy",954.3,451.531000055524,13515,"06/04/2022@17:57:03","Mozilla/5.0 (Windows NT 10.0; Win64; x64) AppleWebKit/537.36 (KHTML, like Gecko) Chrome/99.0.4844.51 Safari/537.36 Edg/99.0.1150.39",1536,1024,1536,914,"main",1666137,20,1,22,20,"HE","Extreme","Harder than Reference","D","j","riskyDeck","safeDeck",0,28,14,"left",1,0,60,"present","riskyDeck",682,2060,-1,0
"03b2uyxbciy",954.3,451.531000055524,13515,"06/04/2022@17:57:03","Mozilla/5.0 (Windows NT 10.0; Win64; x64) AppleWebKit/537.36 (KHTML, like Gecko) Chrome/99.0.4844.51 Safari/537.36 Edg/99.0.1150.39",1536,1024,1536,914,"main",1666137,20,2,22,20,"HE","Extreme","Harder than Reference","D","j","riskyDeck","safeDeck",0,28,14,"left",1,0,60,"present","riskyDeck",682,1118,-1,0
"03b2uyxbciy",954.3,451.531000055524,13515,"06/04/2022@17:57:03","Mozilla/5.0 (Windows NT 10.0; Win64; x64) AppleWebKit/537.36 (KHTML, like Gecko) Chrome/99.0.4844.51 Safari/537.36 Edg/99.0.1150.39",1536,1024,1536,914,"main",1666137,20,3,22,20,"HE","Extreme","Harder than Reference","D","k","riskyDeck","safeDeck",0,28,14,"left",1,0,60,"absent","riskyDeck",682,2979,-1,0
"03b2uyxbciy",954.3,451.531000055524,13515,"06/04/2022@17:57:03","Mozilla/5.0 (Windows NT 10.0; Win64; x64) AppleWebKit/537.36 (KHTML, like Gecko) Chrome/99.0.4844.51 Safari/537.36 Edg/99.0.1150.39",1536,1024,1536,914,"main",1666137,20,4,23,20,"HE","Extreme","Harder than Reference","D","k","riskyDeck","safeDeck",0,28,14,"left",1,0,60,"absent","riskyDeck",682,3290,-1,0
"03b2uyxbciy",954.3,451.531000055524,13515,"06/04/2022@17:57:03","Mozilla/5.0 (Windows NT 10.0; Win64; x64) AppleWebKit/537.36 (KHTML, like Gecko) Chrome/99.0.4844.51 Safari/537.36 Edg/99.0.1150.39",1536,1024,1536,914,"main",1666137,20,5,23,20,"HE","Extreme","Harder than Reference","D","k","riskyDeck","safeDeck",0,28,14,"left",1,1,60,"present","riskyDeck",682,3675,-1,0
"03b2uyxbciy",954.3,451.531000055524,13515,"06/04/2022@17:57:03","Mozilla/5.0 (Windows NT 10.0; Win64; x64) AppleWebKit/537.36 (KHTML, like Gecko) Chrome/99.0.4844.51 Safari/537.36 Edg/99.0.1150.39",1536,1024,1536,914,"main",1666137,20,6,23,20,"HE","Extreme","Harder than Reference","D","j","riskyDeck","safeDeck",0,28,14,"left",1,0,60,"present","riskyDeck",682,5504,-1,0
"03b2uyxbciy",954.3,451.531000055524,13515,"06/04/2022@17:57:03","Mozilla/5.0 (Windows NT 10.0; Win64; x64) AppleWebKit/537.36 (KHTML, like Gecko) Chrome/99.0.4844.51 Safari/537.36 Edg/99.0.1150.39",1536,1024,1536,914,"main",1666137,20,7,23,21,"HE","Extreme","Harder than Reference","D","k","riskyDeck","safeDeck",0,28,14,"left",1,0,60,"absent","riskyDeck",682,3713,-1,0
"03b2uyxbciy",954.3,451.531000055524,13515,"06/04/2022@17:57:03","Mozilla/5.0 (Windows NT 10.0; Win64; x64) AppleWebKit/537.36 (KHTML, like Gecko) Chrome/99.0.4844.51 Safari/537.36 Edg/99.0.1150.39",1536,1024,1536,914,"main",1666137,20,8,23,21,"HE","Extreme","Harder than Reference","D","k","riskyDeck","safeDeck",0,28,14,"left",1,0,60,"absent","riskyDeck",682,4659,-1,0
"03b2uyxbciy",954.3,451.531000055524,13515,"06/04/2022@17:57:03","Mozilla/5.0 (Windows NT 10.0; Win64; x64) AppleWebKit/537.36 (KHTML, like Gecko) Chrome/99.0.4844.51 Safari/537.36 Edg/99.0.1150.39",1536,1024,1536,914,"main",1666137,20,9,23,21,"HE","Extreme","Harder than Reference","D","k","riskyDeck","safeDeck",0,28,14,"left",1,0,60,"absent","riskyDeck",682,3463,-1,0
"03b2uyxbciy",954.3,451.531000055524,13515,"06/04/2022@17:57:03","Mozilla/5.0 (Windows NT 10.0; Win64; x64) AppleWebKit/537.36 (KHTML, like Gecko) Chrome/99.0.4844.51 Safari/537.36 Edg/99.0.1150.39",1536,1024,1536,914,"main",1666137,21,1,23,21,"EE","Extreme","Easier than Reference","F","j","riskyDeck","safeDeck",0,-14,-7,"right",0,0,25,"present","safeDeck",1112,1107,1,1
"03b2uyxbciy",954.3,451.531000055524,13515,"06/04/2022@17:57:03","Mozilla/5.0 (Windows NT 10.0; Win64; x64) AppleWebKit/537.36 (KHTML, like Gecko) Chrome/99.0.4844.51 Safari/537.36 Edg/99.0.1150.39",1536,1024,1536,914,"main",1666137,21,2,23,21,"EE","Extreme","Easier than Reference","F","j","riskyDeck","safeDeck",0,-14,-7,"right",0,0,25,"present","safeDeck",1112,1736,1,1
"03b2uyxbciy",954.3,451.531000055524,13515,"06/04/2022@17:57:03","Mozilla/5.0 (Windows NT 10.0; Win64; x64) AppleWebKit/537.36 (KHTML, like Gecko) Chrome/99.0.4844.51 Safari/537.36 Edg/99.0.1150.39",1536,1024,1536,914,"main",1666137,21,3,23,21,"EE","Extreme","Easier than Reference","F","j","riskyDeck","safeDeck",0,-14,-7,"right",0,1,25,"absent","safeDeck",1112,1916,1,1
"03b2uyxbciy",954.3,451.531000055524,13515,"06/04/2022@17:57:03","Mozilla/5.0 (Windows NT 10.0; Win64; x64) AppleWebKit/537.36 (KHTML, like Gecko) Chrome/99.0.4844.51 Safari/537.36 Edg/99.0.1150.39",1536,1024,1536,914,"main",1666137,21,4,23,21,"EE","Extreme","Easier than Reference","F","k","riskyDeck","safeDeck",0,-14,-7,"right",0,0,25,"absent","safeDeck",1112,2708,1,1
"03b2uyxbciy",954.3,451.531000055524,13515,"06/04/2022@17:57:03","Mozilla/5.0 (Windows NT 10.0; Win64; x64) AppleWebKit/537.36 (KHTML, like Gecko) Chrome/99.0.4844.51 Safari/537.36 Edg/99.0.1150.39",1536,1024,1536,914,"main",1666137,21,5,23,21,"EE","Extreme","Easier than Reference","F","j","riskyDeck","safeDeck",0,-14,-7,"right",0,0,25,"present","safeDeck",1112,1233,1,1
"03b2uyxbciy",954.3,451.531000055524,13515,"06/04/2022@17:57:03","Mozilla/5.0 (Windows NT 10.0; Win64; x64) AppleWebKit/537.36 (KHTML, like Gecko) Chrome/99.0.4844.51 Safari/537.36 Edg/99.0.1150.39",1536,1024,1536,914,"main",1666137,21,6,23,21,"EE","Extreme","Easier than Reference","F","k","riskyDeck","safeDeck",0,-14,-7,"right",0,0,25,"absent","safeDeck",1112,2105,1,1
"03b2uyxbciy",954.3,451.531000055524,13515,"06/04/2022@17:57:03","Mozilla/5.0 (Windows NT 10.0; Win64; x64) AppleWebKit/537.36 (KHTML, like Gecko) Chrome/99.0.4844.51 Safari/537.36 Edg/99.0.1150.39",1536,1024,1536,914,"main",1666137,21,7,23,21,"EE","Extreme","Easier than Reference","F","k","riskyDeck","safeDeck",0,-14,-7,"right",0,0,25,"absent","safeDeck",1112,1700,1,1
"03b2uyxbciy",954.3,451.531000055524,13515,"06/04/2022@17:57:03","Mozilla/5.0 (Windows NT 10.0; Win64; x64) AppleWebKit/537.36 (KHTML, like Gecko) Chrome/99.0.4844.51 Safari/537.36 Edg/99.0.1150.39",1536,1024,1536,914,"main",1666137,21,8,23,21,"EE","Extreme","Easier than Reference","F","k","riskyDeck","safeDeck",0,-14,-7,"right",0,1,25,"present","safeDeck",1112,1981,1,1
"03b2uyxbciy",954.3,451.531000055524,13515,"06/04/2022@17:57:03","Mozilla/5.0 (Windows NT 10.0; Win64; x64) AppleWebKit/537.36 (KHTML, like Gecko) Chrome/99.0.4844.51 Safari/537.36 Edg/99.0.1150.39",1536,1024,1536,914,"main",1666137,21,9,23,21,"EE","Extreme","Easier than Reference","F","j","riskyDeck","safeDeck",0,-14,-7,"right",0,0,25,"present","safeDeck",1112,933,1,1
"03b2uyxbciy",954.3,451.531000055524,13515,"06/04/2022@17:57:03","Mozilla/5.0 (Windows NT 10.0; Win64; x64) AppleWebKit/537.36 (KHTML, like Gecko) Chrome/99.0.4844.51 Safari/537.36 Edg/99.0.1150.39",1536,1024,1536,914,"main",1666137,22,1,23,21,"HM","Moderate","Harder than Reference","D","k","riskyDeck","safeDeck",0,14,7,"left",1,0,46,"absent","riskyDeck",719,3308,-1,0
"03b2uyxbciy",954.3,451.531000055524,13515,"06/04/2022@17:57:03","Mozilla/5.0 (Windows NT 10.0; Win64; x64) AppleWebKit/537.36 (KHTML, like Gecko) Chrome/99.0.4844.51 Safari/537.36 Edg/99.0.1150.39",1536,1024,1536,914,"main",1666137,22,2,24,21,"HM","Moderate","Harder than Reference","D","j","riskyDeck","safeDeck",0,14,7,"left",1,0,46,"present","riskyDeck",719,1799,-1,0
"03b2uyxbciy",954.3,451.531000055524,13515,"06/04/2022@17:57:03","Mozilla/5.0 (Windows NT 10.0; Win64; x64) AppleWebKit/537.36 (KHTML, like Gecko) Chrome/99.0.4844.51 Safari/537.36 Edg/99.0.1150.39",1536,1024,1536,914,"main",1666137,22,3,24,21,"HM","Moderate","Harder than Reference","D","j","riskyDeck","safeDeck",0,14,7,"left",1,0,46,"present","riskyDeck",719,903,-1,0
"03b2uyxbciy",954.3,451.531000055524,13515,"06/04/2022@17:57:03","Mozilla/5.0 (Windows NT 10.0; Win64; x64) AppleWebKit/537.36 (KHTML, like Gecko) Chrome/99.0.4844.51 Safari/537.36 Edg/99.0.1150.39",1536,1024,1536,914,"main",1666137,22,4,24,21,"HM","Moderate","Harder than Reference","D","k","riskyDeck","safeDeck",0,14,7,"left",1,0,46,"absent","riskyDeck",719,2599,-1,0
"03b2uyxbciy",954.3,451.531000055524,13515,"06/04/2022@17:57:03","Mozilla/5.0 (Windows NT 10.0; Win64; x64) AppleWebKit/537.36 (KHTML, like Gecko) Chrome/99.0.4844.51 Safari/537.36 Edg/99.0.1150.39",1536,1024,1536,914,"main",1666137,22,5,24,21,"HM","Moderate","Harder than Reference","D","k","riskyDeck","safeDeck",0,14,7,"left",1,0,46,"absent","riskyDeck",719,2013,-1,0
"03b2uyxbciy",954.3,451.531000055524,13515,"06/04/2022@17:57:03","Mozilla/5.0 (Windows NT 10.0; Win64; x64) AppleWebKit/537.36 (KHTML, like Gecko) Chrome/99.0.4844.51 Safari/537.36 Edg/99.0.1150.39",1536,1024,1536,914,"main",1666137,22,6,24,21,"HM","Moderate","Harder than Reference","D","j","riskyDeck","safeDeck",0,14,7,"left",1,0,46,"present","riskyDeck",719,1010,-1,0
"03b2uyxbciy",954.3,451.531000055524,13515,"06/04/2022@17:57:03","Mozilla/5.0 (Windows NT 10.0; Win64; x64) AppleWebKit/537.36 (KHTML, like Gecko) Chrome/99.0.4844.51 Safari/537.36 Edg/99.0.1150.39",1536,1024,1536,914,"main",1666137,22,7,24,21,"HM","Moderate","Harder than Reference","D","j","riskyDeck","safeDeck",0,14,7,"left",1,0,46,"present","riskyDeck",719,1059,-1,0
"03b2uyxbciy",954.3,451.531000055524,13515,"06/04/2022@17:57:03","Mozilla/5.0 (Windows NT 10.0; Win64; x64) AppleWebKit/537.36 (KHTML, like Gecko) Chrome/99.0.4844.51 Safari/537.36 Edg/99.0.1150.39",1536,1024,1536,914,"main",1666137,22,8,24,21,"HM","Moderate","Harder than Reference","D","k","riskyDeck","safeDeck",0,14,7,"left",1,0,46,"absent","riskyDeck",719,2586,-1,0
"03b2uyxbciy",954.3,451.531000055524,13515,"06/04/2022@17:57:03","Mozilla/5.0 (Windows NT 10.0; Win64; x64) AppleWebKit/537.36 (KHTML, like Gecko) Chrome/99.0.4844.51 Safari/537.36 Edg/99.0.1150.39",1536,1024,1536,914,"main",1666137,22,9,24,22,"HM","Moderate","Harder than Reference","D","j","riskyDeck","safeDeck",0,14,7,"left",1,0,46,"present","riskyDeck",719,2337,-1,0
"03b2uyxbciy",954.3,451.531000055524,13515,"06/04/2022@17:57:03","Mozilla/5.0 (Windows NT 10.0; Win64; x64) AppleWebKit/537.36 (KHTML, like Gecko) Chrome/99.0.4844.51 Safari/537.36 Edg/99.0.1150.39",1536,1024,1536,914,"main",1666137,23,1,24,22,"EM","Moderate","Easier than Reference","D","k","safeDeck","riskyDeck",-28,0,-14,"left",0,0,18,"absent","safeDeck",837,3789,-1,1
"03b2uyxbciy",954.3,451.531000055524,13515,"06/04/2022@17:57:03","Mozilla/5.0 (Windows NT 10.0; Win64; x64) AppleWebKit/537.36 (KHTML, like Gecko) Chrome/99.0.4844.51 Safari/537.36 Edg/99.0.1150.39",1536,1024,1536,914,"main",1666137,23,2,24,22,"EM","Moderate","Easier than Reference","D","j","safeDeck","riskyDeck",-28,0,-14,"left",0,0,18,"present","safeDeck",837,1244,-1,1
"03b2uyxbciy",954.3,451.531000055524,13515,"06/04/2022@17:57:03","Mozilla/5.0 (Windows NT 10.0; Win64; x64) AppleWebKit/537.36 (KHTML, like Gecko) Chrome/99.0.4844.51 Safari/537.36 Edg/99.0.1150.39",1536,1024,1536,914,"main",1666137,23,3,24,22,"EM","Moderate","Easier than Reference","D","j","safeDeck","riskyDeck",-28,0,-14,"left",0,0,18,"present","safeDeck",837,1341,-1,1
"03b2uyxbciy",954.3,451.531000055524,13515,"06/04/2022@17:57:03","Mozilla/5.0 (Windows NT 10.0; Win64; x64) AppleWebKit/537.36 (KHTML, like Gecko) Chrome/99.0.4844.51 Safari/537.36 Edg/99.0.1150.39",1536,1024,1536,914,"main",1666137,23,4,24,22,"EM","Moderate","Easier than Reference","D","k","safeDeck","riskyDeck",-28,0,-14,"left",0,0,18,"absent","safeDeck",837,1709,-1,1
"03b2uyxbciy",954.3,451.531000055524,13515,"06/04/2022@17:57:03","Mozilla/5.0 (Windows NT 10.0; Win64; x64) AppleWebKit/537.36 (KHTML, like Gecko) Chrome/99.0.4844.51 Safari/537.36 Edg/99.0.1150.39",1536,1024,1536,914,"main",1666137,23,5,24,22,"EM","Moderate","Easier than Reference","D","j","safeDeck","riskyDeck",-28,0,-14,"left",0,0,18,"present","safeDeck",837,829,-1,1
"03b2uyxbciy",954.3,451.531000055524,13515,"06/04/2022@17:57:03","Mozilla/5.0 (Windows NT 10.0; Win64; x64) AppleWebKit/537.36 (KHTML, like Gecko) Chrome/99.0.4844.51 Safari/537.36 Edg/99.0.1150.39",1536,1024,1536,914,"main",1666137,23,6,24,22,"EM","Moderate","Easier than Reference","D","k","safeDeck","riskyDeck",-28,0,-14,"left",0,0,18,"absent","safeDeck",837,2341,-1,1
"03b2uyxbciy",954.3,451.531000055524,13515,"06/04/2022@17:57:03","Mozilla/5.0 (Windows NT 10.0; Win64; x64) AppleWebKit/537.36 (KHTML, like Gecko) Chrome/99.0.4844.51 Safari/537.36 Edg/99.0.1150.39",1536,1024,1536,914,"main",1666137,23,7,24,22,"EM","Moderate","Easier than Reference","D","j","safeDeck","riskyDeck",-28,0,-14,"left",0,0,18,"present","safeDeck",837,850,-1,1
"03b2uyxbciy",954.3,451.531000055524,13515,"06/04/2022@17:57:03","Mozilla/5.0 (Windows NT 10.0; Win64; x64) AppleWebKit/537.36 (KHTML, like Gecko) Chrome/99.0.4844.51 Safari/537.36 Edg/99.0.1150.39",1536,1024,1536,914,"main",1666137,23,8,24,22,"EM","Moderate","Easier than Reference","D","j","safeDeck","riskyDeck",-28,0,-14,"left",0,0,18,"present","safeDeck",837,862,-1,1
"03b2uyxbciy",954.3,451.531000055524,13515,"06/04/2022@17:57:03","Mozilla/5.0 (Windows NT 10.0; Win64; x64) AppleWebKit/537.36 (KHTML, like Gecko) Chrome/99.0.4844.51 Safari/537.36 Edg/99.0.1150.39",1536,1024,1536,914,"main",1666137,23,9,24,22,"EM","Moderate","Easier than Reference","D","k","safeDeck","riskyDeck",-28,0,-14,"left",0,0,18,"absent","safeDeck",837,1542,-1,1
"03b2uyxbciy",954.3,451.531000055524,13515,"06/04/2022@17:57:03","Mozilla/5.0 (Windows NT 10.0; Win64; x64) AppleWebKit/537.36 (KHTML, like Gecko) Chrome/99.0.4844.51 Safari/537.36 Edg/99.0.1150.39",1536,1024,1536,914,"main",1666137,24,1,24,22,"HE","Extreme","Harder than Reference","F","k","safeDeck","riskyDeck",0,28,14,"right",1,0,32,"absent","riskyDeck",789,2350,1,0
"03b2uyxbciy",954.3,451.531000055524,13515,"06/04/2022@17:57:03","Mozilla/5.0 (Windows NT 10.0; Win64; x64) AppleWebKit/537.36 (KHTML, like Gecko) Chrome/99.0.4844.51 Safari/537.36 Edg/99.0.1150.39",1536,1024,1536,914,"main",1666137,24,2,24,22,"HE","Extreme","Harder than Reference","F","j","safeDeck","riskyDeck",0,28,14,"right",1,0,32,"present","riskyDeck",789,791,1,0
"03b2uyxbciy",954.3,451.531000055524,13515,"06/04/2022@17:57:03","Mozilla/5.0 (Windows NT 10.0; Win64; x64) AppleWebKit/537.36 (KHTML, like Gecko) Chrome/99.0.4844.51 Safari/537.36 Edg/99.0.1150.39",1536,1024,1536,914,"main",1666137,24,3,24,22,"HE","Extreme","Harder than Reference","F","k","safeDeck","riskyDeck",0,28,14,"right",1,0,32,"absent","riskyDeck",789,2229,1,0
"03b2uyxbciy",954.3,451.531000055524,13515,"06/04/2022@17:57:03","Mozilla/5.0 (Windows NT 10.0; Win64; x64) AppleWebKit/537.36 (KHTML, like Gecko) Chrome/99.0.4844.51 Safari/537.36 Edg/99.0.1150.39",1536,1024,1536,914,"main",1666137,24,4,24,22,"HE","Extreme","Harder than Reference","F","j","safeDeck","riskyDeck",0,28,14,"right",1,0,32,"present","riskyDeck",789,590,1,0
"03b2uyxbciy",954.3,451.531000055524,13515,"06/04/2022@17:57:03","Mozilla/5.0 (Windows NT 10.0; Win64; x64) AppleWebKit/537.36 (KHTML, like Gecko) Chrome/99.0.4844.51 Safari/537.36 Edg/99.0.1150.39",1536,1024,1536,914,"main",1666137,24,5,24,22,"HE","Extreme","Harder than Reference","F","j","safeDeck","riskyDeck",0,28,14,"right",1,0,32,"present","riskyDeck",789,625,1,0
"03b2uyxbciy",954.3,451.531000055524,13515,"06/04/2022@17:57:03","Mozilla/5.0 (Windows NT 10.0; Win64; x64) AppleWebKit/537.36 (KHTML, like Gecko) Chrome/99.0.4844.51 Safari/537.36 Edg/99.0.1150.39",1536,1024,1536,914,"main",1666137,24,6,24,22,"HE","Extreme","Harder than Reference","F","j","safeDeck","riskyDeck",0,28,14,"right",1,0,32,"present","riskyDeck",789,1269,1,0
"03b2uyxbciy",954.3,451.531000055524,13515,"06/04/2022@17:57:03","Mozilla/5.0 (Windows NT 10.0; Win64; x64) AppleWebKit/537.36 (KHTML, like Gecko) Chrome/99.0.4844.51 Safari/537.36 Edg/99.0.1150.39",1536,1024,1536,914,"main",1666137,24,7,24,22,"HE","Extreme","Harder than Reference","F","k","safeDeck","riskyDeck",0,28,14,"right",1,0,32,"absent","riskyDeck",789,2018,1,0
"03b2uyxbciy",954.3,451.531000055524,13515,"06/04/2022@17:57:03","Mozilla/5.0 (Windows NT 10.0; Win64; x64) AppleWebKit/537.36 (KHTML, like Gecko) Chrome/99.0.4844.51 Safari/537.36 Edg/99.0.1150.39",1536,1024,1536,914,"main",1666137,24,8,24,22,"HE","Extreme","Harder than Reference","F","k","safeDeck","riskyDeck",0,28,14,"right",1,0,32,"absent","riskyDeck",789,1988,1,0
"03b2uyxbciy",954.3,451.531000055524,13515,"06/04/2022@17:57:03","Mozilla/5.0 (Windows NT 10.0; Win64; x64) AppleWebKit/537.36 (KHTML, like Gecko) Chrome/99.0.4844.51 Safari/537.36 Edg/99.0.1150.39",1536,1024,1536,914,"main",1666137,24,9,24,22,"HE","Extreme","Harder than Reference","F","j","safeDeck","riskyDeck",0,28,14,"right",1,0,32,"present","riskyDeck",789,1842,1,0
"03b2uyxbciy",954.3,451.531000055524,13515,"06/04/2022@17:57:03","Mozilla/5.0 (Windows NT 10.0; Win64; x64) AppleWebKit/537.36 (KHTML, like Gecko) Chrome/99.0.4844.51 Safari/537.36 Edg/99.0.1150.39",1536,1024,1536,914,"main",1666137,25,1,25,22,"HE","Extreme","Harder than Reference","F","k","safeDeck","riskyDeck",0,28,14,"right",1,0,60,"absent","riskyDeck",595,4728,1,0
"03b2uyxbciy",954.3,451.531000055524,13515,"06/04/2022@17:57:03","Mozilla/5.0 (Windows NT 10.0; Win64; x64) AppleWebKit/537.36 (KHTML, like Gecko) Chrome/99.0.4844.51 Safari/537.36 Edg/99.0.1150.39",1536,1024,1536,914,"main",1666137,25,2,25,22,"HE","Extreme","Harder than Reference","F","j","safeDeck","riskyDeck",0,28,14,"right",1,0,60,"present","riskyDeck",595,832,1,0
"03b2uyxbciy",954.3,451.531000055524,13515,"06/04/2022@17:57:03","Mozilla/5.0 (Windows NT 10.0; Win64; x64) AppleWebKit/537.36 (KHTML, like Gecko) Chrome/99.0.4844.51 Safari/537.36 Edg/99.0.1150.39",1536,1024,1536,914,"main",1666137,25,3,25,22,"HE","Extreme","Harder than Reference","F","j","safeDeck","riskyDeck",0,28,14,"right",1,0,60,"present","riskyDeck",595,1742,1,0
"03b2uyxbciy",954.3,451.531000055524,13515,"06/04/2022@17:57:03","Mozilla/5.0 (Windows NT 10.0; Win64; x64) AppleWebKit/537.36 (KHTML, like Gecko) Chrome/99.0.4844.51 Safari/537.36 Edg/99.0.1150.39",1536,1024,1536,914,"main",1666137,25,4,25,22,"HE","Extreme","Harder than Reference","F","j","safeDeck","riskyDeck",0,28,14,"right",1,0,60,"present","riskyDeck",595,6555,1,0
"03b2uyxbciy",954.3,451.531000055524,13515,"06/04/2022@17:57:03","Mozilla/5.0 (Windows NT 10.0; Win64; x64) AppleWebKit/537.36 (KHTML, like Gecko) Chrome/99.0.4844.51 Safari/537.36 Edg/99.0.1150.39",1536,1024,1536,914,"main",1666137,25,5,25,23,"HE","Extreme","Harder than Reference","F","k","safeDeck","riskyDeck",0,28,14,"right",1,0,60,"absent","riskyDeck",595,4762,1,0
"03b2uyxbciy",954.3,451.531000055524,13515,"06/04/2022@17:57:03","Mozilla/5.0 (Windows NT 10.0; Win64; x64) AppleWebKit/537.36 (KHTML, like Gecko) Chrome/99.0.4844.51 Safari/537.36 Edg/99.0.1150.39",1536,1024,1536,914,"main",1666137,25,6,25,23,"HE","Extreme","Harder than Reference","F","k","safeDeck","riskyDeck",0,28,14,"right",1,0,60,"absent","riskyDeck",595,4289,1,0
"03b2uyxbciy",954.3,451.531000055524,13515,"06/04/2022@17:57:03","Mozilla/5.0 (Windows NT 10.0; Win64; x64) AppleWebKit/537.36 (KHTML, like Gecko) Chrome/99.0.4844.51 Safari/537.36 Edg/99.0.1150.39",1536,1024,1536,914,"main",1666137,25,7,25,23,"HE","Extreme","Harder than Reference","F","k","safeDeck","riskyDeck",0,28,14,"right",1,0,60,"absent","riskyDeck",595,3835,1,0
"03b2uyxbciy",954.3,451.531000055524,13515,"06/04/2022@17:57:03","Mozilla/5.0 (Windows NT 10.0; Win64; x64) AppleWebKit/537.36 (KHTML, like Gecko) Chrome/99.0.4844.51 Safari/537.36 Edg/99.0.1150.39",1536,1024,1536,914,"main",1666137,25,8,25,23,"HE","Extreme","Harder than Reference","F","k","safeDeck","riskyDeck",0,28,14,"right",1,0,60,"absent","riskyDeck",595,3375,1,0
"03b2uyxbciy",954.3,451.531000055524,13515,"06/04/2022@17:57:03","Mozilla/5.0 (Windows NT 10.0; Win64; x64) AppleWebKit/537.36 (KHTML, like Gecko) Chrome/99.0.4844.51 Safari/537.36 Edg/99.0.1150.39",1536,1024,1536,914,"main",1666137,25,9,25,23,"HE","Extreme","Harder than Reference","F","k","safeDeck","riskyDeck",0,28,14,"right",1,1,60,"present","riskyDeck",595,3076,1,0
"03b2uyxbciy",954.3,451.531000055524,13515,"06/04/2022@17:57:03","Mozilla/5.0 (Windows NT 10.0; Win64; x64) AppleWebKit/537.36 (KHTML, like Gecko) Chrome/99.0.4844.51 Safari/537.36 Edg/99.0.1150.39",1536,1024,1536,914,"main",1666137,26,1,25,23,"EM","Moderate","Easier than Reference","F","k","riskyDeck","safeDeck",0,-28,-14,"right",0,0,18,"absent","safeDeck",610,1355,1,1
"03b2uyxbciy",954.3,451.531000055524,13515,"06/04/2022@17:57:03","Mozilla/5.0 (Windows NT 10.0; Win64; x64) AppleWebKit/537.36 (KHTML, like Gecko) Chrome/99.0.4844.51 Safari/537.36 Edg/99.0.1150.39",1536,1024,1536,914,"main",1666137,26,2,25,23,"EM","Moderate","Easier than Reference","F","j","riskyDeck","safeDeck",0,-28,-14,"right",0,0,18,"present","safeDeck",610,735,1,1
"03b2uyxbciy",954.3,451.531000055524,13515,"06/04/2022@17:57:03","Mozilla/5.0 (Windows NT 10.0; Win64; x64) AppleWebKit/537.36 (KHTML, like Gecko) Chrome/99.0.4844.51 Safari/537.36 Edg/99.0.1150.39",1536,1024,1536,914,"main",1666137,26,3,25,23,"EM","Moderate","Easier than Reference","F","k","riskyDeck","safeDeck",0,-28,-14,"right",0,0,18,"absent","safeDeck",610,1325,1,1
"03b2uyxbciy",954.3,451.531000055524,13515,"06/04/2022@17:57:03","Mozilla/5.0 (Windows NT 10.0; Win64; x64) AppleWebKit/537.36 (KHTML, like Gecko) Chrome/99.0.4844.51 Safari/537.36 Edg/99.0.1150.39",1536,1024,1536,914,"main",1666137,26,4,25,23,"EM","Moderate","Easier than Reference","F","k","riskyDeck","safeDeck",0,-28,-14,"right",0,0,18,"absent","safeDeck",610,1268,1,1
"03b2uyxbciy",954.3,451.531000055524,13515,"06/04/2022@17:57:03","Mozilla/5.0 (Windows NT 10.0; Win64; x64) AppleWebKit/537.36 (KHTML, like Gecko) Chrome/99.0.4844.51 Safari/537.36 Edg/99.0.1150.39",1536,1024,1536,914,"main",1666137,26,5,25,23,"EM","Moderate","Easier than Reference","F","j","riskyDeck","safeDeck",0,-28,-14,"right",0,0,18,"present","safeDeck",610,874,1,1
"03b2uyxbciy",954.3,451.531000055524,13515,"06/04/2022@17:57:03","Mozilla/5.0 (Windows NT 10.0; Win64; x64) AppleWebKit/537.36 (KHTML, like Gecko) Chrome/99.0.4844.51 Safari/537.36 Edg/99.0.1150.39",1536,1024,1536,914,"main",1666137,26,6,25,23,"EM","Moderate","Easier than Reference","F","j","riskyDeck","safeDeck",0,-28,-14,"right",0,0,18,"present","safeDeck",610,986,1,1
"03b2uyxbciy",954.3,451.531000055524,13515,"06/04/2022@17:57:03","Mozilla/5.0 (Windows NT 10.0; Win64; x64) AppleWebKit/537.36 (KHTML, like Gecko) Chrome/99.0.4844.51 Safari/537.36 Edg/99.0.1150.39",1536,1024,1536,914,"main",1666137,26,7,25,23,"EM","Moderate","Easier than Reference","F","k","riskyDeck","safeDeck",0,-28,-14,"right",0,0,18,"absent","safeDeck",610,1307,1,1
"03b2uyxbciy",954.3,451.531000055524,13515,"06/04/2022@17:57:03","Mozilla/5.0 (Windows NT 10.0; Win64; x64) AppleWebKit/537.36 (KHTML, like Gecko) Chrome/99.0.4844.51 Safari/537.36 Edg/99.0.1150.39",1536,1024,1536,914,"main",1666137,26,8,25,23,"EM","Moderate","Easier than Reference","F","j","riskyDeck","safeDeck",0,-28,-14,"right",0,0,18,"present","safeDeck",610,1257,1,1
"03b2uyxbciy",954.3,451.531000055524,13515,"06/04/2022@17:57:03","Mozilla/5.0 (Windows NT 10.0; Win64; x64) AppleWebKit/537.36 (KHTML, like Gecko) Chrome/99.0.4844.51 Safari/537.36 Edg/99.0.1150.39",1536,1024,1536,914,"main",1666137,26,9,25,23,"EM","Moderate","Easier than Reference","F","k","riskyDeck","safeDeck",0,-28,-14,"right",0,0,18,"absent","safeDeck",610,1620,1,1
"03b2uyxbciy",954.3,451.531000055524,13515,"06/04/2022@17:57:03","Mozilla/5.0 (Windows NT 10.0; Win64; x64) AppleWebKit/537.36 (KHTML, like Gecko) Chrome/99.0.4844.51 Safari/537.36 Edg/99.0.1150.39",1536,1024,1536,914,"main",1666137,27,1,25,23,"EE","Extreme","Easier than Reference","F","k","riskyDeck","safeDeck",0,-14,-7,"right",0,0,25,"absent","safeDeck",524,1545,1,1
"03b2uyxbciy",954.3,451.531000055524,13515,"06/04/2022@17:57:03","Mozilla/5.0 (Windows NT 10.0; Win64; x64) AppleWebKit/537.36 (KHTML, like Gecko) Chrome/99.0.4844.51 Safari/537.36 Edg/99.0.1150.39",1536,1024,1536,914,"main",1666137,27,2,25,23,"EE","Extreme","Easier than Reference","F","k","riskyDeck","safeDeck",0,-14,-7,"right",0,0,25,"absent","safeDeck",524,1290,1,1
"03b2uyxbciy",954.3,451.531000055524,13515,"06/04/2022@17:57:03","Mozilla/5.0 (Windows NT 10.0; Win64; x64) AppleWebKit/537.36 (KHTML, like Gecko) Chrome/99.0.4844.51 Safari/537.36 Edg/99.0.1150.39",1536,1024,1536,914,"main",1666137,27,3,25,23,"EE","Extreme","Easier than Reference","F","k","riskyDeck","safeDeck",0,-14,-7,"right",0,0,25,"absent","safeDeck",524,1435,1,1
"03b2uyxbciy",954.3,451.531000055524,13515,"06/04/2022@17:57:03","Mozilla/5.0 (Windows NT 10.0; Win64; x64) AppleWebKit/537.36 (KHTML, like Gecko) Chrome/99.0.4844.51 Safari/537.36 Edg/99.0.1150.39",1536,1024,1536,914,"main",1666137,27,4,25,23,"EE","Extreme","Easier than Reference","F","k","riskyDeck","safeDeck",0,-14,-7,"right",0,0,25,"absent","safeDeck",524,997,1,1
"03b2uyxbciy",954.3,451.531000055524,13515,"06/04/2022@17:57:03","Mozilla/5.0 (Windows NT 10.0; Win64; x64) AppleWebKit/537.36 (KHTML, like Gecko) Chrome/99.0.4844.51 Safari/537.36 Edg/99.0.1150.39",1536,1024,1536,914,"main",1666137,27,5,25,23,"EE","Extreme","Easier than Reference","F","k","riskyDeck","safeDeck",0,-14,-7,"right",0,0,25,"absent","safeDeck",524,1304,1,1
"03b2uyxbciy",954.3,451.531000055524,13515,"06/04/2022@17:57:03","Mozilla/5.0 (Windows NT 10.0; Win64; x64) AppleWebKit/537.36 (KHTML, like Gecko) Chrome/99.0.4844.51 Safari/537.36 Edg/99.0.1150.39",1536,1024,1536,914,"main",1666137,27,6,26,23,"EE","Extreme","Easier than Reference","F","j","riskyDeck","safeDeck",0,-14,-7,"right",0,0,25,"present","safeDeck",524,909,1,1
"03b2uyxbciy",954.3,451.531000055524,13515,"06/04/2022@17:57:03","Mozilla/5.0 (Windows NT 10.0; Win64; x64) AppleWebKit/537.36 (KHTML, like Gecko) Chrome/99.0.4844.51 Safari/537.36 Edg/99.0.1150.39",1536,1024,1536,914,"main",1666137,27,7,26,23,"EE","Extreme","Easier than Reference","F","j","riskyDeck","safeDeck",0,-14,-7,"right",0,0,25,"present","safeDeck",524,827,1,1
"03b2uyxbciy",954.3,451.531000055524,13515,"06/04/2022@17:57:03","Mozilla/5.0 (Windows NT 10.0; Win64; x64) AppleWebKit/537.36 (KHTML, like Gecko) Chrome/99.0.4844.51 Safari/537.36 Edg/99.0.1150.39",1536,1024,1536,914,"main",1666137,27,8,26,23,"EE","Extreme","Easier than Reference","F","j","riskyDeck","safeDeck",0,-14,-7,"right",0,0,25,"present","safeDeck",524,863,1,1
"03b2uyxbciy",954.3,451.531000055524,13515,"06/04/2022@17:57:03","Mozilla/5.0 (Windows NT 10.0; Win64; x64) AppleWebKit/537.36 (KHTML, like Gecko) Chrome/99.0.4844.51 Safari/537.36 Edg/99.0.1150.39",1536,1024,1536,914,"main",1666137,27,9,26,23,"EE","Extreme","Easier than Reference","F","j","riskyDeck","safeDeck",0,-14,-7,"right",0,0,25,"present","safeDeck",524,685,1,1
"03b2uyxbciy",954.3,451.531000055524,13515,"06/04/2022@17:57:03","Mozilla/5.0 (Windows NT 10.0; Win64; x64) AppleWebKit/537.36 (KHTML, like Gecko) Chrome/99.0.4844.51 Safari/537.36 Edg/99.0.1150.39",1536,1024,1536,914,"main",1666137,28,1,26,23,"HM","Moderate","Harder than Reference","F","k","safeDeck","riskyDeck",14,0,7,"right",1,0,32,"absent","riskyDeck",948,1807,1,0
"03b2uyxbciy",954.3,451.531000055524,13515,"06/04/2022@17:57:03","Mozilla/5.0 (Windows NT 10.0; Win64; x64) AppleWebKit/537.36 (KHTML, like Gecko) Chrome/99.0.4844.51 Safari/537.36 Edg/99.0.1150.39",1536,1024,1536,914,"main",1666137,28,2,26,23,"HM","Moderate","Harder than Reference","F","j","safeDeck","riskyDeck",14,0,7,"right",1,0,32,"present","riskyDeck",948,707,1,0
"03b2uyxbciy",954.3,451.531000055524,13515,"06/04/2022@17:57:03","Mozilla/5.0 (Windows NT 10.0; Win64; x64) AppleWebKit/537.36 (KHTML, like Gecko) Chrome/99.0.4844.51 Safari/537.36 Edg/99.0.1150.39",1536,1024,1536,914,"main",1666137,28,3,26,23,"HM","Moderate","Harder than Reference","F","k","safeDeck","riskyDeck",14,0,7,"right",1,0,32,"absent","riskyDeck",948,1549,1,0
"03b2uyxbciy",954.3,451.531000055524,13515,"06/04/2022@17:57:03","Mozilla/5.0 (Windows NT 10.0; Win64; x64) AppleWebKit/537.36 (KHTML, like Gecko) Chrome/99.0.4844.51 Safari/537.36 Edg/99.0.1150.39",1536,1024,1536,914,"main",1666137,28,4,26,23,"HM","Moderate","Harder than Reference","F","k","safeDeck","riskyDeck",14,0,7,"right",1,1,32,"present","riskyDeck",948,1946,1,0
"03b2uyxbciy",954.3,451.531000055524,13515,"06/04/2022@17:57:03","Mozilla/5.0 (Windows NT 10.0; Win64; x64) AppleWebKit/537.36 (KHTML, like Gecko) Chrome/99.0.4844.51 Safari/537.36 Edg/99.0.1150.39",1536,1024,1536,914,"main",1666137,28,5,26,24,"HM","Moderate","Harder than Reference","F","j","safeDeck","riskyDeck",14,0,7,"right",1,0,32,"present","riskyDeck",948,2132,1,0
"03b2uyxbciy",954.3,451.531000055524,13515,"06/04/2022@17:57:03","Mozilla/5.0 (Windows NT 10.0; Win64; x64) AppleWebKit/537.36 (KHTML, like Gecko) Chrome/99.0.4844.51 Safari/537.36 Edg/99.0.1150.39",1536,1024,1536,914,"main",1666137,28,6,26,24,"HM","Moderate","Harder than Reference","F","k","safeDeck","riskyDeck",14,0,7,"right",1,0,32,"absent","riskyDeck",948,2677,1,0
"03b2uyxbciy",954.3,451.531000055524,13515,"06/04/2022@17:57:03","Mozilla/5.0 (Windows NT 10.0; Win64; x64) AppleWebKit/537.36 (KHTML, like Gecko) Chrome/99.0.4844.51 Safari/537.36 Edg/99.0.1150.39",1536,1024,1536,914,"main",1666137,28,7,26,24,"HM","Moderate","Harder than Reference","F","k","safeDeck","riskyDeck",14,0,7,"right",1,0,32,"absent","riskyDeck",948,1974,1,0
"03b2uyxbciy",954.3,451.531000055524,13515,"06/04/2022@17:57:03","Mozilla/5.0 (Windows NT 10.0; Win64; x64) AppleWebKit/537.36 (KHTML, like Gecko) Chrome/99.0.4844.51 Safari/537.36 Edg/99.0.1150.39",1536,1024,1536,914,"main",1666137,28,8,26,24,"HM","Moderate","Harder than Reference","F","k","safeDeck","riskyDeck",14,0,7,"right",1,0,32,"absent","riskyDeck",948,1708,1,0
"03b2uyxbciy",954.3,451.531000055524,13515,"06/04/2022@17:57:03","Mozilla/5.0 (Windows NT 10.0; Win64; x64) AppleWebKit/537.36 (KHTML, like Gecko) Chrome/99.0.4844.51 Safari/537.36 Edg/99.0.1150.39",1536,1024,1536,914,"main",1666137,28,9,26,24,"HM","Moderate","Harder than Reference","F","k","safeDeck","riskyDeck",14,0,7,"right",1,0,32,"absent","riskyDeck",948,3723,1,0
"03b2uyxbciy",954.3,451.531000055524,13515,"06/04/2022@17:57:03","Mozilla/5.0 (Windows NT 10.0; Win64; x64) AppleWebKit/537.36 (KHTML, like Gecko) Chrome/99.0.4844.51 Safari/537.36 Edg/99.0.1150.39",1536,1024,1536,914,"main",1666137,29,1,26,24,"EM","Moderate","Easier than Reference","F","k","riskyDeck","safeDeck",-28,0,-14,"right",0,0,18,"absent","safeDeck",521,1694,1,1
"03b2uyxbciy",954.3,451.531000055524,13515,"06/04/2022@17:57:03","Mozilla/5.0 (Windows NT 10.0; Win64; x64) AppleWebKit/537.36 (KHTML, like Gecko) Chrome/99.0.4844.51 Safari/537.36 Edg/99.0.1150.39",1536,1024,1536,914,"main",1666137,29,2,26,24,"EM","Moderate","Easier than Reference","F","j","riskyDeck","safeDeck",-28,0,-14,"right",0,0,18,"present","safeDeck",521,962,1,1
"03b2uyxbciy",954.3,451.531000055524,13515,"06/04/2022@17:57:03","Mozilla/5.0 (Windows NT 10.0; Win64; x64) AppleWebKit/537.36 (KHTML, like Gecko) Chrome/99.0.4844.51 Safari/537.36 Edg/99.0.1150.39",1536,1024,1536,914,"main",1666137,29,3,26,24,"EM","Moderate","Easier than Reference","F","j","riskyDeck","safeDeck",-28,0,-14,"right",0,0,18,"present","safeDeck",521,871,1,1
"03b2uyxbciy",954.3,451.531000055524,13515,"06/04/2022@17:57:03","Mozilla/5.0 (Windows NT 10.0; Win64; x64) AppleWebKit/537.36 (KHTML, like Gecko) Chrome/99.0.4844.51 Safari/537.36 Edg/99.0.1150.39",1536,1024,1536,914,"main",1666137,29,4,26,24,"EM","Moderate","Easier than Reference","F","j","riskyDeck","safeDeck",-28,0,-14,"right",0,0,18,"present","safeDeck",521,1073,1,1
"03b2uyxbciy",954.3,451.531000055524,13515,"06/04/2022@17:57:03","Mozilla/5.0 (Windows NT 10.0; Win64; x64) AppleWebKit/537.36 (KHTML, like Gecko) Chrome/99.0.4844.51 Safari/537.36 Edg/99.0.1150.39",1536,1024,1536,914,"main",1666137,29,5,26,24,"EM","Moderate","Easier than Reference","F","j","riskyDeck","safeDeck",-28,0,-14,"right",0,0,18,"present","safeDeck",521,1426,1,1
"03b2uyxbciy",954.3,451.531000055524,13515,"06/04/2022@17:57:03","Mozilla/5.0 (Windows NT 10.0; Win64; x64) AppleWebKit/537.36 (KHTML, like Gecko) Chrome/99.0.4844.51 Safari/537.36 Edg/99.0.1150.39",1536,1024,1536,914,"main",1666137,29,6,26,24,"EM","Moderate","Easier than Reference","F","j","riskyDeck","safeDeck",-28,0,-14,"right",0,0,18,"present","safeDeck",521,1374,1,1
"03b2uyxbciy",954.3,451.531000055524,13515,"06/04/2022@17:57:03","Mozilla/5.0 (Windows NT 10.0; Win64; x64) AppleWebKit/537.36 (KHTML, like Gecko) Chrome/99.0.4844.51 Safari/537.36 Edg/99.0.1150.39",1536,1024,1536,914,"main",1666137,29,7,26,24,"EM","Moderate","Easier than Reference","F","k","riskyDeck","safeDeck",-28,0,-14,"right",0,0,18,"absent","safeDeck",521,1531,1,1
"03b2uyxbciy",954.3,451.531000055524,13515,"06/04/2022@17:57:03","Mozilla/5.0 (Windows NT 10.0; Win64; x64) AppleWebKit/537.36 (KHTML, like Gecko) Chrome/99.0.4844.51 Safari/537.36 Edg/99.0.1150.39",1536,1024,1536,914,"main",1666137,29,8,26,24,"EM","Moderate","Easier than Reference","F","k","riskyDeck","safeDeck",-28,0,-14,"right",0,0,18,"absent","safeDeck",521,1138,1,1
"03b2uyxbciy",954.3,451.531000055524,13515,"06/04/2022@17:57:03","Mozilla/5.0 (Windows NT 10.0; Win64; x64) AppleWebKit/537.36 (KHTML, like Gecko) Chrome/99.0.4844.51 Safari/537.36 Edg/99.0.1150.39",1536,1024,1536,914,"main",1666137,29,9,26,24,"EM","Moderate","Easier than Reference","F","j","riskyDeck","safeDeck",-28,0,-14,"right",0,0,18,"present","safeDeck",521,958,1,1
"03b2uyxbciy",954.3,451.531000055524,13515,"06/04/2022@17:57:03","Mozilla/5.0 (Windows NT 10.0; Win64; x64) AppleWebKit/537.36 (KHTML, like Gecko) Chrome/99.0.4844.51 Safari/537.36 Edg/99.0.1150.39",1536,1024,1536,914,"main",1666137,30,1,26,24,"HE","Extreme","Harder than Reference","D","j","riskyDeck","safeDeck",0,28,14,"left",1,0,32,"present","riskyDeck",577,1140,-1,0
"03b2uyxbciy",954.3,451.531000055524,13515,"06/04/2022@17:57:03","Mozilla/5.0 (Windows NT 10.0; Win64; x64) AppleWebKit/537.36 (KHTML, like Gecko) Chrome/99.0.4844.51 Safari/537.36 Edg/99.0.1150.39",1536,1024,1536,914,"main",1666137,30,2,26,24,"HE","Extreme","Harder than Reference","D","j","riskyDeck","safeDeck",0,28,14,"left",1,0,32,"present","riskyDeck",577,646,-1,0
"03b2uyxbciy",954.3,451.531000055524,13515,"06/04/2022@17:57:03","Mozilla/5.0 (Windows NT 10.0; Win64; x64) AppleWebKit/537.36 (KHTML, like Gecko) Chrome/99.0.4844.51 Safari/537.36 Edg/99.0.1150.39",1536,1024,1536,914,"main",1666137,30,3,26,24,"HE","Extreme","Harder than Reference","D","k","riskyDeck","safeDeck",0,28,14,"left",1,0,32,"absent","riskyDeck",577,2411,-1,0
"03b2uyxbciy",954.3,451.531000055524,13515,"06/04/2022@17:57:03","Mozilla/5.0 (Windows NT 10.0; Win64; x64) AppleWebKit/537.36 (KHTML, like Gecko) Chrome/99.0.4844.51 Safari/537.36 Edg/99.0.1150.39",1536,1024,1536,914,"main",1666137,30,4,26,24,"HE","Extreme","Harder than Reference","D","j","riskyDeck","safeDeck",0,28,14,"left",1,0,32,"present","riskyDeck",577,1660,-1,0
"03b2uyxbciy",954.3,451.531000055524,13515,"06/04/2022@17:57:03","Mozilla/5.0 (Windows NT 10.0; Win64; x64) AppleWebKit/537.36 (KHTML, like Gecko) Chrome/99.0.4844.51 Safari/537.36 Edg/99.0.1150.39",1536,1024,1536,914,"main",1666137,30,5,26,24,"HE","Extreme","Harder than Reference","D","k","riskyDeck","safeDeck",0,28,14,"left",1,0,32,"absent","riskyDeck",577,1599,-1,0
"03b2uyxbciy",954.3,451.531000055524,13515,"06/04/2022@17:57:03","Mozilla/5.0 (Windows NT 10.0; Win64; x64) AppleWebKit/537.36 (KHTML, like Gecko) Chrome/99.0.4844.51 Safari/537.36 Edg/99.0.1150.39",1536,1024,1536,914,"main",1666137,30,6,26,24,"HE","Extreme","Harder than Reference","D","k","riskyDeck","safeDeck",0,28,14,"left",1,0,32,"absent","riskyDeck",577,1741,-1,0
"03b2uyxbciy",954.3,451.531000055524,13515,"06/04/2022@17:57:03","Mozilla/5.0 (Windows NT 10.0; Win64; x64) AppleWebKit/537.36 (KHTML, like Gecko) Chrome/99.0.4844.51 Safari/537.36 Edg/99.0.1150.39",1536,1024,1536,914,"main",1666137,30,7,26,24,"HE","Extreme","Harder than Reference","D","j","riskyDeck","safeDeck",0,28,14,"left",1,0,32,"present","riskyDeck",577,909,-1,0
"03b2uyxbciy",954.3,451.531000055524,13515,"06/04/2022@17:57:03","Mozilla/5.0 (Windows NT 10.0; Win64; x64) AppleWebKit/537.36 (KHTML, like Gecko) Chrome/99.0.4844.51 Safari/537.36 Edg/99.0.1150.39",1536,1024,1536,914,"main",1666137,30,8,27,24,"HE","Extreme","Harder than Reference","D","k","riskyDeck","safeDeck",0,28,14,"left",1,0,32,"absent","riskyDeck",577,2006,-1,0
"03b2uyxbciy",954.3,451.531000055524,13515,"06/04/2022@17:57:03","Mozilla/5.0 (Windows NT 10.0; Win64; x64) AppleWebKit/537.36 (KHTML, like Gecko) Chrome/99.0.4844.51 Safari/537.36 Edg/99.0.1150.39",1536,1024,1536,914,"main",1666137,30,9,27,24,"HE","Extreme","Harder than Reference","D","k","riskyDeck","safeDeck",0,28,14,"left",1,0,32,"absent","riskyDeck",577,1968,-1,0
"03b2uyxbciy",954.3,451.531000055524,13515,"06/04/2022@17:57:03","Mozilla/5.0 (Windows NT 10.0; Win64; x64) AppleWebKit/537.36 (KHTML, like Gecko) Chrome/99.0.4844.51 Safari/537.36 Edg/99.0.1150.39",1536,1024,1536,914,"main",1666137,31,1,27,24,"EE","Extreme","Easier than Reference","D","j","safeDeck","riskyDeck",-14,0,-7,"left",0,0,25,"present","safeDeck",639,1276,-1,1
"03b2uyxbciy",954.3,451.531000055524,13515,"06/04/2022@17:57:03","Mozilla/5.0 (Windows NT 10.0; Win64; x64) AppleWebKit/537.36 (KHTML, like Gecko) Chrome/99.0.4844.51 Safari/537.36 Edg/99.0.1150.39",1536,1024,1536,914,"main",1666137,31,2,27,24,"EE","Extreme","Easier than Reference","D","j","safeDeck","riskyDeck",-14,0,-7,"left",0,0,25,"present","safeDeck",639,1873,-1,1
"03b2uyxbciy",954.3,451.531000055524,13515,"06/04/2022@17:57:03","Mozilla/5.0 (Windows NT 10.0; Win64; x64) AppleWebKit/537.36 (KHTML, like Gecko) Chrome/99.0.4844.51 Safari/537.36 Edg/99.0.1150.39",1536,1024,1536,914,"main",1666137,31,3,27,24,"EE","Extreme","Easier than Reference","D","j","safeDeck","riskyDeck",-14,0,-7,"left",0,0,25,"present","safeDeck",639,763,-1,1
"03b2uyxbciy",954.3,451.531000055524,13515,"06/04/2022@17:57:03","Mozilla/5.0 (Windows NT 10.0; Win64; x64) AppleWebKit/537.36 (KHTML, like Gecko) Chrome/99.0.4844.51 Safari/537.36 Edg/99.0.1150.39",1536,1024,1536,914,"main",1666137,31,4,27,24,"EE","Extreme","Easier than Reference","D","j","safeDeck","riskyDeck",-14,0,-7,"left",0,0,25,"present","safeDeck",639,1033,-1,1
"03b2uyxbciy",954.3,451.531000055524,13515,"06/04/2022@17:57:03","Mozilla/5.0 (Windows NT 10.0; Win64; x64) AppleWebKit/537.36 (KHTML, like Gecko) Chrome/99.0.4844.51 Safari/537.36 Edg/99.0.1150.39",1536,1024,1536,914,"main",1666137,31,5,27,25,"EE","Extreme","Easier than Reference","D","j","safeDeck","riskyDeck",-14,0,-7,"left",0,0,25,"present","safeDeck",639,696,-1,1
"03b2uyxbciy",954.3,451.531000055524,13515,"06/04/2022@17:57:03","Mozilla/5.0 (Windows NT 10.0; Win64; x64) AppleWebKit/537.36 (KHTML, like Gecko) Chrome/99.0.4844.51 Safari/537.36 Edg/99.0.1150.39",1536,1024,1536,914,"main",1666137,31,6,27,25,"EE","Extreme","Easier than Reference","D","j","safeDeck","riskyDeck",-14,0,-7,"left",0,0,25,"present","safeDeck",639,714,-1,1
"03b2uyxbciy",954.3,451.531000055524,13515,"06/04/2022@17:57:03","Mozilla/5.0 (Windows NT 10.0; Win64; x64) AppleWebKit/537.36 (KHTML, like Gecko) Chrome/99.0.4844.51 Safari/537.36 Edg/99.0.1150.39",1536,1024,1536,914,"main",1666137,31,7,27,25,"EE","Extreme","Easier than Reference","D","j","safeDeck","riskyDeck",-14,0,-7,"left",0,0,25,"present","safeDeck",639,1052,-1,1
"03b2uyxbciy",954.3,451.531000055524,13515,"06/04/2022@17:57:03","Mozilla/5.0 (Windows NT 10.0; Win64; x64) AppleWebKit/537.36 (KHTML, like Gecko) Chrome/99.0.4844.51 Safari/537.36 Edg/99.0.1150.39",1536,1024,1536,914,"main",1666137,31,8,27,25,"EE","Extreme","Easier than Reference","D","k","safeDeck","riskyDeck",-14,0,-7,"left",0,0,25,"absent","safeDeck",639,2267,-1,1
"03b2uyxbciy",954.3,451.531000055524,13515,"06/04/2022@17:57:03","Mozilla/5.0 (Windows NT 10.0; Win64; x64) AppleWebKit/537.36 (KHTML, like Gecko) Chrome/99.0.4844.51 Safari/537.36 Edg/99.0.1150.39",1536,1024,1536,914,"main",1666137,31,9,27,25,"EE","Extreme","Easier than Reference","D","j","safeDeck","riskyDeck",-14,0,-7,"left",0,0,25,"present","safeDeck",639,790,-1,1
"03b2uyxbciy",954.3,451.531000055524,13515,"06/04/2022@17:57:03","Mozilla/5.0 (Windows NT 10.0; Win64; x64) AppleWebKit/537.36 (KHTML, like Gecko) Chrome/99.0.4844.51 Safari/537.36 Edg/99.0.1150.39",1536,1024,1536,914,"main",1666137,32,1,27,25,"HM","Moderate","Harder than Reference","F","j","safeDeck","riskyDeck",14,0,7,"right",1,0,46,"present","riskyDeck",661,1079,1,0
"03b2uyxbciy",954.3,451.531000055524,13515,"06/04/2022@17:57:03","Mozilla/5.0 (Windows NT 10.0; Win64; x64) AppleWebKit/537.36 (KHTML, like Gecko) Chrome/99.0.4844.51 Safari/537.36 Edg/99.0.1150.39",1536,1024,1536,914,"main",1666137,32,2,27,25,"HM","Moderate","Harder than Reference","F","j","safeDeck","riskyDeck",14,0,7,"right",1,0,46,"present","riskyDeck",661,1722,1,0
"03b2uyxbciy",954.3,451.531000055524,13515,"06/04/2022@17:57:03","Mozilla/5.0 (Windows NT 10.0; Win64; x64) AppleWebKit/537.36 (KHTML, like Gecko) Chrome/99.0.4844.51 Safari/537.36 Edg/99.0.1150.39",1536,1024,1536,914,"main",1666137,32,3,27,25,"HM","Moderate","Harder than Reference","F","j","safeDeck","riskyDeck",14,0,7,"right",1,0,46,"present","riskyDeck",661,843,1,0
"03b2uyxbciy",954.3,451.531000055524,13515,"06/04/2022@17:57:03","Mozilla/5.0 (Windows NT 10.0; Win64; x64) AppleWebKit/537.36 (KHTML, like Gecko) Chrome/99.0.4844.51 Safari/537.36 Edg/99.0.1150.39",1536,1024,1536,914,"main",1666137,32,4,27,25,"HM","Moderate","Harder than Reference","F","j","safeDeck","riskyDeck",14,0,7,"right",1,0,46,"present","riskyDeck",661,1094,1,0
"03b2uyxbciy",954.3,451.531000055524,13515,"06/04/2022@17:57:03","Mozilla/5.0 (Windows NT 10.0; Win64; x64) AppleWebKit/537.36 (KHTML, like Gecko) Chrome/99.0.4844.51 Safari/537.36 Edg/99.0.1150.39",1536,1024,1536,914,"main",1666137,32,5,27,25,"HM","Moderate","Harder than Reference","F","k","safeDeck","riskyDeck",14,0,7,"right",1,0,46,"absent","riskyDeck",661,2678,1,0
"03b2uyxbciy",954.3,451.531000055524,13515,"06/04/2022@17:57:03","Mozilla/5.0 (Windows NT 10.0; Win64; x64) AppleWebKit/537.36 (KHTML, like Gecko) Chrome/99.0.4844.51 Safari/537.36 Edg/99.0.1150.39",1536,1024,1536,914,"main",1666137,32,6,27,25,"HM","Moderate","Harder than Reference","F","j","safeDeck","riskyDeck",14,0,7,"right",1,0,46,"present","riskyDeck",661,622,1,0
